timestamp,accX,accY,accZ,gyroX,gyroY,gyroZ,magX,magY,magZ
Break
154408403,2.57,2.14,16.77,-0.61,0.62,-0.01,4.62,4.38,-46.25
154424450,2.57,2.14,16.77,-0.32,-0.35,-0.18,4.62,4.38,-46.25
154427921,2.57,2.14,16.77,0.20,0.09,0.37,4.62,4.38,-46.25
154436774,-0.50,-1.07,1.84,0.20,0.09,0.37,4.62,4.38,-46.25
154448357,-0.50,-1.07,1.84,0.16,-0.19,0.35,4.62,4.38,-46.25
154458415,-0.50,-1.07,1.84,0.09,-0.01,0.33,4.62,4.38,-46.25
154468619,0.27,-2.61,17.89,0.09,-0.01,0.33,4.62,4.38,-46.25
154478382,0.27,-2.61,17.89,0.05,0.09,0.28,4.62,4.38,-46.25
154487642,0.27,-2.61,17.89,0.16,0.03,0.33,4.62,4.38,-46.25
154498828,0.27,-2.61,17.89,0.26,-0.14,0.39,4.62,4.38,-46.25
154508331,0.27,-2.61,17.89,0.18,-0.00,0.43,4.62,4.38,-46.25
154518345,0.27,-2.61,17.89,0.15,-0.04,0.44,4.62,4.38,-46.25
154528173,0.27,-2.61,17.89,0.16,-0.15,0.45,4.62,4.38,-46.25
154538628,1.84,-4.02,16.62,0.16,-0.15,0.45,4.62,4.38,-46.25
154548303,1.84,-4.02,16.62,0.12,0.09,0.51,4.62,4.38,-46.25
154558371,1.84,-4.02,16.62,0.12,0.09,0.51,-7.88,7.38,-50.38
154568613,1.84,-4.02,16.62,0.04,0.26,0.59,-7.88,7.38,-50.38
154578355,1.84,-4.02,16.62,0.03,0.08,0.61,-7.88,7.38,-50.38
154588369,1.84,-4.02,16.62,0.06,-0.10,0.62,-7.88,7.38,-50.38
154597948,1.84,-4.02,16.62,0.10,-0.16,0.60,-7.88,7.38,-50.38
154609515,2.38,-2.03,10.91,0.10,-0.16,0.60,-7.88,7.38,-50.38
154618351,2.38,-2.03,10.91,0.14,-0.13,0.62,-7.88,7.38,-50.38
154627286,2.38,-2.03,10.91,0.09,-0.01,0.69,-7.88,7.38,-50.38
154638320,2.38,-2.03,10.91,0.06,0.09,0.76,-7.88,7.38,-50.38
154648621,2.38,-2.03,10.91,0.06,0.19,0.79,-7.88,7.38,-50.38
154657669,2.38,-2.03,10.91,0.06,0.19,0.79,-7.19,6.69,-49.25
154667863,2.38,-2.03,10.91,-0.03,0.22,0.82,-7.19,6.69,-49.25
154678714,-13.71,-0.61,-3.33,-0.03,0.22,0.82,-7.19,6.69,-49.25
154688288,-13.71,-0.61,-3.33,-0.24,-0.09,0.81,-7.19,6.69,-49.25
154698393,-13.71,-0.61,-3.33,0.11,-0.65,0.51,-7.19,6.69,-49.25
154708650,-13.71,-0.61,-3.33,0.33,-0.60,0.36,-7.19,6.69,-49.25
154718277,-13.71,-0.61,-3.33,-0.08,0.11,0.17,-7.19,6.69,-49.25
154727680,-13.71,-0.61,-3.33,-0.29,0.44,0.40,-7.19,6.69,-49.25
154738337,-13.71,-0.61,-3.33,-0.17,0.19,0.43,-7.19,6.69,-49.25
154748276,-13.71,-0.61,-3.33,-0.35,0.12,0.32,-7.19,6.69,-49.25
154758317,-13.71,-0.61,-3.33,-0.35,-0.17,0.24,-7.19,6.69,-49.25
154768351,-13.71,-0.61,-3.33,-0.13,-0.49,0.20,-7.19,6.69,-49.25
154778670,-13.71,-0.61,-3.33,-0.19,-0.18,0.23,-7.19,6.69,-49.25
154788312,-13.71,-0.61,-3.33,-0.36,0.11,0.17,-7.19,6.69,-49.25
154797757,-13.71,-0.61,-3.33,-0.40,0.08,0.08,-7.19,6.69,-49.25
154809138,-13.71,-0.61,-3.33,-0.31,-0.13,0.02,-7.19,6.69,-49.25
154818393,-13.71,-0.61,-3.33,-0.34,-0.07,-0.03,-7.19,6.69,-49.25
154828362,-13.71,-0.61,-3.33,-0.36,0.01,-0.07,-7.19,6.69,-49.25
154838350,-13.71,-0.61,-3.33,-0.30,-0.18,-0.13,-7.19,6.69,-49.25
154848640,-13.71,-0.61,-3.33,-0.40,-0.03,-0.23,-7.19,6.69,-49.25
154858423,-13.71,-0.61,-3.33,-0.40,-0.17,-0.32,-7.19,6.69,-49.25
154867706,-13.71,-0.61,-3.33,-0.36,-0.19,-0.36,-7.19,6.69,-49.25
154878857,-13.71,-0.61,-3.33,-0.44,0.13,-0.37,-7.19,6.69,-49.25
154888350,-13.71,-0.61,-3.33,-0.52,0.07,-0.46,-7.19,6.69,-49.25
154898314,-13.71,-0.61,-3.33,-0.53,0.01,-0.54,-7.19,6.69,-49.25
154908093,-13.71,-0.61,-3.33,-0.43,-0.04,-0.54,-7.19,6.69,-49.25
154918738,-13.71,-0.61,-3.33,-0.37,-0.05,-0.53,-7.19,6.69,-49.25
154928335,-13.71,-0.61,-3.33,-0.40,0.04,-0.55,-7.19,6.69,-49.25
154938313,-13.71,-0.61,-3.33,-0.45,0.16,-0.58,-7.19,6.69,-49.25
154948652,-13.71,-0.61,-3.33,-0.33,-0.04,-0.55,-7.19,6.69,-49.25
154958346,-13.71,-0.61,-3.33,-0.34,-0.12,-0.55,-7.19,6.69,-49.25
154968297,-13.71,-0.61,-3.33,-0.37,-0.14,-0.58,-7.19,6.69,-49.25
154977979,-13.71,-0.61,-3.33,-0.35,-0.06,-0.56,-7.19,6.69,-49.25
154988690,-13.71,-0.61,-3.33,-0.38,0.12,-0.56,-7.19,6.69,-49.25
154998312,-13.71,-0.61,-3.33,-0.35,0.02,-0.56,-7.19,6.69,-49.25
155008472,-13.71,-0.61,-3.33,-0.37,-0.05,-0.61,-7.19,6.69,-49.25
155018739,-13.71,-0.61,-3.33,-0.33,-0.14,-0.58,-7.19,6.69,-49.25
155028372,-13.71,-0.61,-3.33,-0.26,-0.21,-0.52,-7.19,6.69,-49.25
155037636,-13.71,-0.61,-3.33,-0.19,-0.30,-0.49,-7.19,6.69,-49.25
155047915,-13.71,-0.61,-3.33,-0.28,0.00,-0.42,-7.19,6.69,-49.25
155058667,-5.09,-1.23,9.27,-0.28,0.00,-0.42,-7.19,6.69,-49.25
155068426,-5.09,-1.23,9.27,-0.19,-0.03,-0.39,-7.19,6.69,-49.25
155078382,-5.09,-1.23,9.27,-0.18,-0.09,-0.40,-7.19,6.69,-49.25
155088692,-5.09,-1.23,9.27,-0.32,0.18,-0.43,-7.19,6.69,-49.25
155098305,-5.09,-1.23,9.27,-0.13,-0.27,-0.49,-7.19,6.69,-49.25
155107647,-5.09,-1.23,9.27,-0.14,-0.07,-0.50,-7.19,6.69,-49.25
155117571,-5.09,-1.23,9.27,-0.15,0.03,-0.51,-7.19,6.69,-49.25
155127185,-5.09,-1.23,9.27,-0.11,-0.09,-0.53,-7.19,6.69,-49.25
155138644,-5.09,-1.23,9.27,-0.22,0.10,-0.55,-7.19,6.69,-49.25
155148383,-5.09,-1.23,9.27,-0.17,-0.06,-0.56,-7.19,6.69,-49.25
155158679,-5.09,-1.23,9.27,-0.15,-0.10,-0.57,-7.19,6.69,-49.25
155168315,-5.09,-1.23,9.27,-0.21,0.05,-0.58,-7.19,6.69,-49.25
155177683,-5.09,-1.23,9.27,-0.19,0.00,-0.58,-7.19,6.69,-49.25
155188995,-5.09,-1.23,9.27,-0.21,0.06,-0.58,-7.19,6.69,-49.25
155198308,-5.09,-1.23,9.27,-0.15,-0.06,-0.56,-7.19,6.69,-49.25
155208546,-5.09,-1.23,9.27,-0.13,-0.04,-0.55,-7.19,6.69,-49.25
155218299,-5.09,-1.23,9.27,-0.10,-0.09,-0.56,-7.19,6.69,-49.25
155228699,-5.09,-1.23,9.27,-0.03,-0.08,-0.53,-7.19,6.69,-49.25
155238318,-5.09,-1.23,9.27,-0.16,0.26,-0.51,-7.19,6.69,-49.25
155247626,-5.09,-1.23,9.27,-0.11,0.06,-0.55,-7.19,6.69,-49.25
155258735,-5.09,-1.23,9.27,-0.04,-0.09,-0.58,-7.19,6.69,-49.25
155268094,-5.09,-1.23,9.27,-0.12,0.12,-0.58,-7.19,6.69,-49.25
155278350,-5.09,-1.23,9.27,-0.10,0.03,-0.62,-7.19,6.69,-49.25
155288152,-5.09,-1.23,9.27,-0.01,-0.13,-0.64,-7.19,6.69,-49.25
155298622,-5.09,-1.23,9.27,-0.13,0.29,-0.59,-7.19,6.69,-49.25
155308350,-5.09,-1.23,9.27,-0.11,0.31,-0.55,-7.19,6.69,-49.25
155318385,-5.09,-1.23,9.27,0.04,0.05,-0.52,-7.19,6.69,-49.25
155328735,-5.09,-1.23,9.27,0.05,0.18,-0.45,-7.19,6.69,-49.25
155338327,-5.09,-1.23,9.27,0.11,0.03,-0.37,-7.19,6.69,-49.25
155348301,-5.09,-1.23,9.27,0.06,0.18,-0.29,-7.19,6.69,-49.25
155357959,-5.09,-1.23,9.27,0.01,0.29,-0.25,-7.19,6.69,-49.25
155368631,-5.09,-1.23,9.27,0.08,0.07,-0.22,-7.19,6.69,-49.25
155378373,-5.09,-1.23,9.27,0.02,0.20,-0.20,-7.19,6.69,-49.25
155388363,-5.09,-1.23,9.27,0.05,0.06,-0.20,-7.19,6.69,-49.25
155398692,-5.09,-1.23,9.27,0.13,-0.12,-0.18,-7.19,6.69,-49.25
155408516,-5.09,-1.23,9.27,0.11,0.09,-0.12,-7.19,6.69,-49.25
155417688,-5.09,-1.23,9.27,0.12,0.10,-0.08,-7.19,6.69,-49.25
155427977,-5.09,-1.23,9.27,0.08,0.33,-0.06,-7.19,6.69,-49.25
155438603,-5.09,-1.23,9.27,0.13,0.41,-0.05,-7.19,6.69,-49.25
155448319,-5.09,-1.23,9.27,0.24,0.14,-0.04,-7.19,6.69,-49.25
155458416,-5.09,-1.23,9.27,0.19,0.05,-0.04,-7.19,6.69,-49.25
155468744,-5.09,-1.23,9.27,0.15,-0.02,-0.09,-7.19,6.69,-49.25
155478327,-5.09,-1.23,9.27,0.20,-0.11,-0.08,-7.19,6.69,-49.25
155487643,-5.09,-1.23,9.27,0.19,0.05,-0.01,-7.19,6.69,-49.25
155498000,-5.09,-1.23,9.27,0.08,0.26,0.04,-7.19,6.69,-49.25
155508617,-1.42,-4.25,15.17,0.08,0.26,0.04,-7.19,6.69,-49.25
155518330,-1.42,-4.25,15.17,0.24,0.07,0.14,-7.19,6.69,-49.25
155528492,-1.42,-4.25,15.17,0.33,-0.02,0.21,-7.19,6.69,-49.25
155538633,-1.42,-4.25,15.17,0.32,-0.14,0.25,-7.19,6.69,-49.25
155548338,-1.42,-4.25,15.17,0.16,0.15,0.29,-7.19,6.69,-49.25
155557664,-1.42,-4.25,15.17,0.22,0.09,0.34,-7.19,6.69,-49.25
155568263,-1.42,-4.25,15.17,0.28,-0.13,0.41,-7.19,6.69,-49.25
155578299,-1.42,-4.25,15.17,0.19,0.07,0.46,-7.19,6.69,-49.25
155588341,-1.42,-4.25,15.17,0.19,0.19,0.54,-7.19,6.69,-49.25
155598314,-1.42,-4.25,15.17,0.29,0.09,0.60,-7.19,6.69,-49.25
155608101,-1.42,-4.25,15.17,0.37,-0.08,0.62,-7.19,6.69,-49.25
155618359,-1.42,-4.25,15.17,0.32,-0.02,0.61,-7.19,6.69,-49.25
155627742,-1.42,-4.25,15.17,0.30,-0.03,0.58,-7.19,6.69,-49.25
155638025,-1.42,-4.25,15.17,0.33,-0.15,0.58,-7.19,6.69,-49.25
155647666,-1.42,-4.25,15.17,0.24,0.02,0.55,-7.19,6.69,-49.25
155657685,-1.42,-4.25,15.17,0.28,-0.02,0.49,-7.19,6.69,-49.25
155668101,-1.42,-4.25,15.17,0.31,-0.08,0.41,-7.19,6.69,-49.25
155677996,-1.42,-4.25,15.17,0.22,0.01,0.30,-7.19,6.69,-49.25
155688291,-1.42,-4.25,15.17,0.13,0.06,0.17,-7.19,6.69,-49.25
155697744,-1.42,-4.25,15.17,0.11,-0.02,0.07,-7.19,6.69,-49.25
155707980,-1.42,-4.25,15.17,0.06,0.09,-0.00,-7.19,6.69,-49.25
155717744,-1.42,-4.25,15.17,0.04,0.14,-0.06,-7.19,6.69,-49.25
155727688,-1.42,-4.25,15.17,0.04,0.00,-0.12,-7.19,6.69,-49.25
155737920,-1.42,-4.25,15.17,-0.07,0.16,-0.15,-7.19,6.69,-49.25
155748021,-1.42,-4.25,15.17,-0.07,0.08,-0.18,-7.19,6.69,-49.25
155757632,-1.42,-4.25,15.17,0.07,-0.29,-0.22,-7.19,6.69,-49.25
155767676,-1.42,-4.25,15.17,0.01,-0.11,-0.22,-7.19,6.69,-49.25
155777998,-1.42,-4.25,15.17,-0.03,-0.07,-0.21,-7.19,6.69,-49.25
155787638,-1.42,-4.25,15.17,-0.01,-0.09,-0.20,-7.19,6.69,-49.25
155797687,-1.42,-4.25,15.17,-0.13,0.24,-0.19,-7.19,6.69,-49.25
155808021,-1.42,-4.25,15.17,-0.07,0.03,-0.20,-7.19,6.69,-49.25
155818051,-1.42,-4.25,15.17,-0.04,0.03,-0.20,-7.19,6.69,-49.25
155827676,-1.42,-4.25,15.17,-0.10,0.22,-0.20,-7.19,6.69,-49.25
155837719,-1.42,-4.25,15.17,0.01,-0.07,-0.20,-7.19,6.69,-49.25
155847976,-1.42,-4.25,15.17,0.03,-0.06,-0.18,-7.19,6.69,-49.25
155857697,-1.42,-4.25,15.17,0.03,-0.04,-0.14,-7.19,6.69,-49.25
155867723,-1.42,-4.25,15.17,0.02,-0.01,-0.12,-7.19,6.69,-49.25
155877273,-1.42,-4.25,15.17,-0.00,0.09,-0.10,-7.19,6.69,-49.25
155887976,-1.42,-4.25,15.17,0.02,0.08,-0.09,-7.19,6.69,-49.25
155897659,-1.42,-4.25,15.17,0.04,-0.00,-0.08,-7.19,6.69,-49.25
155907747,-1.42,-4.25,15.17,0.03,0.03,-0.05,-7.19,6.69,-49.25
155917975,-1.42,-4.25,15.17,0.04,0.07,-0.02,-7.19,6.69,-49.25
155927714,-1.42,-4.25,15.17,0.08,-0.02,0.02,-7.19,6.69,-49.25
155937755,-1.42,-4.25,15.17,0.08,-0.03,0.09,-7.19,6.69,-49.25
155947938,-1.42,-4.25,15.17,0.09,-0.04,0.15,-7.19,6.69,-49.25
155957992,4.94,-1.27,9.69,0.09,-0.04,0.15,-7.19,6.69,-49.25
155967690,4.94,-1.27,9.69,0.10,0.06,0.29,-7.19,6.69,-49.25
155977545,4.94,-1.27,9.69,0.12,0.09,0.35,-7.19,6.69,-49.25
155987986,4.94,-1.27,9.69,0.20,-0.04,0.42,-7.19,6.69,-49.25
155997662,4.94,-1.27,9.69,0.14,0.12,0.50,-7.19,6.69,-49.25
156007423,4.94,-1.27,9.69,0.12,0.07,0.51,-7.19,6.69,-49.25
156017176,4.94,-1.27,9.69,0.18,-0.14,0.51,-7.19,6.69,-49.25
156028023,4.94,-1.27,9.69,0.17,-0.09,0.55,-7.19,6.69,-49.25
156037663,4.94,-1.27,9.69,0.18,-0.06,0.61,-7.19,6.69,-49.25
156047374,4.94,-1.27,9.69,0.19,-0.00,0.63,-7.19,6.69,-49.25
156057993,4.94,-1.27,9.69,0.17,0.13,0.62,-7.19,6.69,-49.25
156068108,4.94,-1.27,9.69,0.17,0.05,0.60,-7.19,6.69,-49.25
156077704,4.94,-1.27,9.69,0.11,0.00,0.57,-7.19,6.69,-49.25
156087994,4.94,-1.27,9.69,0.11,-0.05,0.50,-7.19,6.69,-49.25
156097672,4.94,-1.27,9.69,0.21,-0.23,0.44,-7.19,6.69,-49.25
156107735,4.94,-1.27,9.69,0.19,-0.13,0.45,-7.19,6.69,-49.25
156117377,4.94,-1.27,9.69,0.04,0.12,0.46,-7.19,6.69,-49.25
156129365,4.94,-1.27,9.69,0.00,0.12,0.41,-7.19,6.69,-49.25
156137692,4.94,-1.27,9.69,0.01,0.06,0.28,-7.19,6.69,-49.25
156147732,4.94,-1.27,9.69,0.12,-0.13,0.23,-7.19,6.69,-49.25
156158015,4.94,-1.27,9.69,0.06,-0.03,0.22,-7.19,6.69,-49.25
156167674,4.94,-1.27,9.69,-0.03,0.05,0.13,-7.19,6.69,-49.25
156177677,4.94,-1.27,9.69,0.03,-0.09,0.10,-7.19,6.69,-49.25
156187274,4.94,-1.27,9.69,-0.01,0.07,0.11,-7.19,6.69,-49.25
156197986,4.94,-1.27,9.69,-0.00,-0.04,0.07,-7.19,6.69,-49.25
156209208,4.94,-1.27,9.69,0.01,-0.06,0.06,-7.19,6.69,-49.25
156217830,4.94,-1.27,9.69,-0.04,0.05,0.04,-7.19,6.69,-49.25
156228396,4.94,-1.27,9.69,0.02,-0.18,0.03,-7.19,6.69,-49.25
156237670,4.94,-1.27,9.69,-0.04,0.00,0.02,-7.19,6.69,-49.25
156247690,4.94,-1.27,9.69,-0.05,0.07,0.01,-7.19,6.69,-49.25
156257291,4.94,-1.27,9.69,-0.02,-0.04,0.03,-7.19,6.69,-49.25
156268111,4.94,-1.27,9.69,-0.07,0.05,0.04,-7.19,6.69,-49.25
156277683,4.94,-1.27,9.69,-0.12,0.12,0.02,-7.19,6.69,-49.25
156287708,4.94,-1.27,9.69,-0.09,0.04,-0.04,-7.19,6.69,-49.25
156297987,4.94,-1.27,9.69,-0.08,-0.04,-0.06,-7.19,6.69,-49.25
156307680,4.94,-1.27,9.69,-0.11,0.02,-0.05,-7.19,6.69,-49.25
156317741,4.94,-1.27,9.69,-0.12,0.02,-0.05,-7.19,6.69,-49.25
156327913,4.94,-1.27,9.69,-0.07,-0.03,-0.05,-7.19,6.69,-49.25
156338008,0.30,-1.34,9.38,-0.07,-0.03,-0.05,-7.19,6.69,-49.25
156347679,0.30,-1.34,9.38,-0.03,-0.02,-0.00,-7.19,6.69,-49.25
156357577,0.30,-1.34,9.38,-0.04,-0.05,0.02,-7.19,6.69,-49.25
156367981,0.30,-1.34,9.38,-0.10,0.05,0.03,-7.19,6.69,-49.25
156377710,0.30,-1.34,9.38,-0.05,0.02,0.03,-7.19,6.69,-49.25
156387680,0.30,-1.34,9.38,0.02,-0.11,0.05,-7.19,6.69,-49.25
156397709,0.30,-1.34,9.38,-0.04,-0.04,0.06,-7.19,6.69,-49.25
156408118,0.30,-1.34,9.38,-0.10,0.04,0.05,-7.19,6.69,-49.25
156417763,0.30,-1.34,9.38,-0.08,-0.01,0.04,-7.19,6.69,-49.25
156427373,0.30,-1.34,9.38,-0.06,-0.02,0.04,-7.19,6.69,-49.25
156437991,0.30,-1.34,9.38,-0.05,-0.04,0.02,-7.19,6.69,-49.25
156447650,0.30,-1.34,9.38,-0.07,-0.05,-0.01,-7.19,6.69,-49.25
156457781,0.30,-1.34,9.38,-0.10,-0.03,-0.06,-7.19,6.69,-49.25
156467733,0.30,-1.34,9.38,-0.13,-0.03,-0.09,-7.19,6.69,-49.25
156478030,2.14,-0.57,8.81,-0.13,-0.03,-0.09,-7.19,6.69,-49.25
156487655,2.14,-0.57,8.81,-0.15,0.03,-0.23,-7.19,6.69,-49.25
156497267,2.14,-0.57,8.81,-0.12,0.01,-0.31,-7.19,6.69,-49.25
156508079,2.14,-0.57,8.81,-0.11,-0.03,-0.36,-7.19,6.69,-49.25
156517733,2.14,-0.57,8.81,-0.14,-0.01,-0.40,-7.19,6.69,-49.25
156527699,2.14,-0.57,8.81,-0.15,-0.02,-0.42,-7.19,6.69,-49.25
156538003,2.14,-0.57,8.81,-0.13,-0.03,-0.39,-7.19,6.69,-49.25
156547649,2.14,-0.57,8.81,-0.14,0.07,-0.40,-7.19,6.69,-49.25
156557672,2.14,-0.57,8.81,-0.10,0.01,-0.42,-7.19,6.69,-49.25
156567283,2.14,-0.57,8.81,-0.09,0.03,-0.42,-7.19,6.69,-49.25
156577990,2.14,-0.57,8.81,-0.12,-0.01,-0.44,-7.19,6.69,-49.25
156587649,2.14,-0.57,8.81,-0.16,-0.02,-0.44,-7.19,6.69,-49.25
156597680,2.14,-0.57,8.81,-0.19,0.07,-0.42,-7.19,6.69,-49.25
156608115,2.14,-0.57,8.81,-0.11,-0.04,-0.39,-7.19,6.69,-49.25
156617683,2.14,-0.57,8.81,-0.04,-0.12,-0.33,-7.19,6.69,-49.25
156627781,2.14,-0.57,8.81,-0.09,0.01,-0.28,-7.19,6.69,-49.25
156637278,2.14,-0.57,8.81,-0.12,0.07,-0.25,-7.19,6.69,-49.25
156647973,2.14,-0.57,8.81,-0.08,0.04,-0.20,-7.19,6.69,-49.25
156657672,2.14,-0.57,8.81,-0.04,0.01,-0.14,-7.19,6.69,-49.25
156668414,2.14,-0.57,8.81,-0.03,0.00,-0.12,-7.19,6.69,-49.25
156677980,2.14,-0.57,8.81,-0.04,0.02,-0.13,-7.19,6.69,-49.25
156687678,2.14,-0.57,8.81,-0.01,-0.05,-0.15,-7.19,6.69,-49.25
156697660,2.14,-0.57,8.81,-0.00,-0.05,-0.15,-7.19,6.69,-49.25
156708416,2.14,-0.57,8.81,-0.02,0.03,-0.17,-7.19,6.69,-49.25
156718679,2.14,-0.57,8.81,-0.01,0.03,-0.15,-7.19,6.69,-49.25
156728499,2.14,-0.57,8.81,-0.01,0.02,-0.12,-7.19,6.69,-49.25
156737525,2.14,-0.57,8.81,-0.01,0.03,-0.07,-7.19,6.69,-49.25
156748627,2.14,-0.57,8.81,-0.01,0.05,-0.02,-7.19,6.69,-49.25
156758307,2.14,-0.57,8.81,0.03,-0.00,0.03,-7.19,6.69,-49.25
156768374,2.14,-0.57,8.81,0.07,0.02,0.07,-7.19,6.69,-49.25
156778293,2.14,-0.57,8.81,0.08,0.04,0.13,-7.19,6.69,-49.25
156788601,2.14,-0.57,8.81,0.07,-0.01,0.15,-7.19,6.69,-49.25
156798401,2.14,-0.57,8.81,0.05,-0.03,0.18,-7.19,6.69,-49.25
156807428,2.14,-0.57,8.81,0.04,0.03,0.21,-7.19,6.69,-49.25
156818609,2.14,-0.57,8.81,0.05,0.04,0.23,-7.19,6.69,-49.25
156828320,2.14,-0.57,8.81,0.07,-0.01,0.23,-7.19,6.69,-49.25
156838335,2.14,-0.57,8.81,0.05,0.05,0.22,-7.19,6.69,-49.25
156848270,2.14,-0.57,8.81,0.04,0.01,0.21,-7.19,6.69,-49.25
156858605,2.14,-0.57,8.81,0.04,0.01,0.21,-7.19,6.69,-49.25
156868323,2.14,-0.57,8.81,0.05,0.04,0.22,-7.19,6.69,-49.25
156877294,2.14,-0.57,8.81,0.09,-0.01,0.26,-7.19,6.69,-49.25
156888501,2.14,-0.57,8.81,0.09,0.03,0.29,-7.19,6.69,-49.25
156898188,2.14,-0.57,8.81,0.10,-0.01,0.30,-7.19,6.69,-49.25
156908246,2.14,-0.57,8.81,0.13,-0.06,0.35,-7.19,6.69,-49.25
156918578,2.14,-0.57,8.81,0.11,0.00,0.39,-7.19,6.69,-49.25
156928272,2.14,-0.57,8.81,0.10,0.02,0.41,-7.19,6.69,-49.25
156938307,2.14,-0.57,8.81,0.12,-0.02,0.44,-7.19,6.69,-49.25
156947286,2.14,-0.57,8.81,0.12,0.00,0.47,-7.19,6.69,-49.25
156958489,2.14,-0.57,8.81,0.14,-0.04,0.50,-7.19,6.69,-49.25
156968167,2.14,-0.57,8.81,0.15,-0.03,0.53,-7.19,6.69,-49.25
156978250,2.14,-0.57,8.81,0.12,0.03,0.54,-7.19,6.69,-49.25
156988462,2.14,-0.57,8.81,0.10,0.02,0.54,-7.19,6.69,-49.25
156998134,2.14,-0.57,8.81,0.09,-0.00,0.55,-7.19,6.69,-49.25
157008310,2.14,-0.57,8.81,0.08,0.02,0.55,-7.19,6.69,-49.25
157017309,2.14,-0.57,8.81,0.07,-0.00,0.57,-7.19,6.69,-49.25
157028468,2.14,-0.57,8.81,0.04,-0.00,0.58,-7.19,6.69,-49.25
157038167,2.14,-0.57,8.81,0.04,0.00,0.58,-7.19,6.69,-49.25
157048201,2.14,-0.57,8.81,0.06,-0.06,0.58,-7.19,6.69,-49.25
157058443,2.14,-0.57,8.81,0.07,-0.07,0.59,-7.19,6.69,-49.25
157068078,2.14,-0.57,8.81,0.06,-0.04,0.61,-7.19,6.69,-49.25
157078317,2.14,-0.57,8.81,0.04,-0.02,0.59,-7.19,6.69,-49.25
157088310,2.14,-0.57,8.81,0.03,-0.02,0.56,-7.19,6.69,-49.25
157098421,2.14,-0.57,8.81,0.02,-0.01,0.52,-7.19,6.69,-49.25
157108179,2.14,-0.57,8.81,0.02,-0.05,0.49,-7.19,6.69,-49.25
157118023,2.14,-0.57,8.81,0.01,-0.03,0.46,-7.19,6.69,-49.25
157128194,2.14,-0.57,8.81,-0.01,0.00,0.44,-7.19,6.69,-49.25
157138486,2.14,-0.57,8.81,-0.04,0.03,0.43,-7.19,6.69,-49.25
157148214,2.14,-0.57,8.81,-0.06,0.02,0.43,-7.19,6.69,-49.25
157158113,2.14,-0.57,8.81,-0.03,-0.06,0.44,-7.19,6.69,-49.25
157168418,2.14,-0.57,8.81,0.00,-0.07,0.46,-7.19,6.69,-49.25
157178244,2.14,-0.57,8.81,0.02,-0.04,0.48,-7.19,6.69,-49.25
157187912,2.14,-0.57,8.81,0.00,-0.02,0.47,-7.19,6.69,-49.25
157197870,2.14,-0.57,8.81,-0.04,0.00,0.45,-7.19,6.69,-49.25
157208186,2.14,-0.57,8.81,-0.05,-0.04,0.43,-7.19,6.69,-49.25
157218555,2.14,-0.57,8.81,-0.07,-0.07,0.40,-7.19,6.69,-49.25
157228122,2.14,-0.57,8.81,-0.08,-0.04,0.38,-7.19,6.69,-49.25
157238491,2.14,-0.57,8.81,-0.08,-0.01,0.38,-7.19,6.69,-49.25
157248216,2.14,-0.57,8.81,-0.07,0.01,0.36,-7.19,6.69,-49.25
157257969,2.14,-0.57,8.81,-0.09,-0.03,0.33,-7.19,6.69,-49.25
157268418,2.14,-0.57,8.81,-0.13,-0.05,0.28,-7.19,6.69,-49.25
157278110,2.14,-0.57,8.81,-0.15,-0.07,0.23,-7.19,6.69,-49.25
157288196,2.14,-0.57,8.81,-0.17,-0.06,0.18,-7.19,6.69,-49.25
157298093,2.14,-0.57,8.81,-0.22,-0.02,0.12,-7.19,6.69,-49.25
157308469,2.14,-0.57,8.81,-0.26,0.01,0.05,-7.19,6.69,-49.25
157318311,2.14,-0.57,8.81,-0.26,0.00,0.02,-7.19,6.69,-49.25
157327858,2.14,-0.57,8.81,-0.22,-0.01,0.03,-7.19,6.69,-49.25
157338470,2.14,-0.57,8.81,-0.20,0.01,0.04,-7.19,6.69,-49.25
157348113,2.14,-0.57,8.81,-0.21,0.03,0.03,-7.19,6.69,-49.25
157358231,2.14,-0.57,8.81,-0.25,0.05,0.01,-7.19,6.69,-49.25
157368436,2.14,-0.57,8.81,-0.27,0.05,-0.00,-7.19,6.69,-49.25
157378127,2.14,-0.57,8.81,-0.28,0.00,-0.03,-7.19,6.69,-49.25
157388206,2.14,-0.57,8.81,-0.28,-0.01,-0.06,-7.19,6.69,-49.25
157397808,2.14,-0.57,8.81,-0.28,0.01,-0.05,-7.19,6.69,-49.25
157408496,2.14,-0.57,8.81,-0.28,0.02,-0.03,-7.19,6.69,-49.25
157418156,2.14,-0.57,8.81,-0.28,0.05,0.00,-7.19,6.69,-49.25
157428256,2.14,-0.57,8.81,-0.28,0.03,0.03,-7.19,6.69,-49.25
157438181,2.14,-0.57,8.81,-0.27,0.01,0.04,-7.19,6.69,-49.25
157448460,2.14,-0.57,8.81,-0.28,0.02,0.02,-7.19,6.69,-49.25
157458325,2.14,-0.57,8.81,-0.26,0.01,0.01,-7.19,6.69,-49.25
157468355,2.14,-0.57,8.81,-0.27,0.03,-0.03,-7.19,6.69,-49.25
157478444,2.14,-0.57,8.81,-0.30,0.04,-0.09,-7.19,6.69,-49.25
157488160,2.14,-0.57,8.81,-0.30,0.02,-0.17,-7.19,6.69,-49.25
157498034,2.14,-0.57,8.81,-0.29,0.02,-0.25,-7.19,6.69,-49.25
157508142,2.14,-0.57,8.81,-0.29,0.02,-0.31,-7.19,6.69,-49.25
157518508,2.14,-0.57,8.81,-0.28,0.04,-0.36,-7.19,6.69,-49.25
157528256,2.14,-0.57,8.81,-0.30,0.06,-0.40,-7.19,6.69,-49.25
157538106,2.14,-0.57,8.81,-0.32,0.07,-0.43,-7.19,6.69,-49.25
157548457,2.14,-0.57,8.81,-0.31,0.04,-0.44,-7.19,6.69,-49.25
157558206,2.14,-0.57,8.81,-0.26,-0.01,-0.42,-7.19,6.69,-49.25
157567852,2.14,-0.57,8.81,-0.23,-0.00,-0.40,-7.19,6.69,-49.25
157578036,2.14,-0.57,8.81,-0.19,0.01,-0.37,-7.19,6.69,-49.25
157588404,2.14,-0.57,8.81,-0.17,0.03,-0.33,-7.19,6.69,-49.25
157598151,2.14,-0.57,8.81,-0.17,0.04,-0.30,-7.19,6.69,-49.25
157608094,2.14,-0.57,8.81,-0.17,0.01,-0.27,-7.19,6.69,-49.25
157618382,2.14,-0.57,8.81,-0.16,-0.01,-0.22,-7.19,6.69,-49.25
157628160,2.14,-0.57,8.81,-0.14,0.02,-0.15,-7.19,6.69,-49.25
157637666,2.14,-0.57,8.81,-0.12,0.01,-0.07,-7.19,6.69,-49.25
157648037,2.14,-0.57,8.81,-0.08,0.00,0.02,-7.19,6.69,-49.25
157658322,2.14,-0.57,8.81,-0.05,-0.02,0.09,-7.19,6.69,-49.25
157668107,2.14,-0.57,8.81,-0.04,-0.04,0.15,-7.19,6.69,-49.25
157677980,2.14,-0.57,8.81,-0.03,-0.02,0.18,-7.19,6.69,-49.25
157688336,2.14,-0.57,8.81,-0.04,0.00,0.18,-7.19,6.69,-49.25
157698148,2.14,-0.57,8.81,-0.05,0.03,0.17,-7.19,6.69,-49.25
157707499,2.14,-0.57,8.81,-0.05,0.04,0.14,-7.19,6.69,-49.25
157718269,2.14,-0.57,8.81,-0.04,0.02,0.09,-7.19,6.69,-49.25
157727958,2.14,-0.57,8.81,-0.02,-0.03,0.05,-7.19,6.69,-49.25
157738000,2.14,-0.57,8.81,-0.00,-0.00,0.00,-7.19,6.69,-49.25
157747968,2.14,-0.57,8.81,0.01,0.06,-0.04,-7.19,6.69,-49.25
157758225,2.14,-0.57,8.81,0.02,0.07,-0.10,-7.19,6.69,-49.25
157768082,2.14,-0.57,8.81,0.02,0.06,-0.15,-7.19,6.69,-49.25
157777478,2.14,-0.57,8.81,0.03,0.04,-0.20,-7.19,6.69,-49.25
157788189,2.14,-0.57,8.81,0.03,0.04,-0.24,-7.19,6.69,-49.25
157797885,2.14,-0.57,8.81,0.00,0.07,-0.28,-7.19,6.69,-49.25
157808016,2.14,-0.57,8.81,0.01,0.07,-0.32,-7.19,6.69,-49.25
157818233,2.14,-0.57,8.81,0.04,0.03,-0.33,-7.19,6.69,-49.25
157827858,2.14,-0.57,8.81,0.03,0.03,-0.34,-7.19,6.69,-49.25
157837924,2.14,-0.57,8.81,0.07,0.06,-0.31,-7.19,6.69,-49.25
157847490,2.14,-0.57,8.81,0.08,0.10,-0.30,-7.19,6.69,-49.25
157858131,2.14,-0.57,8.81,0.09,0.09,-0.31,-7.19,6.69,-49.25
157867846,2.14,-0.57,8.81,0.10,0.05,-0.28,-7.19,6.69,-49.25
157877953,2.14,-0.57,8.81,0.06,0.06,-0.32,-7.19,6.69,-49.25
157888110,2.14,-0.57,8.81,0.05,0.05,-0.35,-7.19,6.69,-49.25
157897805,2.14,-0.57,8.81,0.06,0.08,-0.34,-7.19,6.69,-49.25
157907872,2.14,-0.57,8.81,0.04,0.08,-0.33,-7.19,6.69,-49.25
157917408,2.14,-0.57,8.81,0.04,0.01,-0.31,-7.19,6.69,-49.25
157928103,2.14,-0.57,8.81,0.03,0.01,-0.25,-7.19,6.69,-49.25
157937770,2.14,-0.57,8.81,0.03,-0.00,-0.23,-7.19,6.69,-49.25
157947854,2.14,-0.57,8.81,-0.01,0.01,-0.20,-7.19,6.69,-49.25
157958088,2.14,-0.57,8.81,-0.02,0.01,-0.15,-7.19,6.69,-49.25
157967746,2.14,-0.57,8.81,-0.05,0.01,-0.13,-7.19,6.69,-49.25
157977864,2.14,-0.57,8.81,-0.07,-0.01,-0.11,-7.19,6.69,-49.25
157987927,2.14,-0.57,8.81,-0.07,-0.02,-0.08,-7.19,6.69,-49.25
157998041,2.14,-0.57,8.81,-0.09,-0.01,-0.07,-7.19,6.69,-49.25
158007832,2.14,-0.57,8.81,-0.10,-0.02,-0.06,-7.19,6.69,-49.25
158017626,2.14,-0.57,8.81,-0.10,-0.01,-0.04,-7.19,6.69,-49.25
158027693,2.14,-0.57,8.81,-0.11,-0.01,-0.03,-7.19,6.69,-49.25
158038008,2.14,-0.57,8.81,-0.09,-0.02,-0.01,-7.19,6.69,-49.25
158046771,2.14,-0.57,8.81,-0.07,-0.01,0.01,-7.19,6.69,-49.25
158057744,2.14,-0.57,8.81,-0.07,-0.02,0.01,-7.19,6.69,-49.25
158068010,2.14,-0.57,8.81,-0.06,-0.03,0.01,-7.19,6.69,-49.25
158077740,2.14,-0.57,8.81,-0.05,-0.02,0.00,-7.19,6.69,-49.25
158087433,2.14,-0.57,8.81,-0.05,-0.01,-0.01,-7.19,6.69,-49.25
158097614,2.14,-0.57,8.81,-0.04,-0.03,-0.03,-7.19,6.69,-49.25
158107932,2.14,-0.57,8.81,-0.03,-0.02,-0.04,-7.19,6.69,-49.25
158117712,2.14,-0.57,8.81,-0.02,-0.01,-0.05,-7.19,6.69,-49.25
158127652,2.14,-0.57,8.81,-0.02,-0.00,-0.05,-7.19,6.69,-49.25
158137901,2.14,-0.57,8.81,-0.00,-0.01,-0.05,-7.19,6.69,-49.25
158147696,2.14,-0.57,8.81,0.01,-0.02,-0.05,-7.19,6.69,-49.25
158157338,2.14,-0.57,8.81,0.00,-0.01,-0.06,-7.19,6.69,-49.25
158167863,2.14,-0.57,8.81,0.01,-0.00,-0.07,-7.19,6.69,-49.25
158177571,2.14,-0.57,8.81,0.01,0.01,-0.07,-7.19,6.69,-49.25
158187637,2.14,-0.57,8.81,-0.01,0.00,-0.10,-7.19,6.69,-49.25
158197542,2.14,-0.57,8.81,-0.02,-0.01,-0.11,-7.19,6.69,-49.25
158207915,2.14,-0.57,8.81,-0.03,-0.01,-0.11,-7.19,6.69,-49.25
158217643,2.14,-0.57,8.81,-0.02,-0.01,-0.10,-7.19,6.69,-49.25
158228031,2.14,-0.57,8.81,-0.03,-0.00,-0.08,-7.19,6.69,-49.25
158238131,2.14,-0.57,8.81,-0.04,-0.01,-0.07,-7.19,6.69,-49.25
158246832,2.14,-0.57,8.81,-0.04,-0.01,-0.07,-9.00,12.38,-50.94
158257664,2.14,-0.57,8.81,-0.06,-0.02,-0.06,-9.00,12.38,-50.94
158267479,2.14,-0.57,8.81,-0.07,-0.02,-0.06,-9.00,12.38,-50.94
158277811,2.14,-0.57,8.81,-0.08,-0.02,-0.06,-9.00,12.38,-50.94
158287582,2.14,-0.57,8.81,-0.09,-0.02,-0.06,-9.00,12.38,-50.94
158297983,2.14,-0.57,8.81,-0.11,-0.02,-0.07,-9.00,12.38,-50.94
158308125,2.14,-0.57,8.81,-0.12,-0.03,-0.09,-9.00,12.38,-50.94
158317438,2.14,-0.57,8.81,-0.12,-0.03,-0.09,-8.75,13.75,-51.12
158326773,2.14,-0.57,8.81,-0.12,-0.03,-0.09,-9.19,13.31,-49.88
158337440,2.14,-0.57,8.81,-0.13,-0.03,-0.09,-9.19,13.31,-49.88
158348210,2.14,-0.57,8.81,-0.14,-0.02,-0.09,-9.19,13.31,-49.88
158356790,2.14,-0.57,8.81,-0.13,-0.02,-0.08,-9.19,13.31,-49.88
158368311,2.14,-0.57,8.81,-0.13,-0.02,-0.07,-9.19,13.31,-49.88
158378039,2.14,-0.57,8.81,-0.12,-0.03,-0.07,-9.19,13.31,-49.88
158386754,2.14,-0.57,8.81,-0.12,-0.03,-0.07,-9.31,12.94,-50.69
158397439,2.14,-0.57,8.81,-0.12,-0.02,-0.06,-9.31,12.94,-50.69
158407449,2.14,-0.57,8.81,-0.10,-0.02,-0.05,-9.31,12.94,-50.69
158417721,2.14,-0.57,8.81,-0.10,-0.01,-0.05,-9.31,12.94,-50.69
158427521,2.14,-0.57,8.81,-0.09,-0.02,-0.04,-9.31,12.94,-50.69
158437896,2.14,-0.57,8.81,-0.09,-0.02,-0.04,-9.31,12.94,-50.69
158448015,2.14,-0.57,8.81,-0.08,-0.01,-0.04,-9.31,12.94,-50.69
158456867,2.14,-0.57,8.81,-0.08,-0.01,-0.04,-8.94,14.44,-50.12
158467453,2.14,-0.57,8.81,-0.07,-0.00,-0.03,-8.94,14.44,-50.12
158477349,2.14,-0.57,8.81,-0.07,-0.01,-0.03,-8.94,14.44,-50.12
158487656,2.14,-0.57,8.81,-0.06,-0.01,-0.04,-8.94,14.44,-50.12
158497387,2.14,-0.57,8.81,-0.06,-0.01,-0.03,-8.94,14.44,-50.12
158507516,2.14,-0.57,8.81,-0.06,-0.00,-0.04,-8.94,14.44,-50.12
158517607,2.14,-0.57,8.81,-0.05,-0.00,-0.03,-8.94,14.44,-50.12
158527427,2.14,-0.57,8.81,-0.05,-0.00,-0.02,-8.94,14.44,-50.12
158537290,2.14,-0.57,8.81,-0.05,-0.00,-0.01,-8.94,14.44,-50.12
158547297,2.14,-0.57,8.81,-0.04,-0.01,0.01,-8.94,14.44,-50.12
158557619,2.14,-0.57,8.81,-0.04,-0.01,0.02,-8.94,14.44,-50.12
158567364,2.14,-0.57,8.81,-0.04,-0.01,0.03,-8.94,14.44,-50.12
158577378,2.14,-0.57,8.81,-0.04,-0.01,0.04,-8.94,14.44,-50.12
158587609,2.14,-0.57,8.81,-0.03,-0.01,0.05,-8.94,14.44,-50.12
158597309,2.14,-0.57,8.81,-0.03,-0.01,0.05,-8.94,14.44,-50.12
158608058,2.14,-0.57,8.81,-0.03,-0.01,0.05,-8.94,14.44,-50.12
158617945,2.14,-0.57,8.81,-0.04,-0.01,0.04,-8.94,14.44,-50.12
158627308,2.14,-0.57,8.81,-0.04,-0.01,0.04,-8.81,13.31,-49.81
158636768,2.14,-0.57,8.81,-0.04,-0.01,0.04,-10.19,13.81,-51.06
158647275,2.14,-0.57,8.81,-0.04,-0.01,0.03,-10.19,13.81,-51.06
158657682,2.14,-0.57,8.81,-0.04,-0.01,0.02,-10.19,13.81,-51.06
158667343,2.14,-0.57,8.81,-0.03,-0.00,0.01,-10.19,13.81,-51.06
158677804,2.14,-0.57,8.81,-0.04,-0.00,-0.00,-10.19,13.81,-51.06
158687885,2.14,-0.57,8.81,-0.04,-0.00,-0.02,-10.19,13.81,-51.06
158697282,2.14,-0.57,8.81,-0.04,-0.00,-0.02,-9.38,14.25,-50.56
158706737,2.14,-0.57,8.81,-0.04,-0.00,-0.02,-10.06,14.50,-50.38
158717266,2.14,-0.57,8.81,-0.04,-0.00,-0.05,-10.06,14.50,-50.38
158728421,2.14,-0.57,8.81,-0.05,0.00,-0.05,-10.06,14.50,-50.38
158737568,2.14,-0.57,8.81,-0.04,-0.00,-0.05,-10.06,14.50,-50.38
158747096,2.14,-0.57,8.81,-0.04,-0.00,-0.05,-9.50,13.56,-49.62
158758641,2.14,-0.57,8.81,-0.04,-0.01,-0.04,-9.50,13.56,-49.62
158767998,2.14,-0.57,8.81,-0.04,-0.01,-0.04,-9.62,13.94,-50.12
158778087,2.14,-0.57,8.81,-0.04,-0.01,-0.04,-9.12,13.56,-49.50
158787970,2.14,-0.57,8.81,-0.04,-0.01,-0.04,-8.88,13.88,-49.94
158798296,2.14,-0.57,8.81,-0.04,-0.01,-0.04,-10.12,14.31,-50.75
158808146,2.14,-0.57,8.81,-0.04,-0.01,-0.04,-8.25,13.44,-48.81
158817588,2.14,-0.57,8.81,-0.04,-0.01,-0.04,-9.69,14.19,-50.19
158828262,2.14,-0.57,8.81,-0.04,-0.01,-0.04,-10.31,14.00,-50.31
158837947,2.14,-0.57,8.81,-0.04,-0.01,-0.04,-8.94,14.00,-48.75
158848003,2.14,-0.57,8.81,-0.04,-0.01,-0.04,-9.12,14.31,-49.25
158858327,2.14,-0.57,8.81,-0.04,-0.01,-0.04,-9.38,13.50,-49.12
158867918,2.14,-0.57,8.81,-0.04,-0.01,-0.04,-8.88,13.56,-49.94
158878030,2.14,-0.57,8.81,-0.04,-0.01,-0.04,-8.62,14.25,-48.69
158887546,2.14,-0.57,8.81,-0.04,-0.01,-0.04,-8.62,14.25,-48.69
158898183,2.14,-0.57,8.81,-0.04,-0.01,-0.04,-9.62,14.62,-51.50
158907891,2.14,-0.57,8.81,-0.04,-0.01,-0.04,-9.50,13.56,-49.62
158917481,2.14,-0.57,8.81,-0.04,-0.01,-0.04,-9.75,13.25,-49.19
158928562,2.14,-0.57,8.81,-0.02,0.01,-0.12,-9.75,13.25,-49.19
158937858,2.14,-0.57,8.81,-0.02,0.01,-0.12,-10.00,13.94,-50.25
158947973,2.14,-0.57,8.81,-0.02,0.01,-0.12,-9.38,14.00,-48.81
158957449,2.14,-0.57,8.81,-0.02,0.01,-0.12,-9.38,14.00,-48.81
158968121,2.14,-0.57,8.81,-0.02,0.01,-0.12,-9.19,13.31,-49.88
158977826,2.14,-0.57,8.81,-0.02,0.01,-0.12,-10.50,13.56,-51.19
158987370,2.14,-0.57,8.81,-0.02,0.01,-0.12,-8.94,14.75,-50.19
158998452,2.14,-0.57,8.81,-0.01,0.00,-0.04,-8.94,14.75,-50.19
159007858,2.14,-0.57,8.81,-0.01,0.00,-0.04,-10.06,13.44,-50.56
159017916,2.14,-0.57,8.81,-0.01,0.00,-0.04,-9.50,14.31,-51.06
159027397,2.14,-0.57,8.81,-0.01,0.00,-0.04,-9.50,14.31,-51.06
159038075,2.14,-0.57,8.81,-0.01,0.00,-0.04,-9.94,14.12,-51.56
159047754,2.14,-0.57,8.81,-0.01,0.00,-0.04,-8.62,13.75,-49.00
159057296,2.14,-0.57,8.81,-0.01,0.00,-0.04,-8.94,12.94,-48.94
159068468,2.14,-0.57,8.81,0.01,-0.00,0.05,-8.94,12.94,-48.94
159077770,2.14,-0.57,8.81,0.01,-0.00,0.05,-9.50,13.56,-49.69
159087869,2.14,-0.57,8.81,0.01,-0.00,0.05,-9.56,13.06,-50.00
159097818,2.14,-0.57,8.81,0.01,-0.00,0.05,-9.12,14.31,-49.25
159108029,2.14,-0.57,8.81,0.01,-0.00,0.05,-11.00,14.44,-51.50
159117756,2.14,-0.57,8.81,0.01,-0.00,0.05,-9.62,13.62,-50.12
159127067,2.14,-0.57,8.81,0.01,-0.00,0.05,-10.06,14.25,-50.31
159138320,2.14,-0.57,8.81,0.00,-0.00,0.04,-10.06,14.25,-50.31
159147651,2.14,-0.57,8.81,0.00,-0.00,0.04,-9.25,13.88,-50.12
159157252,2.14,-0.57,8.81,0.00,-0.00,0.04,-8.44,13.56,-49.81
159167662,2.14,-0.57,8.81,0.01,-0.00,0.03,-8.44,13.56,-49.81
159178275,2.14,-0.57,8.81,0.01,0.00,0.02,-8.44,13.56,-49.81
159187701,2.14,-0.57,8.81,0.01,0.00,0.02,-9.62,14.44,-49.88
159196853,2.14,-0.57,8.81,0.01,0.00,0.02,-10.06,14.50,-50.38
159007858,2.14,-0.57,8.81,-0.01,0.00,-0.04,-10.06,13.44,-50.56
159017916,2.14,-0.57,8.81,-0.01,0.00,-0.04,-9.50,14.31,-51.06
159027397,2.14,-0.57,8.81,-0.01,0.00,-0.04,-9.50,14.31,-51.06
159038075,2.14,-0.57,8.81,-0.01,0.00,-0.04,-9.94,14.12,-51.56
159047754,2.14,-0.57,8.81,-0.01,0.00,-0.04,-8.62,13.75,-49.00
159057296,2.14,-0.57,8.81,-0.01,0.00,-0.04,-8.94,12.94,-48.94
159068468,2.14,-0.57,8.81,0.01,-0.00,0.05,-8.94,12.94,-48.94
159077770,2.14,-0.57,8.81,0.01,-0.00,0.05,-9.50,13.56,-49.69
159087869,2.14,-0.57,8.81,0.01,-0.00,0.05,-9.56,13.06,-50.00
159097818,2.14,-0.57,8.81,0.01,-0.00,0.05,-9.12,14.31,-49.25
159108029,2.14,-0.57,8.81,0.01,-0.00,0.05,-11.00,14.44,-51.50
159117756,2.14,-0.57,8.81,0.01,-0.00,0.05,-9.62,13.62,-50.12
159127067,2.14,-0.57,8.81,0.01,-0.00,0.05,-10.06,14.25,-50.31
159138320,2.14,-0.57,8.81,0.00,-0.00,0.04,-10.06,14.25,-50.31
159147651,2.14,-0.57,8.81,0.00,-0.00,0.04,-9.25,13.88,-50.12
159157252,2.14,-0.57,8.81,0.00,-0.00,0.04,-8.44,13.56,-49.81
159167662,2.14,-0.57,8.81,0.01,-0.00,0.03,-8.44,13.56,-49.81
159178275,2.14,-0.57,8.81,0.01,0.00,0.02,-8.44,13.56,-49.81
159187701,2.14,-0.57,8.81,0.01,0.00,0.02,-9.62,14.44,-49.88
