timestamp,accX,accY,accZ,gyroX,gyroY,gyroZ,magX,magY,magZ
Right Turn
223892476,2.38,3.29,8.58,0.00,0.00,0.00,-21.50,-10.88,-39.19
223911304,2.38,3.33,8.58,0.00,0.00,0.00,-21.50,-10.88,-39.19
223913378,2.38,3.33,8.58,-0.08,-0.01,0.08,-21.50,-10.88,-39.19
223922024,2.38,3.33,8.58,-0.01,-0.02,0.14,-21.50,-10.88,-39.19
223932368,2.38,3.33,8.58,-0.01,-0.02,0.14,-10.38,-3.38,-48.38
223942862,2.38,3.33,8.58,-0.03,-0.05,0.15,-10.38,-3.38,-48.38
223953614,2.38,3.33,8.58,-0.08,0.01,0.15,-10.38,-3.38,-48.38
223963287,2.38,3.33,8.58,-0.04,-0.03,0.18,-10.38,-3.38,-48.38
223973334,2.38,3.33,8.58,-0.02,-0.01,0.20,-10.38,-3.38,-48.38
223983608,2.38,3.33,8.58,-0.02,-0.02,0.22,-10.38,-3.38,-48.38
223993227,2.38,3.33,8.58,-0.00,-0.04,0.24,-10.38,-3.38,-48.38
224003321,2.38,3.33,8.58,0.00,-0.03,0.25,-10.38,-3.38,-48.38
224012791,2.38,3.33,8.58,0.03,-0.18,0.23,-10.38,-3.38,-48.38
224023519,2.38,3.33,8.58,-0.01,-0.11,0.19,-10.38,-3.38,-48.38
224033206,2.38,3.33,8.58,-0.06,0.04,0.17,-10.38,-3.38,-48.38
224043221,2.38,3.33,8.58,-0.06,0.09,0.18,-10.38,-3.38,-48.38
224053502,2.38,3.33,8.58,-0.04,0.03,0.18,-10.38,-3.38,-48.38
224063159,2.38,3.33,8.58,-0.01,-0.10,0.16,-10.38,-3.38,-48.38
224073284,2.38,3.33,8.58,-0.02,-0.04,0.16,-10.38,-3.38,-48.38
224082797,2.38,3.33,8.58,-0.07,0.09,0.19,-10.38,-3.38,-48.38
224093478,2.38,3.33,8.58,-0.05,0.04,0.19,-10.38,-3.38,-48.38
224103155,2.38,3.33,8.58,-0.04,-0.05,0.19,-10.38,-3.38,-48.38
224113135,2.38,3.33,8.58,-0.00,-0.17,0.20,-10.38,-3.38,-48.38
224123115,2.38,3.33,8.58,0.00,-0.07,0.21,-10.38,-3.38,-48.38
224133440,2.38,3.33,8.58,0.01,-0.06,0.24,-10.38,-3.38,-48.38
224143269,2.38,3.33,8.58,0.01,-0.11,0.22,-10.38,-3.38,-48.38
224153287,2.38,3.33,8.58,-0.06,0.03,0.19,-10.38,-3.38,-48.38
224163392,2.38,3.33,8.58,-0.08,0.16,0.19,-10.38,-3.38,-48.38
224173179,2.38,3.33,8.58,-0.05,0.06,0.21,-10.38,-3.38,-48.38
224182979,2.38,3.33,8.58,-0.10,0.15,0.19,-10.38,-3.38,-48.38
224193062,2.38,3.33,8.58,-0.17,0.25,0.19,-10.38,-3.38,-48.38
224203434,2.38,3.33,8.58,-0.03,-0.04,0.21,-10.38,-3.38,-48.38
224213149,2.38,3.33,8.58,-0.01,0.04,0.21,-10.38,-3.38,-48.38
224223049,2.38,3.33,8.58,-0.05,0.23,0.22,-10.38,-3.38,-48.38
224233352,2.38,3.33,8.58,-0.02,0.12,0.19,-10.38,-3.38,-48.38
224243137,2.38,3.33,8.58,-0.08,0.10,0.18,-10.38,-3.38,-48.38
224252755,2.38,3.33,8.58,-0.07,-0.09,0.20,-10.38,-3.38,-48.38
224262959,2.38,3.33,8.58,-0.07,-0.11,0.13,-10.38,-3.38,-48.38
224273388,2.38,3.33,8.58,-0.12,0.10,0.14,-10.38,-3.38,-48.38
224283086,2.38,3.33,8.58,-0.08,0.03,0.14,-10.38,-3.38,-48.38
224293026,2.38,3.33,8.58,-0.13,0.11,0.08,-10.38,-3.38,-48.38
224303341,2.38,3.33,8.58,-0.22,0.04,0.07,-10.38,-3.38,-48.38
224313067,2.38,3.33,8.58,-0.17,-0.22,0.03,-10.38,-3.38,-48.38
224323521,2.38,3.33,8.58,-0.29,0.05,0.01,-10.38,-3.38,-48.38
224333592,2.38,3.33,8.58,-0.25,-0.00,0.03,-10.38,-3.38,-48.38
224342931,2.38,3.33,8.58,-0.25,-0.00,0.03,-10.94,-1.44,-50.56
224352332,2.38,3.33,8.58,-0.25,-0.00,0.03,-10.94,-1.69,-50.50
224362907,2.38,3.33,8.58,-0.16,-0.21,0.02,-10.94,-1.69,-50.50
224373313,2.38,3.33,8.58,-0.09,-0.35,-0.05,-10.94,-1.69,-50.50
224383089,2.38,3.33,8.58,-0.23,-0.05,-0.06,-10.94,-1.69,-50.50
224393431,2.38,3.33,8.58,-0.19,-0.12,-0.12,-10.94,-1.69,-50.50
224403521,2.38,3.33,8.58,-0.15,-0.11,-0.15,-10.94,-1.69,-50.50
224412938,2.38,3.33,8.58,-0.15,-0.11,-0.15,-11.69,-0.88,-52.19
224422295,2.38,3.33,8.58,-0.15,-0.11,-0.15,-11.81,-1.31,-51.25
224432867,2.38,3.33,8.58,-0.23,-0.02,-0.29,-11.81,-1.31,-51.25
224443185,2.38,3.33,8.58,-0.18,-0.05,-0.29,-11.81,-1.31,-51.25
224452987,2.38,3.33,8.58,-0.17,-0.04,-0.28,-11.81,-1.31,-51.25
224463390,2.38,3.33,8.58,-0.17,-0.10,-0.30,-11.81,-1.31,-51.25
224473534,2.38,3.33,8.58,-0.15,-0.19,-0.27,-11.81,-1.31,-51.25
224482885,2.38,3.33,8.58,-0.15,-0.19,-0.27,-12.69,-0.44,-53.31
224492310,2.38,3.33,8.58,-0.15,-0.19,-0.27,-12.25,-1.00,-51.44
224502854,2.38,3.33,8.58,-0.15,-0.10,-0.22,-12.25,-1.00,-51.44
224513128,-0.38,-0.69,10.84,-0.15,-0.10,-0.22,-12.25,-1.00,-51.44
224522900,-0.38,-0.69,10.84,-0.06,-0.15,-0.21,-12.25,-1.00,-51.44
224533307,-0.38,-0.69,10.84,-0.05,-0.14,-0.27,-12.25,-1.00,-51.44
224543568,-0.38,-0.69,10.84,-0.07,-0.10,-0.33,-12.25,-1.00,-51.44
224552800,-0.38,-0.69,10.84,-0.07,-0.10,-0.33,-12.88,-0.25,-52.62
224562208,-0.38,-0.69,10.84,-0.07,-0.10,-0.33,-13.50,-0.50,-52.25
224572845,-0.38,-0.69,10.84,-0.07,-0.01,-0.35,-13.50,-0.50,-52.25
224583116,-3.71,-2.30,8.58,-0.07,-0.01,-0.35,-13.50,-0.50,-52.25
224592856,-3.71,-2.30,8.58,-0.08,0.06,-0.21,-13.50,-0.50,-52.25
224602915,-3.71,-2.30,8.58,-0.06,-0.14,-0.21,-13.50,-0.50,-52.25
224613155,-3.71,-2.30,8.58,-0.10,-0.07,-0.18,-13.50,-0.50,-52.25
224622838,-3.71,-2.30,8.58,-0.03,-0.10,-0.13,-13.50,-0.50,-52.25
224632754,-3.71,-2.30,8.58,0.00,0.07,-0.06,-13.50,-0.50,-52.25
224642752,-3.71,-2.30,8.58,0.02,0.10,0.03,-13.50,-0.50,-52.25
224653098,-3.71,-2.30,8.58,0.03,-0.01,0.10,-13.50,-0.50,-52.25
224662802,-3.71,-2.30,8.58,0.02,0.01,0.15,-13.50,-0.50,-52.25
224672835,-3.71,-2.30,8.58,0.01,0.04,0.24,-13.50,-0.50,-52.25
224683124,-3.71,-2.30,8.58,0.02,0.04,0.32,-13.50,-0.50,-52.25
224692883,-3.71,-2.30,8.58,0.05,-0.04,0.36,-13.50,-0.50,-52.25
224703405,-3.71,-2.30,8.58,0.09,-0.14,0.45,-13.50,-0.50,-52.25
224713371,-3.71,-2.30,8.58,0.07,0.04,0.58,-13.50,-0.50,-52.25
224723557,-3.71,-2.30,8.58,0.07,0.04,0.58,-13.12,0.19,-53.62
224732736,-3.71,-2.30,8.58,0.07,0.04,0.58,-12.50,-0.19,-50.81
224742291,-3.71,-2.30,8.58,0.07,0.04,0.58,-13.31,0.12,-51.06
224753121,-3.71,-2.30,8.58,0.16,0.01,0.86,-13.31,0.12,-51.06
224762746,-3.71,-2.30,8.58,0.18,-0.03,0.89,-13.31,0.12,-51.06
224773164,-3.71,-2.30,8.58,0.14,0.13,0.87,-13.31,0.12,-51.06
224784190,-3.71,-2.30,8.58,0.19,-0.03,0.78,-13.31,0.12,-51.06
224793846,-3.71,-2.30,8.58,0.19,-0.03,0.78,-13.75,0.69,-51.31
224802222,-0.80,-1.65,8.85,0.19,-0.03,0.78,-13.75,0.69,-51.31
224813016,-0.80,-1.65,8.85,0.19,-0.03,0.78,-12.62,0.12,-51.31
224824104,-0.80,-1.65,8.85,0.03,-0.03,0.64,-12.62,0.12,-51.31
224833560,-0.80,-1.65,8.85,0.03,-0.03,0.64,-12.56,1.12,-50.69
224843036,-0.80,-1.65,8.85,0.03,-0.03,0.64,-12.12,1.25,-51.88
224853796,-0.80,-1.65,8.85,0.03,-0.03,0.64,-12.38,0.19,-51.75
224863453,-0.80,-1.65,8.85,0.03,-0.03,0.64,-13.19,0.75,-52.06
224873520,-0.80,-1.65,8.85,0.03,-0.03,0.64,-12.81,1.50,-51.62
224883487,-0.80,-1.65,8.85,0.03,-0.03,0.64,-12.94,0.38,-51.06
224893845,7.20,1.68,13.49,0.03,-0.03,0.64,-12.94,0.38,-51.06
224903558,7.20,1.68,13.49,0.03,-0.03,0.64,-13.19,1.06,-50.44
224913058,7.20,1.68,13.49,0.03,-0.03,0.64,-13.38,0.94,-51.25
224923682,7.20,1.68,13.49,0.03,-0.03,0.64,-14.12,2.25,-52.56
224933391,7.20,1.68,13.49,0.03,-0.03,0.64,-14.12,1.50,-51.12
224943431,7.20,1.68,13.49,0.03,-0.03,0.64,-12.38,0.25,-50.00
224953802,7.20,1.68,13.49,0.03,-0.03,0.64,-13.38,0.94,-51.25
224963345,7.20,1.68,13.49,0.03,-0.03,0.64,-13.56,1.88,-51.94
224973440,7.20,1.68,13.49,0.03,-0.03,0.64,-13.75,2.19,-52.44
224982959,7.20,1.68,13.49,0.03,-0.03,0.64,-14.12,2.50,-52.62
224993668,7.20,1.68,13.49,0.03,-0.03,0.64,-14.81,1.75,-52.62
225003373,7.20,1.68,13.49,0.03,-0.03,0.64,-14.56,2.06,-53.12
225013375,7.20,1.68,13.49,0.03,-0.03,0.64,-14.44,3.75,-53.75
225023657,7.20,1.68,13.49,0.03,-0.03,0.64,-13.88,2.56,-52.94
225033294,7.20,1.68,13.49,0.03,-0.03,0.64,-14.19,3.12,-52.81
225043388,7.20,1.68,13.49,0.03,-0.03,0.64,-14.00,2.94,-51.81
225052728,7.20,1.68,13.49,0.03,-0.03,0.64,-13.88,2.88,-51.38
225063292,7.20,1.68,13.49,0.03,-0.03,0.64,-13.81,3.31,-52.69
225073587,7.20,1.68,13.49,-0.37,-0.09,-0.55,-13.81,3.31,-52.69
225083293,7.20,1.68,13.49,-0.37,-0.09,-0.55,-15.12,3.06,-52.12
225093247,7.20,1.68,13.49,-0.37,-0.09,-0.55,-13.88,3.62,-52.75
225103224,7.20,1.68,13.49,-0.37,-0.09,-0.55,-15.25,2.81,-52.50
225113358,7.20,1.68,13.49,-0.37,-0.09,-0.55,-14.25,3.50,-49.50
225123347,7.20,1.68,13.49,-0.37,-0.09,-0.55,-14.25,3.50,-49.50
225133558,7.20,1.68,13.49,-0.37,-0.09,-0.55,-15.12,4.88,-53.31
225143212,7.20,1.68,13.49,-0.37,-0.09,-0.55,-14.75,3.81,-51.75
225153146,7.20,1.68,13.49,-0.37,-0.09,-0.55,-14.88,3.44,-50.88
225163502,7.20,1.68,13.49,-0.37,-0.09,-0.55,-13.19,3.69,-51.38
225173153,7.20,1.68,13.49,-0.37,-0.09,-0.55,-16.44,4.25,-54.44
225183312,7.20,1.68,13.49,-0.37,-0.09,-0.55,-15.38,4.56,-52.88
225193162,7.20,1.68,13.49,-0.37,-0.09,-0.55,-15.50,4.31,-53.31
225203497,7.20,1.68,13.49,-0.37,-0.09,-0.55,-15.38,5.00,-52.56
225213251,7.20,1.68,13.49,-0.37,-0.09,-0.55,-16.31,5.19,-53.69
225222867,7.20,1.68,13.49,-0.37,-0.09,-0.55,-15.19,4.38,-53.62
225233442,7.20,1.68,13.49,-0.37,-0.09,-0.55,-14.81,4.38,-51.88
225243094,7.20,1.68,13.49,-0.37,-0.09,-0.55,-15.06,5.00,-52.94
225253215,7.20,1.68,13.49,-0.37,-0.09,-0.55,-16.06,4.50,-52.62
225263098,7.20,1.68,13.49,-0.37,-0.09,-0.55,-15.75,5.31,-52.75
225273407,7.20,1.68,13.49,-0.37,-0.09,-0.55,-15.44,4.81,-52.94
225283201,7.20,1.68,13.49,-0.37,-0.09,-0.55,-16.44,5.06,-52.88
225292863,7.20,1.68,13.49,-0.37,-0.09,-0.55,-14.50,4.88,-51.88
225303397,7.20,1.68,13.49,-0.37,-0.09,-0.55,-15.81,5.88,-52.88
225313058,7.20,1.68,13.49,-0.37,-0.09,-0.55,-16.25,4.38,-53.56
225323126,7.20,1.68,13.49,-0.37,-0.09,-0.55,-15.88,6.44,-53.00
225333046,7.20,1.68,13.49,-0.37,-0.09,-0.55,-15.31,5.50,-52.25
225343352,7.20,1.68,13.49,-0.37,-0.09,-0.55,-14.94,5.44,-52.12
225353119,7.20,1.68,13.49,-0.37,-0.09,-0.55,-15.12,5.38,-51.31
225362725,7.20,1.68,13.49,-0.37,-0.09,-0.55,-16.12,5.69,-51.25
225373246,7.20,1.68,13.49,-0.37,-0.09,-0.55,-15.88,5.62,-53.25
225383056,7.20,1.68,13.49,-0.37,-0.09,-0.55,-16.56,6.19,-53.12
225393085,7.20,1.68,13.49,-0.37,-0.09,-0.55,-14.50,5.62,-51.62
225403343,7.20,1.68,13.49,-0.37,-0.09,-0.55,-15.81,6.69,-52.62
225412710,7.20,1.68,13.49,-0.37,-0.09,-0.55,-15.88,6.44,-53.00
225423047,7.20,1.68,13.49,-0.37,-0.09,-0.55,-15.75,7.12,-53.94
225432701,7.20,1.68,13.49,-0.37,-0.09,-0.55,-15.38,6.19,-49.00
225443246,7.20,1.68,13.49,-0.37,-0.09,-0.55,-15.56,6.19,-53.25
225452929,7.20,1.68,13.49,-0.37,-0.09,-0.55,-15.75,6.06,-52.50
225462997,7.20,1.68,13.49,-0.37,-0.09,-0.55,-15.12,6.69,-52.88
225473307,7.20,1.68,13.49,-0.37,-0.09,-0.55,-16.00,6.81,-53.50
225482947,7.20,1.68,13.49,-0.37,-0.09,-0.55,-15.88,6.94,-52.69
225493048,7.20,1.68,13.49,-0.37,-0.09,-0.55,-15.62,7.19,-54.81
225502814,7.20,1.68,13.49,-0.37,-0.09,-0.55,-15.19,6.19,-53.19
225513161,7.20,1.68,13.49,-0.37,-0.09,-0.55,-15.88,6.44,-53.00
225522845,7.20,1.68,13.49,-0.37,-0.09,-0.55,-15.00,6.31,-52.31
225532918,7.20,1.68,13.49,-0.37,-0.09,-0.55,-15.88,6.12,-52.94
225543240,7.20,1.68,13.49,-0.37,-0.09,-0.55,-15.69,6.56,-53.81
225552877,7.20,1.68,13.49,-0.37,-0.09,-0.55,-16.38,7.00,-54.94
225562951,7.20,1.68,13.49,-0.37,-0.09,-0.55,-16.88,7.19,-54.19
225572985,7.20,1.68,13.49,-0.37,-0.09,-0.55,-16.88,7.19,-54.19
225583182,7.20,1.68,13.49,-0.37,-0.09,-0.55,-16.00,6.50,-53.44
225592841,7.20,1.68,13.49,-0.37,-0.09,-0.55,-15.88,7.19,-54.38
225602784,7.20,1.68,13.49,-0.37,-0.09,-0.55,-16.25,6.94,-54.44
225611919,7.20,1.68,13.49,-0.37,-0.09,-0.55,-15.81,6.31,-54.25
225623144,7.20,1.68,13.49,-0.14,0.14,-0.67,-15.81,6.31,-54.25
225633185,7.20,1.68,13.49,-0.02,0.16,-0.60,-15.81,6.31,-54.25
225642761,7.20,1.68,13.49,-0.02,0.16,-0.60,-15.88,6.12,-52.94
225653055,7.20,1.68,13.49,-0.02,0.16,-0.60,-16.00,7.25,-54.94
225662815,7.20,1.68,13.49,-0.02,0.16,-0.60,-15.31,6.25,-53.62
225672794,7.20,1.68,13.49,-0.02,0.16,-0.60,-15.75,5.75,-54.12
225683047,7.20,1.68,13.49,-0.02,0.16,-0.60,-15.06,6.06,-54.38
225692867,7.20,1.68,13.49,-0.02,0.16,-0.60,-16.44,7.06,-55.44
225702865,7.20,1.68,13.49,-0.02,0.16,-0.60,-15.88,6.88,-54.38
225712743,7.20,1.68,13.49,-0.02,0.16,-0.60,-15.06,5.50,-52.56
225723135,7.20,1.68,13.49,-0.02,0.16,-0.60,-15.62,6.44,-55.06
225732775,7.20,1.68,13.49,-0.02,0.16,-0.60,-15.75,5.81,-52.38
225742729,7.20,1.68,13.49,-0.02,0.16,-0.60,-15.50,6.38,-54.62
225753127,7.20,1.68,13.49,-0.02,0.16,-0.60,-15.75,6.81,-53.88
225762757,7.20,1.68,13.49,-0.02,0.16,-0.60,-15.81,6.31,-54.19
225772783,7.20,1.68,13.49,-0.02,0.16,-0.60,-15.00,6.75,-53.62
225782719,7.20,1.68,13.49,-0.02,0.16,-0.60,-15.12,6.38,-52.81
225793069,7.20,1.68,13.49,-0.02,0.16,-0.60,-14.69,6.50,-54.00
225802775,7.20,1.68,13.49,-0.02,0.16,-0.60,-14.69,5.75,-52.56
225812806,7.20,1.68,13.49,-0.02,0.16,-0.60,-13.94,5.94,-54.06
225823128,7.20,1.68,13.49,-0.02,0.16,-0.60,-14.31,6.00,-54.19
225832716,7.20,1.68,13.49,-0.02,0.16,-0.60,-15.44,5.50,-54.44
225842721,7.20,1.68,13.49,-0.02,0.16,-0.60,-14.44,5.31,-53.25
225853027,7.20,1.68,13.49,-0.02,0.16,-0.60,-14.44,5.06,-53.25
225862738,7.20,1.68,13.49,-0.02,0.16,-0.60,-14.75,5.25,-54.62
225872805,7.20,1.68,13.49,-0.02,0.16,-0.60,-15.06,5.75,-54.31
225882720,7.20,1.68,13.49,-0.02,0.16,-0.60,-14.88,5.88,-55.12
225893157,7.20,1.68,13.49,-0.02,0.16,-0.60,-14.38,5.50,-54.50
225902792,7.20,1.68,13.49,-0.02,0.16,-0.60,-16.25,5.88,-54.69
225912767,7.20,1.68,13.49,-0.02,0.16,-0.60,-14.69,5.75,-54.19
225921956,7.20,1.68,13.49,-0.02,0.16,-0.60,-14.25,6.69,-53.50
225933354,7.20,1.68,13.49,-0.26,0.16,-1.17,-14.25,6.69,-53.50
225942810,7.20,1.68,13.49,-0.26,0.16,-1.17,-13.88,6.25,-52.00
225952723,7.20,1.68,13.49,-0.26,0.16,-1.17,-13.56,5.44,-54.31
225963375,7.20,1.68,13.49,-0.26,0.16,-1.17,-14.44,4.56,-53.50
225972842,-0.88,-2.34,7.28,-0.26,0.16,-1.17,-14.44,4.56,-53.50
225982202,2.61,-1.07,9.00,-0.26,0.16,-1.17,-14.44,4.56,-53.50
225993079,2.61,-1.07,9.00,-0.26,0.16,-1.17,-14.50,5.06,-53.62
226002805,2.61,-1.07,9.00,-0.26,0.16,-1.17,-13.94,4.94,-54.38
226012781,2.61,-1.07,9.00,-0.26,0.16,-1.17,-14.06,5.25,-53.12
226022835,2.61,-1.07,9.00,-0.26,0.16,-1.17,-14.12,5.06,-53.62
226033051,2.61,-1.07,9.00,-0.26,0.16,-1.17,-13.69,5.50,-54.75
226043042,2.61,-1.07,9.00,-0.26,0.16,-1.17,-13.69,5.25,-53.00
226052186,2.38,-2.57,11.88,-0.26,0.16,-1.17,-13.69,5.25,-53.00
226063039,2.38,-2.57,11.88,-0.26,0.16,-1.17,-13.56,5.19,-54.25
226072840,2.38,-2.57,11.88,-0.26,0.16,-1.17,-14.12,6.06,-55.00
226083043,2.38,-2.57,11.88,-0.26,0.16,-1.17,-14.00,5.75,-54.56
226092310,4.67,-2.14,6.47,-0.26,0.16,-1.17,-14.00,5.75,-54.56
226103090,4.67,-2.14,6.47,-0.26,0.16,-1.17,-13.38,5.00,-55.00
226111925,4.67,-2.14,6.47,-0.26,0.16,-1.17,-12.25,4.44,-53.31
226123150,4.67,-2.14,6.47,0.02,0.29,-0.55,-12.25,4.44,-53.31
226134603,4.67,-2.14,6.47,-0.03,0.39,-0.50,-12.25,4.44,-53.31
226142737,8.81,-1.84,11.49,-0.03,0.39,-0.50,-12.25,4.44,-53.31
226152816,4.29,-2.45,10.38,-0.03,0.39,-0.50,-12.25,4.44,-53.31
226162181,-0.65,-3.29,8.84,-0.03,0.39,-0.50,-12.25,4.44,-53.31
226173138,-0.65,-3.29,8.84,-0.03,0.39,-0.50,-11.81,4.56,-54.56
226183040,-0.65,-3.29,8.84,-0.03,0.39,-0.50,-11.75,5.31,-54.25
226192741,2.57,-1.00,8.66,-0.03,0.39,-0.50,-11.75,5.31,-54.25
226203048,4.21,-0.38,10.69,-0.03,0.39,-0.50,-11.75,5.31,-54.25
226212765,-0.04,-1.19,7.21,-0.03,0.39,-0.50,-11.75,5.31,-54.25
226222341,1.53,-0.73,10.19,-0.03,0.39,-0.50,-11.75,5.31,-54.25
226232814,1.53,-0.73,10.19,-0.03,0.39,-0.50,-11.44,4.81,-54.44
226243054,1.53,-0.73,10.19,-0.03,0.39,-0.50,-11.69,5.50,-55.56
226252724,1.53,-0.73,10.19,-0.03,0.39,-0.50,-11.44,4.06,-54.81
226262686,1.53,-0.73,10.19,-0.03,0.39,-0.50,-11.81,4.56,-54.56
226273436,1.53,-0.73,10.19,-0.03,0.39,-0.50,-11.62,5.00,-55.44
226282731,-4.21,-1.46,10.23,-0.03,0.39,-0.50,-11.62,5.00,-55.44
226292294,-2.87,-1.65,9.08,-0.03,0.39,-0.50,-11.62,5.00,-55.44
226302772,-2.87,-1.65,9.08,-0.03,0.39,-0.50,-10.38,4.25,-54.56
226313395,-2.87,-1.65,9.08,-0.03,0.39,-0.50,-11.75,5.06,-55.88
226322876,-0.96,-1.53,5.64,-0.03,0.39,-0.50,-11.75,5.06,-55.88
226332710,-2.57,-0.84,6.21,-0.03,0.39,-0.50,-11.75,5.06,-55.88
226343037,1.72,1.34,11.03,-0.03,0.39,-0.50,-11.75,5.06,-55.88
226352836,1.04,0.38,11.53,-0.03,0.39,-0.50,-11.75,5.06,-55.88
226361849,1.04,0.38,11.53,-0.33,0.24,-1.49,-11.75,5.06,-55.88
226373430,-0.38,1.19,10.91,-0.33,0.24,-1.49,-11.75,5.06,-55.88
226383048,-0.38,1.19,10.91,-0.33,0.24,-1.49,-9.81,4.06,-53.50
226392745,3.18,1.00,10.03,-0.33,0.24,-1.49,-9.81,4.06,-53.50
226402186,0.19,0.46,6.62,-0.33,0.24,-1.49,-9.81,4.06,-53.50
226413477,0.19,0.46,6.62,-0.33,0.24,-1.49,-9.75,4.25,-54.81
226422869,-1.84,-0.61,9.35,-0.33,0.24,-1.49,-9.75,4.25,-54.81
226432188,-2.18,-0.42,8.39,-0.33,0.24,-1.49,-9.75,4.25,-54.81
226443039,-2.18,-0.42,8.39,-0.33,0.24,-1.49,-10.38,4.69,-55.88
226453066,-2.18,-0.42,8.39,-0.33,0.24,-1.49,-10.38,4.19,-56.25
226462733,3.07,-1.61,8.96,-0.33,0.24,-1.49,-10.38,4.19,-56.25
226471947,3.07,-1.61,8.96,-0.11,0.34,-1.68,-10.38,4.19,-56.25
226483397,2.38,-1.34,10.15,-0.11,0.34,-1.68,-10.38,4.19,-56.25
226493157,2.38,-1.34,10.15,-0.11,0.34,-1.68,-9.50,3.88,-53.88
226502760,5.63,-1.00,13.37,-0.11,0.34,-1.68,-9.50,3.88,-53.88
226513037,5.98,-0.42,10.61,-0.11,0.34,-1.68,-9.50,3.88,-53.88
226522895,4.29,-3.68,8.42,-0.11,0.34,-1.68,-9.50,3.88,-53.88
226532721,1.27,-4.45,8.46,-0.11,0.34,-1.68,-9.50,3.88,-53.88
226542725,-0.08,-2.91,9.27,-0.11,0.34,-1.68,-9.50,3.88,-53.88
226553061,-0.11,-3.41,8.96,-0.11,0.34,-1.68,-9.50,3.88,-53.88
226562719,3.52,-4.56,9.00,-0.11,0.34,-1.68,-9.50,3.88,-53.88
226572361,5.29,-5.21,10.49,-0.11,0.34,-1.68,-9.50,3.88,-53.88
226583050,5.29,-5.21,10.49,-0.11,0.34,-1.68,-7.94,2.88,-55.38
226593070,5.29,-5.21,10.49,-0.11,0.34,-1.68,-7.81,2.25,-54.75
226603036,1.15,-4.52,10.00,-0.11,0.34,-1.68,-7.81,2.25,-54.75
226612161,1.15,-4.52,10.00,0.51,0.37,0.08,-7.81,2.25,-54.75
226622832,3.03,-4.21,9.16,0.51,0.37,0.08,-7.81,2.25,-54.75
226633122,3.03,-4.21,9.16,0.51,0.37,0.08,-6.44,3.06,-55.00
226642705,5.55,-4.37,10.73,0.51,0.37,0.08,-6.44,3.06,-55.00
226651862,5.55,-4.37,10.73,0.56,0.45,0.53,-6.44,3.06,-55.00
226663085,1.23,-4.45,8.82,0.56,0.45,0.53,-6.44,3.06,-55.00
226673448,1.23,-4.45,8.82,0.56,0.45,0.53,-5.19,1.31,-52.69
226682740,1.23,-4.45,8.82,0.62,0.24,0.62,-5.19,1.31,-52.69
226692847,2.72,-4.10,7.09,0.62,0.24,0.62,-5.19,1.31,-52.69
226702755,2.07,-2.87,5.60,0.62,0.24,0.62,-5.19,1.31,-52.69
226713382,3.07,-2.38,7.78,0.62,0.24,0.62,-5.19,1.31,-52.69
226723864,2.53,-0.84,9.31,0.62,0.24,0.62,-5.19,1.31,-52.69
226733130,1.46,-0.88,9.73,0.62,0.24,0.62,-5.19,1.31,-52.69
226742726,1.46,-0.88,9.73,0.44,0.22,0.25,-5.19,1.31,-52.69
226752270,1.46,-0.88,9.73,0.49,0.06,0.21,-5.19,1.31,-52.69
226763028,3.91,-1.27,11.54,0.49,0.06,0.21,-5.19,1.31,-52.69
226773125,1.11,0.11,12.57,0.49,0.06,0.21,-5.19,1.31,-52.69
226783360,1.11,0.11,12.57,0.34,0.24,-0.01,-5.19,1.31,-52.69
226793469,0.69,-1.27,9.46,0.34,0.24,-0.01,-5.19,1.31,-52.69
226802734,1.11,-0.61,10.07,0.34,0.24,-0.01,-5.19,1.31,-52.69
226812804,0.19,-0.80,8.66,0.34,0.24,-0.01,-5.19,1.31,-52.69
226823816,0.11,-0.88,10.53,0.34,0.24,-0.01,-5.19,1.31,-52.69
226832773,0.54,-0.46,8.74,0.34,0.24,-0.01,-5.19,1.31,-52.69
226842711,1.91,-1.30,8.74,0.34,0.24,-0.01,-5.19,1.31,-52.69
226853366,1.80,-1.61,7.86,0.34,0.24,-0.01,-5.19,1.31,-52.69
226863825,-0.80,-3.45,5.25,0.34,0.24,-0.01,-5.19,1.31,-52.69
226873113,-0.11,-3.56,9.38,0.34,0.24,-0.01,-5.19,1.31,-52.69
226882729,-0.11,-3.56,9.38,0.29,0.20,-0.18,-5.19,1.31,-52.69
226893491,0.73,-2.22,9.00,0.29,0.20,-0.18,-5.19,1.31,-52.69
226902772,3.41,-3.22,11.80,0.29,0.20,-0.18,-5.19,1.31,-52.69
226912700,2.03,-3.45,11.11,0.29,0.20,-0.18,-5.19,1.31,-52.69
226923772,-0.27,-2.91,9.04,0.29,0.20,-0.18,-5.19,1.31,-52.69
226933456,2.76,-1.57,9.12,0.29,0.20,-0.18,-5.19,1.31,-52.69
226942742,4.37,-0.69,13.98,0.29,0.20,-0.18,-5.19,1.31,-52.69
226953520,1.00,-1.84,10.77,0.29,0.20,-0.18,-5.19,1.31,-52.69
226963677,-0.73,-2.11,7.77,0.29,0.20,-0.18,-5.19,1.31,-52.69
226972847,-3.37,-1.76,7.20,0.29,0.20,-0.18,-5.19,1.31,-52.69
226983042,2.26,-0.08,10.80,0.29,0.20,-0.18,-5.19,1.31,-52.69
226992737,2.26,-0.08,10.80,0.28,0.24,0.35,-5.19,1.31,-52.69
227003390,-2.14,-1.65,7.27,0.28,0.24,0.35,-5.19,1.31,-52.69
227012804,-1.15,-3.37,6.75,0.28,0.24,0.35,-5.19,1.31,-52.69
227023774,4.56,-1.57,9.00,0.28,0.24,0.35,-5.19,1.31,-52.69
227033359,2.80,-0.04,9.61,0.28,0.24,0.35,-5.19,1.31,-52.69
227042805,-3.07,-0.57,9.73,0.28,0.24,0.35,-5.19,1.31,-52.69
227053046,-2.49,-1.23,10.92,0.28,0.24,0.35,-5.19,1.31,-52.69
227063351,-2.49,-1.23,10.92,0.24,0.03,0.31,-5.19,1.31,-52.69
227072828,1.76,-2.18,6.55,0.24,0.03,0.31,-5.19,1.31,-52.69
227083061,10.11,0.00,10.00,0.24,0.03,0.31,-5.19,1.31,-52.69
227093469,10.11,0.00,10.00,0.14,0.31,0.43,-5.19,1.31,-52.69
227103428,-5.32,-5.63,9.04,0.14,0.31,0.43,-5.19,1.31,-52.69
227112732,-5.13,-4.41,8.74,0.14,0.31,0.43,-5.19,1.31,-52.69
227123131,-0.65,-1.88,10.23,0.14,0.31,0.43,-5.19,1.31,-52.69
227133364,-0.65,-1.88,10.23,0.19,-0.03,0.41,-5.19,1.31,-52.69
227142825,-0.65,-4.10,4.17,0.19,-0.03,0.41,-5.19,1.31,-52.69
227153135,-5.55,-3.71,4.33,0.19,-0.03,0.41,-5.19,1.31,-52.69
227163352,-5.55,-3.71,4.33,0.35,-0.14,0.48,-5.19,1.31,-52.69
227173500,1.42,0.00,14.21,0.35,-0.14,0.48,-5.19,1.31,-52.69
227183382,2.49,-0.04,10.92,0.35,-0.14,0.48,-5.19,1.31,-52.69
227193057,1.99,-1.91,6.86,0.35,-0.14,0.48,-5.19,1.31,-52.69
227203420,1.99,-1.91,6.86,0.28,-0.01,0.46,-5.19,1.31,-52.69
227212787,1.34,-1.42,14.29,0.28,-0.01,0.46,-5.19,1.31,-52.69
227223124,-4.14,-1.30,10.73,0.28,-0.01,0.46,-5.19,1.31,-52.69
227233366,-4.14,-1.30,10.73,0.11,-0.03,0.27,-5.19,1.31,-52.69
227243482,1.57,-1.23,6.29,0.11,-0.03,0.27,-5.19,1.31,-52.69
227252730,3.41,0.92,5.64,0.11,-0.03,0.27,-5.19,1.31,-52.69
227263655,5.67,0.69,6.82,0.11,-0.03,0.27,-5.19,1.31,-52.69
227273431,-0.80,-0.30,12.56,0.11,-0.03,0.27,-5.19,1.31,-52.69
227282743,-2.26,-0.15,13.60,0.11,-0.03,0.27,-5.19,1.31,-52.69
227293877,-3.52,-0.92,8.85,0.11,-0.03,0.27,-5.19,1.31,-52.69
227303390,-3.52,-0.92,8.85,0.15,-0.11,0.71,-5.19,1.31,-52.69
227313416,3.98,-0.11,11.68,0.15,-0.11,0.71,-5.19,1.31,-52.69
227322806,0.57,-0.08,11.11,0.15,-0.11,0.71,-5.19,1.31,-52.69
227333738,-0.80,0.34,12.68,0.15,-0.11,0.71,-5.19,1.31,-52.69
227342827,-2.11,-0.19,6.82,0.15,-0.11,0.71,-5.19,1.31,-52.69
227353453,0.23,1.07,8.46,0.15,-0.11,0.71,-5.19,1.31,-52.69
227363738,0.23,1.07,8.46,0.06,-0.10,1.12,-5.19,1.31,-52.69
227373411,0.23,1.07,8.46,-0.06,0.01,1.05,-5.19,1.31,-52.69
227382729,1.23,0.38,11.80,-0.06,0.01,1.05,-5.19,1.31,-52.69
227393449,-0.96,-1.65,6.59,-0.06,0.01,1.05,-5.19,1.31,-52.69
227403762,-0.69,-1.04,8.66,-0.06,0.01,1.05,-5.19,1.31,-52.69
227413370,-0.77,-0.34,8.04,-0.06,0.01,1.05,-5.19,1.31,-52.69
227423488,3.45,1.00,12.18,-0.06,0.01,1.05,-5.19,1.31,-52.69
227433780,1.15,1.00,9.12,-0.06,0.01,1.05,-5.19,1.31,-52.69
227443356,1.15,1.00,9.12,-0.33,-0.02,0.54,-5.19,1.31,-52.69
227452797,4.64,0.38,13.33,-0.33,-0.02,0.54,-5.19,1.31,-52.69
227463439,0.73,-0.96,11.95,-0.33,-0.02,0.54,-5.19,1.31,-52.69
227473785,-4.67,-0.19,7.32,-0.33,-0.02,0.54,-5.19,1.31,-52.69
227483382,1.38,-0.88,6.05,-0.33,-0.02,0.54,-5.19,1.31,-52.69
227493521,2.84,-0.65,11.22,-0.33,-0.02,0.54,-5.19,1.31,-52.69
227503764,1.23,0.46,11.45,-0.33,-0.02,0.54,-5.19,1.31,-52.69
227513329,1.23,0.46,11.45,-0.57,-0.05,-0.31,-5.19,1.31,-52.69
227522836,-4.45,-0.73,9.65,-0.57,-0.05,-0.31,-5.19,1.31,-52.69
227533675,-1.19,-2.18,8.43,-0.57,-0.05,-0.31,-5.19,1.31,-52.69
227543378,-1.19,-2.18,8.43,-0.56,-0.21,-0.65,-5.19,1.31,-52.69
227553499,1.57,0.50,4.63,-0.56,-0.21,-0.65,-5.19,1.31,-52.69
227563408,2.76,0.08,7.35,-0.56,-0.21,-0.65,-5.19,1.31,-52.69
227573796,1.91,2.03,10.35,-0.56,-0.21,-0.65,-5.19,1.31,-52.69
227582728,1.91,2.03,10.35,-0.77,0.28,-1.22,-5.19,1.31,-52.69
227593939,-6.24,-2.76,6.36,-0.77,0.28,-1.22,-5.19,1.31,-52.69
227603776,-0.73,1.57,6.86,-0.77,0.28,-1.22,-5.19,1.31,-52.69
227613366,-0.73,1.57,6.86,-0.69,-0.02,-1.57,-5.19,1.31,-52.69
227623509,2.61,-1.00,9.92,-0.69,-0.02,-1.57,-5.19,1.31,-52.69
227633392,2.11,0.15,10.61,-0.69,-0.02,-1.57,-5.19,1.31,-52.69
227643021,2.61,0.46,8.81,-0.69,-0.02,-1.57,-5.19,1.31,-52.69
227653403,2.61,0.46,8.81,-0.81,0.21,-1.92,-5.19,1.31,-52.69
227663355,-9.31,-3.79,10.19,-0.81,0.21,-1.92,-5.19,1.31,-52.69
227673794,-7.89,-4.45,10.23,-0.81,0.21,-1.92,-5.19,1.31,-52.69
227683982,-7.89,-4.45,10.23,-0.43,-0.39,-1.84,-5.19,1.31,-52.69
227692851,10.53,0.54,8.08,-0.43,-0.39,-1.84,-5.19,1.31,-52.69
227702766,7.85,2.45,7.32,-0.43,-0.39,-1.84,-5.19,1.31,-52.69
227711873,7.85,2.45,7.32,-0.53,0.33,-1.65,-5.19,1.31,-52.69
227726040,2.41,-6.82,8.50,-0.53,0.33,-1.65,-5.19,1.31,-52.69
227733734,-1.04,-2.49,9.38,-0.53,0.33,-1.65,-5.19,1.31,-52.69
227743483,-1.04,-2.49,9.38,-0.31,-0.09,-1.49,-5.19,1.31,-52.69
227753421,-1.04,-2.49,9.38,-0.30,0.13,-1.36,-5.19,1.31,-52.69
227762747,-0.27,-1.15,10.88,-0.30,0.13,-1.36,-5.19,1.31,-52.69
227773489,-5.98,-4.33,12.34,-0.30,0.13,-1.36,-5.19,1.31,-52.69
227783684,-8.96,-4.06,12.18,-0.30,0.13,-1.36,-5.19,1.31,-52.69
227794144,1.07,-0.30,9.39,-0.30,0.13,-1.36,-5.19,1.31,-52.69
227803458,3.14,1.80,9.34,-0.30,0.13,-1.36,-5.19,1.31,-52.69
227813679,4.52,0.27,12.06,-0.30,0.13,-1.36,-5.19,1.31,-52.69
227823903,4.52,0.27,12.06,-0.27,0.13,-0.74,-5.19,1.31,-52.69
227832747,-4.33,-0.42,9.38,-0.27,0.13,-0.74,-5.19,1.31,-52.69
227843719,0.15,-1.19,9.00,-0.27,0.13,-0.74,-5.19,1.31,-52.69
227852766,0.15,-1.19,9.00,-0.16,-0.06,-0.77,-5.19,1.31,-52.69
227862756,-0.27,5.36,8.46,-0.16,-0.06,-0.77,-5.19,1.31,-52.69
227871953,-0.27,5.36,8.46,-0.37,0.06,-0.98,-5.19,1.31,-52.69
227885194,3.07,4.83,9.96,-0.37,0.06,-0.98,-5.19,1.31,-52.69
227894654,3.07,4.83,9.96,-0.51,0.10,-1.30,-5.19,1.31,-52.69
227904156,3.26,1.76,10.11,-0.51,0.10,-1.30,-5.19,1.31,-52.69
227913681,5.17,0.77,10.45,-0.51,0.10,-1.30,-5.19,1.31,-52.69
227923456,5.17,0.77,10.45,-0.58,0.10,-1.82,-5.19,1.31,-52.69
227933384,4.21,0.69,8.39,-0.58,0.10,-1.82,-5.19,1.31,-52.69
227943351,3.95,0.50,8.70,-0.58,0.10,-1.82,-5.19,1.31,-52.69
227953738,2.84,-0.30,9.50,-0.58,0.10,-1.82,-5.19,1.31,-52.69
227962825,2.84,-0.30,9.50,-0.73,0.25,-2.32,-5.19,1.31,-52.69
227972814,3.83,-1.53,9.50,-0.73,0.25,-2.32,-5.19,1.31,-52.69
227981903,3.83,-1.53,9.50,-0.69,0.27,-2.43,-5.19,1.31,-52.69
227996063,5.90,-0.38,9.58,-0.69,0.27,-2.43,-5.19,1.31,-52.69
228003391,2.57,-2.03,10.92,-0.69,0.27,-2.43,-5.19,1.31,-52.69
228013388,2.95,-2.03,11.50,-0.69,0.27,-2.43,-5.19,1.31,-52.69
228023880,3.18,-0.34,11.15,-0.69,0.27,-2.43,-5.19,1.31,-52.69
228034096,3.18,-0.34,11.15,-0.78,0.39,-2.35,-5.19,1.31,-52.69
228042728,4.56,-0.34,11.38,-0.78,0.39,-2.35,-5.19,1.31,-52.69
228052725,2.87,0.88,11.46,-0.78,0.39,-2.35,-5.19,1.31,-52.69
228062317,2.87,0.88,11.46,-0.72,0.46,-1.94,-5.19,1.31,-52.69
228075138,2.72,-0.38,10.54,-0.72,0.46,-1.94,-5.19,1.31,-52.69
228083708,1.42,-1.65,9.96,-0.72,0.46,-1.94,-5.19,1.31,-52.69
228093467,1.42,-1.65,9.96,-0.53,0.43,-1.52,-5.19,1.31,-52.69
228103935,1.42,-1.65,9.96,-0.43,0.49,-1.32,-5.19,1.31,-52.69
228114005,0.15,-1.27,10.77,-0.43,0.49,-1.32,-5.19,1.31,-52.69
228123866,3.83,1.23,12.57,-0.43,0.49,-1.32,-5.19,1.31,-52.69
228133763,3.83,1.23,12.57,-0.37,0.47,-0.93,-5.19,1.31,-52.69
228143357,2.26,-4.37,9.85,-0.37,0.47,-0.93,-5.19,1.31,-52.69
228153712,0.11,-4.33,12.91,-0.37,0.47,-0.93,-5.19,1.31,-52.69
228163437,0.11,-4.33,12.91,-0.44,0.57,-0.90,-5.19,1.31,-52.69
228172806,0.11,-4.33,12.91,-0.37,0.35,-1.02,-5.19,1.31,-52.69
228182733,-1.30,1.15,9.12,-0.37,0.35,-1.02,-5.19,1.31,-52.69
228191882,-1.30,1.15,9.12,-0.44,0.39,-1.21,-5.19,1.31,-52.69
228204979,-1.30,-0.42,7.47,-0.44,0.39,-1.21,-5.19,1.31,-52.69
228214210,0.30,-2.18,8.62,-0.44,0.39,-1.21,-5.19,1.31,-52.69
228223441,0.30,-2.18,8.62,-0.39,0.51,-1.39,-5.19,1.31,-52.69
228233362,0.30,-2.18,8.62,-0.42,0.44,-1.55,-5.19,1.31,-52.69
228243815,2.57,-1.38,6.93,-0.42,0.44,-1.55,-5.19,1.31,-52.69
228253404,2.61,0.73,12.53,-0.42,0.44,-1.55,-5.19,1.31,-52.69
228263792,3.03,-0.73,13.95,-0.42,0.44,-1.55,-5.19,1.31,-52.69
228272810,3.03,-0.73,13.95,-0.74,0.73,-2.32,-5.19,1.31,-52.69
228282743,2.72,-1.53,11.22,-0.74,0.73,-2.32,-5.19,1.31,-52.69
228292304,2.72,-1.53,11.22,-0.65,0.57,-2.62,-5.19,1.31,-52.69
228304041,10.00,1.53,12.91,-0.65,0.57,-2.62,-5.19,1.31,-52.69
228313790,8.35,3.68,10.69,-0.65,0.57,-2.62,-5.19,1.31,-52.69
228323408,5.09,3.79,8.84,-0.65,0.57,-2.62,-5.19,1.31,-52.69
228333034,5.98,1.42,7.36,-0.65,0.57,-2.62,-5.19,1.31,-52.69
228342271,5.98,1.42,7.36,-1.02,0.87,-3.27,-5.19,1.31,-52.69
228352268,5.71,-0.69,11.00,-1.02,0.87,-3.27,-5.19,1.31,-52.69
228364887,5.71,-0.69,11.00,-1.04,0.93,-3.25,-5.19,1.31,-52.69
228373901,5.71,-0.69,11.00,-0.89,0.78,-3.01,-5.19,1.31,-52.69
228383093,5.02,-1.27,9.20,-0.89,0.78,-3.01,-5.19,1.31,-52.69
228392739,5.67,-1.38,10.07,-0.89,0.78,-3.01,-5.19,1.31,-52.69
228402827,4.79,-2.26,12.76,-0.89,0.78,-3.01,-5.19,1.31,-52.69
228412399,4.79,-2.26,12.76,-0.67,1.01,-2.29,-5.19,1.31,-52.69
228425729,4.02,-2.38,11.64,-0.67,1.01,-2.29,-5.19,1.31,-52.69
228433713,3.07,-3.48,10.07,-0.67,1.01,-2.29,-5.19,1.31,-52.69
228443757,3.07,-3.48,10.07,-0.37,1.05,-1.38,-5.19,1.31,-52.69
228453125,0.80,-3.75,11.07,-0.37,1.05,-1.38,-5.19,1.31,-52.69
228463712,3.03,-5.82,9.35,-0.37,1.05,-1.38,-5.19,1.31,-52.69
228474083,3.03,-5.82,9.35,-0.06,1.03,-0.61,-5.19,1.31,-52.69
228483839,3.03,-5.82,9.35,0.02,1.01,-0.49,-5.19,1.31,-52.69
228493862,2.64,-1.61,8.78,0.02,1.01,-0.49,-5.19,1.31,-52.69
228503739,2.99,-1.61,8.16,0.02,1.01,-0.49,-5.19,1.31,-52.69
228512720,2.99,-1.61,8.16,0.07,0.95,-0.56,-5.19,1.31,-52.69
228522830,2.68,-2.87,7.12,0.07,0.95,-0.56,-5.19,1.31,-52.69
228533350,2.68,-2.87,7.12,-0.06,0.77,-0.89,-5.19,1.31,-52.69
228544791,3.64,-3.22,5.28,-0.06,0.77,-0.89,-5.19,1.31,-52.69
228553926,3.64,-3.22,5.28,-0.14,0.67,-1.15,-5.19,1.31,-52.69
228563587,2.72,-1.19,9.69,-0.14,0.67,-1.15,-5.19,1.31,-52.69
228574441,3.52,-1.76,9.04,-0.14,0.67,-1.15,-5.19,1.31,-52.69
228584038,3.52,-1.76,9.04,-0.24,0.54,-1.16,-5.19,1.31,-52.69
228593828,2.11,-1.91,8.58,-0.24,0.54,-1.16,-5.19,1.31,-52.69
228603678,1.99,-4.79,6.82,-0.24,0.54,-1.16,-5.19,1.31,-52.69
228614051,1.99,-4.79,6.82,-0.02,0.46,-0.71,-5.19,1.31,-52.69
228623900,1.99,-4.79,6.82,0.01,0.57,-0.52,-5.19,1.31,-52.69
228633568,2.38,0.46,11.98,0.01,0.57,-0.52,-5.19,1.31,-52.69
228644209,4.37,0.54,13.87,0.01,0.57,-0.52,-5.19,1.31,-52.69
228653780,4.37,0.54,13.87,-0.12,0.56,-0.39,-5.19,1.31,-52.69
228663758,1.42,-4.67,5.32,-0.12,0.56,-0.39,-5.19,1.31,-52.69
228674238,4.33,-3.75,7.39,-0.12,0.56,-0.39,-5.19,1.31,-52.69
228683927,4.33,-3.75,7.39,-0.01,0.42,-0.50,-5.19,1.31,-52.69
228693236,4.33,-3.75,7.39,-0.04,0.41,-0.55,-5.19,1.31,-52.69
228702769,4.33,-2.61,11.76,-0.04,0.41,-0.55,-5.19,1.31,-52.69
228712728,1.53,-2.34,8.35,-0.04,0.41,-0.55,-5.19,1.31,-52.69
228724180,1.53,-2.34,8.35,-0.11,0.23,-0.67,-5.19,1.31,-52.69
228733830,6.74,-0.69,8.39,-0.11,0.23,-0.67,-5.19,1.31,-52.69
228744300,4.48,-1.42,8.04,-0.11,0.23,-0.67,-5.19,1.31,-52.69
228753785,4.48,-1.42,8.04,-0.13,0.41,-0.72,-5.19,1.31,-52.69
228763123,4.10,-4.60,9.16,-0.13,0.41,-0.72,-5.19,1.31,-52.69
228774211,6.02,-3.56,8.92,-0.13,0.41,-0.72,-5.19,1.31,-52.69
228783845,6.02,-3.56,8.92,-0.03,0.41,-0.55,-5.19,1.31,-52.69
228793841,6.02,-3.56,8.92,-0.03,0.46,-0.53,-5.19,1.31,-52.69
228803906,4.56,-8.70,10.00,-0.03,0.46,-0.53,-5.19,1.31,-52.69
228814314,5.02,-9.61,9.35,-0.03,0.46,-0.53,-5.19,1.31,-52.69
228823851,5.02,-9.61,9.35,0.08,0.47,-0.28,-5.19,1.31,-52.69
228833122,4.21,-7.28,7.51,0.08,0.47,-0.28,-5.19,1.31,-52.69
228843669,4.10,-5.82,9.35,0.08,0.47,-0.28,-5.19,1.31,-52.69
228853795,4.10,-5.82,9.35,0.09,0.53,0.09,-5.19,1.31,-52.69
228863795,4.10,-5.82,9.35,0.12,0.52,0.25,-5.19,1.31,-52.69
228873716,1.84,-7.09,9.81,0.12,0.52,0.25,-5.19,1.31,-52.69
228884258,3.22,-6.09,9.58,0.12,0.52,0.25,-5.19,1.31,-52.69
228693236,4.33,-3.75,7.39,-0.04,0.41,-0.55,-5.19,1.31,-52.69
