timestamp,accX,accY,accZ,gyroX,gyroY,gyroZ,magX,magY,magZ
Right Turn
663079896,-0.61,0.57,9.77,-0.22,0.21,0.14,22.38,5.19,-39.75
663094056,-0.61,0.57,9.77,-0.22,0.21,0.14,23.88,4.56,-39.69
663099254,-0.61,0.57,9.77,-0.22,0.21,0.14,23.50,4.00,-41.56
663107722,-0.61,0.57,9.77,-0.05,-0.10,0.01,23.50,4.00,-41.56
663118060,-0.61,0.57,9.77,-0.05,-0.10,0.01,23.56,3.81,-39.81
663129003,-0.61,0.57,9.77,-0.10,0.03,0.03,23.56,3.81,-39.81
663138669,-0.61,0.57,9.77,-0.13,0.03,0.01,23.56,3.81,-39.81
663148975,-0.61,0.57,9.77,-0.12,-0.06,0.01,23.56,3.81,-39.81
663159226,-0.61,0.57,9.77,-0.15,0.03,0.00,23.56,3.81,-39.81
663168607,-0.61,0.57,9.77,-0.15,0.03,0.00,22.81,4.38,-39.69
663178040,-0.61,0.57,9.77,-0.15,0.03,0.00,23.25,4.75,-40.94
663188579,-0.61,0.57,9.77,-0.14,0.05,0.02,23.25,4.75,-40.94
663198879,-0.61,0.57,9.77,-0.11,-0.03,0.02,23.25,4.75,-40.94
663208560,-0.61,0.57,9.77,-0.16,0.07,0.00,23.25,4.75,-40.94
663218968,-0.61,0.57,9.77,-0.12,-0.13,-0.03,23.25,4.75,-40.94
663229229,-0.61,0.57,9.77,-0.09,-0.20,-0.03,23.25,4.75,-40.94
663238648,-0.61,0.57,9.77,-0.09,-0.20,-0.03,23.31,5.00,-40.56
663248042,-0.61,0.57,9.77,-0.09,-0.20,-0.03,22.81,5.12,-39.38
663258552,-0.61,0.57,9.77,-0.10,0.04,0.01,22.81,5.12,-39.38
663268908,-1.34,-0.57,10.80,-0.10,0.04,0.01,22.81,5.12,-39.38
663279501,-1.34,-0.57,10.80,-0.14,0.01,-0.04,22.81,5.12,-39.38
663289292,-1.34,-0.57,10.80,-0.17,-0.06,-0.09,22.81,5.12,-39.38
663299166,-1.34,-0.57,10.80,-0.17,-0.06,-0.09,23.25,6.31,-40.38
663307699,-1.34,-0.57,10.80,-0.17,-0.06,-0.09,23.56,5.38,-39.25
663318867,-1.34,-0.57,10.80,-0.17,-0.08,-0.10,23.56,5.38,-39.25
663329613,-1.34,-0.57,10.80,-0.18,-0.03,-0.09,23.56,5.38,-39.25
663339630,-1.34,-0.57,10.80,-0.20,-0.04,-0.10,23.56,5.38,-39.25
663349360,-1.34,-0.57,10.80,-0.20,-0.04,-0.10,22.62,5.25,-40.38
663358893,-1.34,-0.57,10.80,-0.20,-0.04,-0.10,24.12,4.69,-38.56
663369594,-1.34,-0.57,10.80,-0.20,-0.04,-0.10,22.69,6.44,-41.44
663379220,-1.34,-0.57,10.80,-0.20,-0.04,-0.10,23.12,5.94,-39.56
663389297,-1.34,-0.57,10.80,-0.20,-0.04,-0.10,23.12,7.00,-39.31
663399624,-1.34,-0.57,10.80,-0.20,-0.04,-0.10,22.38,6.44,-41.06
663409218,-1.34,-0.57,10.80,-0.20,-0.04,-0.10,22.75,6.38,-40.94
663419269,-1.34,-0.57,10.80,-0.20,-0.04,-0.10,23.19,6.44,-39.12
663428582,-1.34,-0.57,10.80,-0.20,-0.04,-0.10,23.50,6.94,-39.12
663439243,-1.34,-0.57,10.80,-0.20,-0.04,-0.10,22.56,5.81,-40.50
663449524,-1.34,-0.57,10.80,-0.16,-0.07,-0.29,22.56,5.81,-40.50
663459205,-1.34,-0.57,10.80,-0.16,-0.07,-0.29,22.56,6.88,-40.25
663469463,-1.34,-0.57,10.80,-0.16,-0.07,-0.29,21.88,7.88,-41.50
663479220,-1.34,-0.57,10.80,-0.16,-0.07,-0.29,21.81,6.62,-40.44
663489258,-1.34,-0.57,10.80,-0.16,-0.07,-0.29,22.38,8.25,-40.50
663499222,-1.34,-0.57,10.80,-0.16,-0.07,-0.29,22.38,8.25,-40.50
663509449,-1.34,-0.57,10.80,-0.16,-0.07,-0.29,22.25,7.06,-41.62
663519147,-1.34,-0.57,10.80,-0.16,-0.07,-0.29,22.00,8.06,-40.62
663528966,-1.34,-0.57,10.80,-0.16,-0.07,-0.29,22.44,6.94,-40.75
663539416,-1.34,-0.57,10.80,-0.16,-0.07,-0.29,21.81,8.19,-41.56
663549128,-1.34,-0.57,10.80,-0.16,-0.07,-0.29,20.75,8.19,-41.38
663559219,-1.34,-0.57,10.80,-0.16,-0.07,-0.29,21.94,8.62,-40.75
663569065,-1.34,-0.57,10.80,-0.16,-0.07,-0.29,21.94,8.62,-40.75
663579385,-1.34,-0.57,10.80,-0.16,-0.07,-0.29,20.00,9.00,-43.00
663589204,-1.34,-0.57,10.80,-0.16,-0.07,-0.29,21.94,8.62,-40.75
663598808,-1.34,-0.57,10.80,-0.16,-0.07,-0.29,22.06,8.56,-40.31
663609345,-1.34,-0.57,10.80,-0.16,-0.07,-0.29,20.25,9.62,-41.81
663619022,-1.34,-0.57,10.80,-0.16,-0.07,-0.29,21.19,9.44,-40.69
663629155,-1.34,-0.57,10.80,-0.16,-0.07,-0.29,20.38,10.12,-39.31
663639047,-1.34,-0.57,10.80,-0.16,-0.07,-0.29,20.50,9.75,-40.50
663649367,-1.34,-0.57,10.80,-0.16,-0.07,-0.29,21.00,10.62,-41.44
663659085,-1.34,-0.57,10.80,-0.16,-0.07,-0.29,20.06,10.31,-40.75
663668598,-1.34,-0.57,10.80,-0.16,-0.07,-0.29,20.88,10.94,-41.94
663679344,-1.34,-0.57,10.80,-0.16,-0.07,-0.29,20.44,10.25,-42.31
663688980,-1.34,-0.57,10.80,-0.16,-0.07,-0.29,21.19,9.75,-40.69
663699039,-1.34,-0.57,10.80,-0.16,-0.07,-0.29,21.06,9.31,-39.81
663708919,-1.34,-0.57,10.80,-0.16,-0.07,-0.29,20.50,9.75,-40.44
663719240,-1.34,-0.57,10.80,-0.16,-0.07,-0.29,20.44,11.00,-42.06
663729041,-1.34,-0.57,10.80,-0.16,-0.07,-0.29,20.81,9.75,-40.81
663738654,-1.34,-0.57,10.80,-0.16,-0.07,-0.29,19.69,10.31,-42.50
663749156,-1.34,-0.57,10.80,-0.16,-0.07,-0.29,19.75,10.50,-42.12
663758901,-1.34,-0.57,10.80,-0.16,-0.07,-0.29,20.81,9.75,-40.88
663768953,-1.34,-0.57,10.80,-0.16,-0.07,-0.29,19.94,9.62,-41.50
663779213,-1.34,-0.57,10.80,-0.16,-0.07,-0.29,20.50,10.00,-40.50
663788858,-1.34,-0.57,10.80,-0.16,-0.07,-0.29,21.31,10.19,-39.94
663799010,-1.34,-0.57,10.80,-0.16,-0.07,-0.29,19.44,11.00,-41.88
663808523,-1.34,-0.57,10.80,-0.16,-0.07,-0.29,21.31,9.44,-38.50
663817942,-1.34,-0.57,10.80,-0.16,-0.07,-0.29,20.44,10.31,-40.62
663829160,-1.34,-0.57,10.80,0.21,0.11,-0.18,20.44,10.31,-40.62
663839228,-1.34,-0.57,10.80,0.22,0.17,-0.13,20.44,10.31,-40.62
663849175,-1.34,-0.57,10.80,0.22,0.17,-0.13,21.50,10.56,-39.12
663858795,-1.34,-0.57,10.80,0.22,0.17,-0.13,20.50,10.00,-40.50
663868925,-1.34,-0.57,10.80,0.22,0.17,-0.13,20.50,11.00,-40.31
663878660,-1.34,-0.57,10.80,0.22,0.17,-0.13,21.75,11.31,-40.94
663889115,-1.34,-0.57,10.80,0.22,0.17,-0.13,20.25,10.12,-41.50
663898760,-1.34,-0.57,10.80,0.22,0.17,-0.13,20.69,9.56,-41.25
663908844,-1.34,-0.57,10.80,0.22,0.17,-0.13,20.44,10.31,-40.56
663919089,-1.34,-0.57,10.80,0.22,0.17,-0.13,21.38,8.56,-40.06
663928758,-1.34,-0.57,10.80,0.22,0.17,-0.13,19.94,10.31,-42.88
663938882,-1.34,-0.57,10.80,0.22,0.17,-0.13,21.69,8.88,-38.75
663948654,-1.34,-0.57,10.80,0.22,0.17,-0.13,21.62,9.12,-40.44
663959030,-1.34,-0.57,10.80,0.22,0.17,-0.13,21.25,9.19,-40.62
663968710,-1.34,-0.57,10.80,0.22,0.17,-0.13,21.69,8.81,-40.38
663978726,-1.34,-0.57,10.80,0.22,0.17,-0.13,20.69,9.81,-41.31
663989016,-1.34,-0.57,10.80,0.22,0.17,-0.13,21.25,9.44,-40.62
663998673,-1.34,-0.57,10.80,0.22,0.17,-0.13,20.75,9.00,-41.12
664008823,-1.34,-0.57,10.80,0.22,0.17,-0.13,20.62,9.31,-41.69
664018831,-1.34,-0.57,10.80,0.22,0.17,-0.13,20.62,9.31,-41.69
664028983,-1.34,-0.57,10.80,0.22,0.17,-0.13,21.06,9.00,-41.50
664038691,-1.34,-0.57,10.80,0.22,0.17,-0.13,20.81,10.50,-40.50
664048580,-1.34,-0.57,10.80,0.22,0.17,-0.13,20.94,9.06,-41.94
664058976,-1.34,-0.57,10.80,0.22,0.17,-0.13,22.25,9.44,-40.88
664068656,-1.34,-0.57,10.80,0.22,0.17,-0.13,20.69,9.56,-41.25
664078777,-1.34,-0.57,10.80,0.22,0.17,-0.13,21.31,9.38,-40.19
664088687,-1.34,-0.57,10.80,0.22,0.17,-0.13,21.31,9.38,-40.19
664098951,-1.34,-0.57,10.80,0.22,0.17,-0.13,21.38,8.50,-41.69
664108672,-1.34,-0.57,10.80,0.22,0.17,-0.13,20.94,8.62,-40.62
664118550,-1.34,-0.57,10.80,0.22,0.17,-0.13,21.75,9.06,-40.06
664128868,-1.34,-0.57,10.80,0.22,0.17,-0.13,21.50,8.44,-39.62
664138565,-1.34,-0.57,10.80,0.22,0.17,-0.13,22.69,8.06,-39.25
664148684,-1.34,-0.57,10.80,0.22,0.17,-0.13,21.69,7.50,-40.62
664158629,-1.34,-0.57,10.80,0.22,0.17,-0.13,20.88,7.31,-41.19
664168961,-1.34,-0.57,10.80,0.22,0.17,-0.13,21.44,7.75,-40.25
664178631,-1.34,-0.57,10.80,0.22,0.17,-0.13,21.94,7.31,-41.38
664188551,-1.34,-0.57,10.80,0.22,0.17,-0.13,21.94,7.06,-39.56
664198881,-1.34,-0.57,10.80,0.22,0.17,-0.13,22.56,7.38,-39.88
664208552,-1.34,-0.57,10.80,0.22,0.17,-0.13,22.38,6.50,-39.38
664218630,-1.34,-0.57,10.80,0.22,0.17,-0.13,22.38,7.19,-40.81
664228618,-1.34,-0.57,10.80,0.22,0.17,-0.13,22.00,7.81,-40.94
664238920,-1.34,-0.57,10.80,0.22,0.17,-0.13,21.81,6.38,-40.38
664248576,-1.34,-0.57,10.80,0.22,0.17,-0.13,22.19,7.69,-40.12
664258611,-1.34,-0.57,10.80,0.22,0.17,-0.13,22.19,6.94,-38.62
664268880,-1.34,-0.57,10.80,0.22,0.17,-0.13,22.00,7.50,-40.94
664278670,-1.34,-0.57,10.80,0.22,0.17,-0.13,21.00,7.75,-40.44
664288593,-1.34,-0.57,10.80,0.22,0.17,-0.13,21.50,6.62,-40.00
664298562,-1.34,-0.57,10.80,0.22,0.17,-0.13,21.19,7.62,-39.50
664308879,-1.34,-0.57,10.80,0.22,0.17,-0.13,21.50,7.94,-39.88
664318563,-1.34,-0.57,10.80,0.22,0.17,-0.13,22.31,8.12,-39.25
664328549,-1.34,-0.57,10.80,0.22,0.17,-0.13,21.75,8.06,-38.56
664339295,-1.34,-0.57,10.80,0.22,0.17,-0.13,21.88,7.94,-39.75
664348560,-3.68,1.27,6.44,0.22,0.17,-0.13,21.88,7.94,-39.75
664358098,-4.90,0.84,6.21,0.22,0.17,-0.13,21.88,7.94,-39.75
664368939,-4.90,0.84,6.21,0.22,0.17,-0.13,20.69,9.06,-39.88
664378872,-4.90,0.84,6.21,0.22,0.17,-0.13,20.00,9.31,-41.44
664388001,-4.02,-0.84,9.54,0.22,0.17,-0.13,20.00,9.31,-41.44
664398089,-4.02,-0.84,9.54,0.22,0.17,-0.13,20.38,10.38,-41.00
664409189,-4.02,-0.84,9.54,-0.38,0.03,-0.97,20.38,10.38,-41.00
664418873,-4.02,-0.84,9.54,-0.38,0.03,-0.97,20.69,11.12,-41.12
664428024,-2.53,-1.65,8.24,-0.38,0.03,-0.97,20.69,11.12,-41.12
664438857,-2.53,-1.65,8.24,-0.38,0.03,-0.97,19.44,11.81,-39.88
664448561,-2.53,-1.65,8.24,-0.38,0.03,-0.97,20.12,11.56,-40.12
664458541,-2.53,-1.65,8.24,-0.38,0.03,-0.97,19.00,12.38,-41.75
664468611,-2.53,-1.65,8.24,-0.38,0.03,-0.97,19.12,12.31,-41.31
664479315,-2.53,-1.65,8.24,-0.38,0.03,-0.97,19.25,12.00,-40.81
664488595,2.14,-4.25,11.57,-0.38,0.03,-0.97,19.25,12.00,-40.81
664498007,3.75,-4.56,17.05,-0.38,0.03,-0.97,19.25,12.00,-40.81
664508854,3.75,-4.56,17.05,-0.38,0.03,-0.97,18.06,12.94,-41.31
664518858,3.75,-4.56,17.05,-0.38,0.03,-0.97,19.88,12.75,-40.88
664528125,2.87,-4.41,8.84,-0.38,0.03,-0.97,19.88,12.75,-40.88
664538563,2.87,-4.41,8.84,-0.38,0.03,-0.97,19.62,11.94,-40.75
664548862,2.87,-4.41,8.84,-0.38,0.03,-0.97,19.12,11.75,-41.25
664558543,2.87,-4.41,8.84,-0.38,0.03,-0.97,19.50,12.31,-41.25
664568598,2.87,-4.41,8.84,-0.38,0.03,-0.97,20.38,11.88,-40.56
664578858,2.87,-4.41,8.84,-0.38,0.03,-0.97,19.81,11.50,-41.44
664588961,2.87,-4.41,8.84,-0.38,0.03,-0.97,19.25,11.44,-40.75
664598012,-0.61,-1.38,9.77,-0.38,0.03,-0.97,19.25,11.44,-40.75
664608545,-0.61,-1.38,9.77,-0.38,0.03,-0.97,19.31,11.19,-38.94
664618867,-0.61,-1.38,9.77,-0.38,0.03,-0.97,18.44,12.31,-41.06
664628867,-0.61,-1.38,9.77,-0.38,0.03,-0.97,19.25,11.69,-40.75
664638000,1.72,0.73,11.99,-0.38,0.03,-0.97,19.25,11.69,-40.75
664648867,1.72,0.73,11.99,-0.38,0.03,-0.97,20.19,11.00,-39.94
664658871,1.72,0.73,11.99,-0.38,0.03,-0.97,18.50,11.50,-40.94
664668615,-3.45,0.57,8.62,-0.38,0.03,-0.97,18.50,11.50,-40.94
664678125,1.42,0.65,9.69,-0.38,0.03,-0.97,18.50,11.50,-40.94
664688903,1.42,0.65,9.69,-0.38,0.03,-0.97,20.62,11.19,-39.44
664698876,1.42,0.65,9.69,-0.38,0.03,-0.97,19.12,11.31,-39.88
664708007,-1.42,0.69,8.12,-0.38,0.03,-0.97,19.12,11.31,-39.88
664718861,-1.42,0.69,8.12,-0.38,0.03,-0.97,18.31,11.88,-41.88
664728952,-1.42,0.69,8.12,-0.38,0.03,-0.97,17.81,12.31,-40.88
664738962,-2.68,0.08,10.61,-0.38,0.03,-0.97,17.81,12.31,-40.88
664748011,-2.68,0.08,10.61,-0.05,0.11,-0.84,17.81,12.31,-40.88
664757683,-3.71,-0.30,8.08,-0.05,0.11,-0.84,17.81,12.31,-40.88
664769245,-3.71,-0.30,8.08,-0.05,0.10,-0.81,17.81,12.31,-40.88
664779239,-3.71,-0.30,8.08,-0.05,0.10,-0.81,17.88,12.88,-38.81
664788549,2.61,-4.25,11.15,-0.05,0.10,-0.81,17.88,12.88,-38.81
664798637,-0.88,-5.17,11.54,-0.05,0.10,-0.81,17.88,12.88,-38.81
664808548,-1.34,-4.83,7.59,-0.05,0.10,-0.81,17.88,12.88,-38.81
664818013,-0.77,-4.94,8.08,-0.05,0.10,-0.81,17.88,12.88,-38.81
664828886,-0.77,-4.94,8.08,-0.05,0.10,-0.81,18.25,13.25,-41.81
664838860,-0.77,-4.94,8.08,-0.05,0.10,-0.81,18.38,12.69,-39.94
664848545,2.11,-5.94,11.26,-0.05,0.10,-0.81,18.38,12.69,-39.94
664858881,4.06,-5.25,10.46,-0.05,0.10,-0.81,18.38,12.69,-39.94
664868597,-0.34,-7.28,8.66,-0.05,0.10,-0.81,18.38,12.69,-39.94
664878131,-2.18,-8.46,5.86,-0.05,0.10,-0.81,18.38,12.69,-39.94
664888591,-2.18,-8.46,5.86,-0.05,0.10,-0.81,20.12,10.50,-40.25
664899214,-2.18,-8.46,5.86,-0.05,0.10,-0.81,20.31,10.94,-39.50
664908857,-1.15,-7.16,8.28,-0.05,0.10,-0.81,20.31,10.94,-39.50
664918005,-1.15,-7.16,8.28,0.65,-0.03,1.48,20.31,10.94,-39.50
664928883,0.57,-3.64,6.51,0.65,-0.03,1.48,20.31,10.94,-39.50
664938724,2.34,-1.46,12.61,0.65,-0.03,1.48,20.31,10.94,-39.50
664948559,0.88,-3.95,11.22,0.65,-0.03,1.48,20.31,10.94,-39.50
664958859,0.57,-5.09,7.89,0.65,-0.03,1.48,20.31,10.94,-39.50
664968565,-2.49,0.00,10.19,0.65,-0.03,1.48,20.31,10.94,-39.50
664978620,-1.07,-0.38,9.88,0.65,-0.03,1.48,20.31,10.94,-39.50
664988506,-0.30,0.04,10.57,0.65,-0.03,1.48,20.31,10.94,-39.50
664997693,-0.30,0.04,10.57,0.07,0.03,0.57,20.31,10.94,-39.50
665008873,-0.34,2.49,9.93,0.07,0.03,0.57,20.31,10.94,-39.50
665018929,-0.34,2.49,9.93,0.07,0.03,0.57,23.94,5.38,-37.44
665028864,-1.95,2.76,8.39,0.07,0.03,0.57,23.94,5.38,-37.44
665038570,0.19,4.90,9.58,0.07,0.03,0.57,23.94,5.38,-37.44
665048562,-1.65,5.02,9.50,0.07,0.03,0.57,23.94,5.38,-37.44
665059181,-0.15,2.95,10.53,0.07,0.03,0.57,23.94,5.38,-37.44
665068902,-0.27,3.37,9.00,0.07,0.03,0.57,23.94,5.38,-37.44
665078664,-0.88,4.21,5.28,0.07,0.03,0.57,23.94,5.38,-37.44
665088595,1.00,4.10,11.26,0.07,0.03,0.57,23.94,5.38,-37.44
665098884,3.33,5.05,15.86,0.07,0.03,0.57,23.94,5.38,-37.44
665108533,0.50,1.49,15.55,0.07,0.03,0.57,23.94,5.38,-37.44
665118564,-3.75,0.92,8.82,0.07,0.03,0.57,23.94,5.38,-37.44
665128555,-5.78,2.76,4.79,0.07,0.03,0.57,23.94,5.38,-37.44
665138922,-4.45,2.53,3.41,0.07,0.03,0.57,23.94,5.38,-37.44
665148655,-2.14,0.50,4.79,0.07,0.03,0.57,23.94,5.38,-37.44
665158541,0.23,2.03,6.51,0.07,0.03,0.57,23.94,5.38,-37.44
665168870,-2.30,0.30,8.32,0.07,0.03,0.57,23.94,5.38,-37.44
665178635,2.45,-1.46,13.87,0.07,0.03,0.57,23.94,5.38,-37.44
665188543,-0.19,-1.76,13.75,0.07,0.03,0.57,23.94,5.38,-37.44
665198556,-2.49,-2.68,9.81,0.07,0.03,0.57,23.94,5.38,-37.44
665208930,-2.38,-3.87,9.27,0.07,0.03,0.57,23.94,5.38,-37.44
665218528,-1.11,-2.64,9.20,0.07,0.03,0.57,23.94,5.38,-37.44
665228019,-1.11,-2.64,9.20,-0.30,-0.07,-0.57,23.94,5.38,-37.44
665238851,1.53,-3.71,9.58,-0.30,-0.07,-0.57,23.94,5.38,-37.44
665248569,-7.39,-5.67,0.27,-0.30,-0.07,-0.57,23.94,5.38,-37.44
665258526,-3.75,-5.09,1.80,-0.30,-0.07,-0.57,23.94,5.38,-37.44
665268574,2.61,-2.22,8.39,-0.30,-0.07,-0.57,23.94,5.38,-37.44
665279012,4.86,-1.27,13.91,-0.30,-0.07,-0.57,23.94,5.38,-37.44
665288949,3.18,-5.67,16.93,-0.30,-0.07,-0.57,23.94,5.38,-37.44
665299184,3.18,-5.67,16.93,0.04,0.05,-0.21,23.94,5.38,-37.44
665308535,-3.18,-4.41,6.79,0.04,0.05,-0.21,23.94,5.38,-37.44
665318563,-7.21,-2.91,-2.49,0.04,0.05,-0.21,23.94,5.38,-37.44
665328966,-4.17,-3.98,1.07,0.04,0.05,-0.21,23.94,5.38,-37.44
665338524,-4.17,-3.98,1.07,0.04,-0.10,-0.16,23.94,5.38,-37.44
665348561,1.95,-2.11,16.29,0.04,-0.10,-0.16,23.94,5.38,-37.44
665358543,-1.34,-4.37,14.17,0.04,-0.10,-0.16,23.94,5.38,-37.44
665369537,-1.46,-4.21,12.57,0.04,-0.10,-0.16,23.94,5.38,-37.44
665379212,3.52,1.53,9.23,0.04,-0.10,-0.16,23.94,5.38,-37.44
665388633,4.90,-0.11,9.96,0.04,-0.10,-0.16,23.94,5.38,-37.44
665398866,3.87,-1.99,9.50,0.04,-0.10,-0.16,23.94,5.38,-37.44
665409193,3.87,-1.99,9.50,0.05,0.09,0.30,23.94,5.38,-37.44
665418553,0.61,-3.18,10.35,0.05,0.09,0.30,23.94,5.38,-37.44
665428859,-6.47,-4.48,6.74,0.05,0.09,0.30,23.94,5.38,-37.44
665439190,-6.47,-4.48,6.74,0.12,-0.05,0.34,23.94,5.38,-37.44
665449208,-0.84,-2.76,10.84,0.12,-0.05,0.34,23.94,5.38,-37.44
665458538,2.41,-3.56,8.66,0.12,-0.05,0.34,23.94,5.38,-37.44
665469601,5.79,-1.49,9.54,0.12,-0.05,0.34,23.94,5.38,-37.44
665479285,-0.69,-1.61,6.97,0.12,-0.05,0.34,23.94,5.38,-37.44
665488669,1.68,-1.27,13.14,0.12,-0.05,0.34,23.94,5.38,-37.44
665498874,1.15,-1.57,13.33,0.12,-0.05,0.34,23.94,5.38,-37.44
665509167,1.15,-1.57,13.33,-0.13,0.20,-0.16,23.94,5.38,-37.44
665519212,-0.57,-0.08,5.70,-0.13,0.20,-0.16,23.94,5.38,-37.44
665528562,-3.71,-0.19,5.90,-0.13,0.20,-0.16,23.94,5.38,-37.44
665539626,-5.21,-1.00,5.29,-0.13,0.20,-0.16,23.94,5.38,-37.44
665549172,-1.53,2.84,11.34,-0.13,0.20,-0.16,23.94,5.38,-37.44
665558549,-4.56,2.14,11.04,-0.13,0.20,-0.16,23.94,5.38,-37.44
665568891,-6.21,0.84,5.48,-0.13,0.20,-0.16,23.94,5.38,-37.44
665578547,-6.21,0.84,5.48,-0.15,-0.34,-0.72,23.94,5.38,-37.44
665588629,6.55,4.79,11.04,-0.15,-0.34,-0.72,23.94,5.38,-37.44
665598082,2.64,0.50,10.34,-0.15,-0.34,-0.72,23.94,5.38,-37.44
665609542,2.64,0.50,10.34,-0.42,0.28,-0.69,23.94,5.38,-37.44
665619558,-10.99,0.11,10.61,-0.42,0.28,-0.69,23.94,5.38,-37.44
665628586,1.30,-2.57,12.95,-0.42,0.28,-0.69,23.94,5.38,-37.44
665638866,0.61,-0.77,9.96,-0.42,0.28,-0.69,23.94,5.38,-37.44
665648561,0.61,-0.77,9.96,-0.16,-0.08,-0.56,23.94,5.38,-37.44
665659228,-0.04,-1.65,10.92,-0.16,-0.08,-0.56,23.94,5.38,-37.44
665668570,0.54,-3.64,10.65,-0.16,-0.08,-0.56,23.94,5.38,-37.44
665679631,-0.77,-1.84,11.96,-0.16,-0.08,-0.56,23.94,5.38,-37.44
665689257,-0.65,-3.64,7.70,-0.16,-0.08,-0.56,23.94,5.38,-37.44
665698620,0.77,-5.44,6.40,-0.16,-0.08,-0.56,23.94,5.38,-37.44
665708884,1.34,-3.91,8.58,-0.16,-0.08,-0.56,23.94,5.38,-37.44
665719156,1.34,-3.91,8.58,0.01,0.08,-0.03,23.94,5.38,-37.44
665728647,0.50,-5.98,11.64,0.01,0.08,-0.03,23.94,5.38,-37.44
665738882,-1.99,-3.56,6.79,0.01,0.08,-0.03,23.94,5.38,-37.44
665749217,-1.99,-3.56,6.79,0.12,-0.05,0.04,23.94,5.38,-37.44
665759183,0.61,-3.29,11.26,0.12,-0.05,0.04,23.94,5.38,-37.44
665768578,1.07,-1.42,12.48,0.12,-0.05,0.04,23.94,5.38,-37.44
665778867,1.99,-0.69,11.53,0.12,-0.05,0.04,23.94,5.38,-37.44
665789245,1.99,-0.69,11.53,-0.03,0.09,-0.20,23.94,5.38,-37.44
665798632,-1.00,0.27,10.84,-0.03,0.09,-0.20,23.94,5.38,-37.44
665808883,1.80,2.22,8.73,-0.03,0.09,-0.20,23.94,5.38,-37.44
665819193,1.80,2.22,8.73,-0.15,0.09,-0.32,23.94,5.38,-37.44
665829215,-1.80,2.64,8.66,-0.15,0.09,-0.32,23.94,5.38,-37.44
665838511,-1.15,2.87,11.45,-0.15,0.09,-0.32,23.94,5.38,-37.44
665849221,-2.49,0.77,9.04,-0.15,0.09,-0.32,23.94,5.38,-37.44
665859489,3.75,3.07,10.77,-0.15,0.09,-0.32,23.94,5.38,-37.44
665868596,-3.29,0.38,10.07,-0.15,0.09,-0.32,23.94,5.38,-37.44
665879640,-3.68,-0.11,7.01,-0.15,0.09,-0.32,23.94,5.38,-37.44
665889219,-3.68,-0.11,7.01,-0.21,-0.07,-0.48,23.94,5.38,-37.44
665899286,3.71,-3.10,12.34,-0.21,-0.07,-0.48,23.94,5.38,-37.44
665909220,-3.41,-4.90,8.66,-0.21,-0.07,-0.48,23.94,5.38,-37.44
665919571,3.75,-2.57,10.69,-0.21,-0.07,-0.48,23.94,5.38,-37.44
665929206,3.75,-2.57,10.69,-0.22,0.32,-0.46,23.94,5.38,-37.44
665939307,-2.87,-1.68,8.20,-0.22,0.32,-0.46,23.94,5.38,-37.44
665949537,0.34,-2.11,7.82,-0.22,0.32,-0.46,23.94,5.38,-37.44
665959178,0.34,-2.11,7.82,-0.24,0.23,-0.65,23.94,5.38,-37.44
665969239,-1.76,-0.57,8.43,-0.24,0.23,-0.65,23.94,5.38,-37.44
665979203,-1.07,-2.07,9.88,-0.24,0.23,-0.65,23.94,5.38,-37.44
665988850,1.42,1.72,10.07,-0.24,0.23,-0.65,23.94,5.38,-37.44
665998089,1.42,1.72,10.07,-0.21,0.06,-0.94,23.94,5.38,-37.44
666007691,4.02,3.60,11.57,-0.21,0.06,-0.94,23.94,5.38,-37.44
666021085,4.02,3.60,11.57,-0.24,0.16,-0.92,23.94,5.38,-37.44
666030213,-5.44,-0.34,7.43,-0.24,0.16,-0.92,23.94,5.38,-37.44
666038556,-5.09,-0.34,5.02,-0.24,0.16,-0.92,23.94,5.38,-37.44
666049204,-4.45,1.30,4.90,-0.24,0.16,-0.92,23.94,5.38,-37.44
666059477,0.77,2.99,8.12,-0.24,0.16,-0.92,23.94,5.38,-37.44
666069218,10.34,0.46,22.71,-0.24,0.16,-0.92,23.94,5.38,-37.44
666079349,4.33,-3.68,18.85,-0.24,0.16,-0.92,23.94,5.38,-37.44
666089571,-7.39,-6.36,11.45,-0.24,0.16,-0.92,23.94,5.38,-37.44
666099197,-7.39,-6.36,11.45,-0.01,0.10,-0.70,23.94,5.38,-37.44
666108627,0.38,-0.34,5.29,-0.01,0.10,-0.70,23.94,5.38,-37.44
666119512,0.77,-1.72,7.93,-0.01,0.10,-0.70,23.94,5.38,-37.44
666129275,0.77,-1.72,7.93,-0.04,0.10,-0.50,23.94,5.38,-37.44
666139216,-4.33,-3.56,7.85,-0.04,0.10,-0.50,23.94,5.38,-37.44
666149177,-3.03,-3.83,8.50,-0.04,0.10,-0.50,23.94,5.38,-37.44
666159526,7.24,-3.83,17.01,-0.04,0.10,-0.50,23.94,5.38,-37.44
666169731,7.24,-3.83,17.01,0.17,0.25,0.13,23.94,5.38,-37.44
666178574,3.22,-6.02,9.35,0.17,0.25,0.13,23.94,5.38,-37.44
666189510,-8.20,-8.24,6.05,0.17,0.25,0.13,23.94,5.38,-37.44
666199277,-8.20,-8.24,6.05,0.38,0.00,0.25,23.94,5.38,-37.44
666209280,5.90,-1.68,10.88,0.38,0.00,0.25,23.94,5.38,-37.44
666219179,1.57,-4.94,4.14,0.38,0.00,0.25,23.94,5.38,-37.44
666229540,4.90,-2.22,8.04,0.38,0.00,0.25,23.94,5.38,-37.44
666239211,4.90,-2.22,8.04,0.26,-0.03,0.24,23.94,5.38,-37.44
666248548,4.75,-3.22,11.64,0.26,-0.03,0.24,23.94,5.38,-37.44
666259531,-5.86,-3.98,6.66,0.26,-0.03,0.24,23.94,5.38,-37.44
666269190,-5.86,-3.98,6.66,0.30,-0.05,0.38,23.94,5.38,-37.44
666279330,-4.86,0.96,0.73,0.30,-0.05,0.38,23.94,5.38,-37.44
666289239,0.11,2.53,3.14,0.30,-0.05,0.38,23.94,5.38,-37.44
666299538,-3.18,0.27,3.07,0.30,-0.05,0.38,23.94,5.38,-37.44
666309247,-3.18,0.27,3.07,-0.01,-0.16,0.02,23.94,5.38,-37.44
666319251,1.07,-0.46,8.58,-0.01,-0.16,0.02,23.94,5.38,-37.44
666329548,3.68,1.46,6.89,-0.01,-0.16,0.02,23.94,5.38,-37.44
666340731,3.68,1.46,6.89,-0.12,0.07,-0.16,23.94,5.38,-37.44
666349226,-14.17,-3.87,10.27,-0.12,0.07,-0.16,23.94,5.38,-37.44
666359167,4.29,-2.18,23.52,-0.12,0.07,-0.16,23.94,5.38,-37.44
666369605,6.55,-3.18,24.48,-0.12,0.07,-0.16,23.94,5.38,-37.44
666379935,6.55,-3.18,24.48,-0.14,-0.02,-0.53,23.94,5.38,-37.44
666389189,7.63,1.88,4.56,-0.14,-0.02,-0.53,23.94,5.38,-37.44
666399510,3.71,0.30,9.89,-0.14,-0.02,-0.53,23.94,5.38,-37.44
666409906,3.71,0.30,9.89,-0.26,0.22,-0.73,23.94,5.38,-37.44
666419236,-6.21,-5.71,22.79,-0.26,0.22,-0.73,23.94,5.38,-37.44
666429209,-6.28,-4.06,11.99,-0.26,0.22,-0.73,23.94,5.38,-37.44
666439509,1.49,-0.34,12.61,-0.26,0.22,-0.73,23.94,5.38,-37.44
666449874,1.49,-0.34,12.61,-0.30,0.38,-0.82,23.94,5.38,-37.44
666459872,-6.89,0.34,9.81,-0.30,0.38,-0.82,23.94,5.38,-37.44
666469536,-3.83,4.25,9.35,-0.30,0.38,-0.82,23.94,5.38,-37.44
666480470,-3.83,4.25,9.35,-0.39,0.21,-0.79,23.94,5.38,-37.44
666488593,-0.96,-1.53,3.60,-0.39,0.21,-0.79,23.94,5.38,-37.44
666498555,-6.78,-1.07,3.91,-0.39,0.21,-0.79,23.94,5.38,-37.44
666508018,-6.78,-1.07,3.91,-0.31,0.23,-0.71,23.94,5.38,-37.44
666520509,-6.78,-1.07,3.91,-0.31,0.23,-0.71,12.94,19.31,-37.19
666529587,5.98,3.10,6.89,-0.31,0.23,-0.71,12.94,19.31,-37.19
666539283,5.98,3.10,6.89,-0.11,0.12,-0.45,12.94,19.31,-37.19
666549607,5.98,3.10,6.89,-0.22,0.30,-0.47,12.94,19.31,-37.19
666559782,-5.17,-4.64,9.27,-0.22,0.30,-0.47,12.94,19.31,-37.19
666569574,3.52,-2.18,14.79,-0.22,0.30,-0.47,12.94,19.31,-37.19
666579904,3.52,-2.18,14.79,-0.18,0.24,-0.58,12.94,19.31,-37.19
666589820,7.31,-0.11,3.79,-0.18,0.24,-0.58,12.94,19.31,-37.19
666599209,4.71,-3.95,11.04,-0.18,0.24,-0.58,12.94,19.31,-37.19
666609643,16.89,0.42,28.16,-0.18,0.24,-0.58,12.94,19.31,-37.19
666619862,16.89,0.42,28.16,-0.37,1.04,-0.48,12.94,19.31,-37.19
666629630,-9.61,-6.02,13.64,-0.37,1.04,-0.48,12.94,19.31,-37.19
666639486,-16.01,-7.55,6.21,-0.37,1.04,-0.48,12.94,19.31,-37.19
666649819,-16.01,-7.55,6.21,-0.24,0.69,-0.75,12.94,19.31,-37.19
666659060,-10.80,-0.15,-4.21,-0.24,0.69,-0.75,12.94,19.31,-37.19
666669207,-10.88,-0.84,-8.43,-0.24,0.69,-0.75,12.94,19.31,-37.19
666679662,-10.88,0.30,-7.24,-0.24,0.69,-0.75,12.94,19.31,-37.19
666689606,-10.88,0.30,-7.24,-0.03,-0.34,-0.71,12.94,19.31,-37.19
666699634,-1.00,-4.94,10.07,-0.03,-0.34,-0.71,12.94,19.31,-37.19
666709543,2.49,-0.73,20.23,-0.03,-0.34,-0.71,12.94,19.31,-37.19
666719764,2.49,-0.73,20.23,0.22,-0.25,-0.25,12.94,19.31,-37.19
666728970,12.98,4.90,15.79,0.22,-0.25,-0.25,12.94,19.31,-37.19
666739201,11.76,3.41,9.50,0.22,-0.25,-0.25,12.94,19.31,-37.19
666749509,3.14,0.04,4.56,0.22,-0.25,-0.25,12.94,19.31,-37.19
666759881,3.14,0.04,4.56,-0.09,-0.19,-0.59,12.94,19.31,-37.19
666769732,7.62,-2.91,9.92,-0.09,-0.19,-0.59,12.94,19.31,-37.19
666778860,4.14,-2.30,7.55,-0.09,-0.19,-0.59,12.94,19.31,-37.19
666788005,4.14,-2.30,7.55,0.03,-0.10,-0.76,12.94,19.31,-37.19
666798423,4.14,-2.30,7.55,0.11,-0.19,-0.74,12.94,19.31,-37.19
666809502,4.14,-2.30,7.55,0.11,-0.19,-0.74,10.25,21.19,-35.75
666819559,-1.99,0.57,9.61,0.11,-0.19,-0.74,10.25,21.19,-35.75
666829733,-1.99,0.57,9.61,-0.05,-0.02,-0.72,10.25,21.19,-35.75
666839615,-5.63,-1.49,10.88,-0.05,-0.02,-0.72,10.25,21.19,-35.75
666850322,-3.87,-0.11,9.77,-0.05,-0.02,-0.72,10.25,21.19,-35.75
666859572,-3.87,-0.11,9.77,-0.08,-0.06,-0.73,10.25,21.19,-35.75
666868947,-3.79,0.15,8.93,-0.08,-0.06,-0.73,10.25,21.19,-35.75
666879996,-3.68,0.65,9.46,-0.08,-0.06,-0.73,10.25,21.19,-35.75
666889208,-3.68,0.65,9.46,-0.10,-0.04,-0.74,10.25,21.19,-35.75
666899197,-3.68,0.65,9.46,-0.14,0.04,-0.70,10.25,21.19,-35.75
666909486,-11.46,-1.04,10.54,-0.14,0.04,-0.70,10.25,21.19,-35.75
666919525,-6.44,-0.92,14.55,-0.14,0.04,-0.70,10.25,21.19,-35.75
666929644,-6.44,-0.92,14.55,0.04,-0.59,-0.80,10.25,21.19,-35.75
666939743,16.32,4.37,3.56,0.04,-0.59,-0.80,10.25,21.19,-35.75
666949975,10.84,-0.15,2.68,0.04,-0.59,-0.80,10.25,21.19,-35.75
666959748,10.84,-0.15,2.68,-0.28,0.34,-0.85,10.25,21.19,-35.75
666969671,10.84,-0.15,2.68,0.02,-0.07,-0.87,10.25,21.19,-35.75
666979407,7.24,0.30,12.99,0.02,-0.07,-0.87,10.25,21.19,-35.75
666990228,7.36,-1.42,4.71,0.02,-0.07,-0.87,10.25,21.19,-35.75
666999595,7.36,-1.42,4.71,-0.19,0.24,-0.93,10.25,21.19,-35.75
667008629,-1.46,-9.73,11.45,-0.19,0.24,-0.93,10.25,21.19,-35.75
667018536,-6.02,-5.55,11.26,-0.19,0.24,-0.93,10.25,21.19,-35.75
667030532,-6.02,-5.55,11.26,0.13,0.19,-0.36,10.25,21.19,-35.75
667039937,-2.41,-1.80,7.97,0.13,0.19,-0.36,10.25,21.19,-35.75
667049744,-2.14,-4.25,7.32,0.13,0.19,-0.36,10.25,21.19,-35.75
667059784,-2.14,-4.25,7.32,0.22,0.24,0.14,10.25,21.19,-35.75
667069656,-2.14,-4.25,7.32,0.21,0.31,0.25,10.25,21.19,-35.75
667079719,-1.46,-1.19,10.61,0.21,0.31,0.25,10.25,21.19,-35.75
667090248,-0.77,-1.57,10.77,0.21,0.31,0.25,10.25,21.19,-35.75
667099803,-0.77,-1.57,10.77,0.11,0.28,0.26,10.25,21.19,-35.75
667108906,-0.77,-1.57,10.77,0.14,0.16,0.22,10.25,21.19,-35.75
667119882,-1.23,-1.95,8.96,0.14,0.16,0.22,10.25,21.19,-35.75
667130122,-0.27,-1.46,8.08,0.14,0.16,0.22,10.25,21.19,-35.75
667139623,-0.27,-1.46,8.08,0.02,0.10,-0.08,10.25,21.19,-35.75
667149699,1.34,-1.84,9.50,0.02,0.10,-0.08,10.25,21.19,-35.75
667160177,-0.11,-2.87,9.04,0.02,0.10,-0.08,10.25,21.19,-35.75
667169613,-0.11,-2.87,9.04,-0.07,0.19,-0.55,10.25,21.19,-35.75
667178974,1.19,-3.22,9.43,-0.07,0.19,-0.55,10.25,21.19,-35.75
667190026,2.07,-1.91,9.77,-0.07,0.19,-0.55,10.25,21.19,-35.75
667199731,2.07,-1.91,9.77,-0.14,0.26,-0.93,10.25,21.19,-35.75
667209620,2.07,-1.91,9.77,-0.17,0.26,-1.01,10.25,21.19,-35.75
667219614,-1.53,1.30,10.99,-0.17,0.26,-1.01,10.25,21.19,-35.75
667230187,-1.15,1.19,11.30,-0.17,0.26,-1.01,10.25,21.19,-35.75
667239846,-1.15,1.19,11.30,-0.23,0.15,-1.08,10.25,21.19,-35.75
667248965,0.69,2.91,12.34,-0.23,0.15,-1.08,10.25,21.19,-35.75
667260069,-0.50,1.99,11.72,-0.23,0.15,-1.08,10.25,21.19,-35.75
667268956,-0.50,1.99,11.72,-0.26,0.14,-0.93,10.25,21.19,-35.75
667279735,-0.50,1.99,11.72,-0.25,0.17,-0.89,10.25,21.19,-35.75
667289606,-0.19,-0.15,8.12,-0.25,0.17,-0.89,10.25,21.19,-35.75
667300076,-0.27,-0.69,8.39,-0.25,0.17,-0.89,10.25,21.19,-35.75
667309585,-0.27,-0.69,8.39,-0.20,0.17,-0.76,10.25,21.19,-35.75
667318940,2.03,-3.41,10.91,-0.20,0.17,-0.76,10.25,21.19,-35.75
667330087,2.45,-4.18,11.38,-0.20,0.17,-0.76,10.25,21.19,-35.75
667339679,2.45,-4.18,11.38,-0.14,0.29,-0.64,10.25,21.19,-35.75
667348550,2.45,-4.18,11.38,-0.10,0.26,-0.62,10.25,21.19,-35.75
667358523,-0.23,-3.95,8.54,-0.10,0.26,-0.62,10.25,21.19,-35.75
667369652,-0.23,-3.95,8.54,-0.07,0.24,-0.64,10.25,21.19,-35.75
667379905,0.15,-3.91,8.24,-0.07,0.24,-0.64,10.25,21.19,-35.75
667389678,-0.50,-3.07,9.50,-0.07,0.24,-0.64,10.25,21.19,-35.75
667400019,0.11,-2.61,10.39,-0.07,0.24,-0.64,10.25,21.19,-35.75
667409588,0.11,-2.61,10.39,-0.03,0.22,-0.59,10.25,21.19,-35.75
667419636,0.11,-2.61,10.39,-0.04,0.29,-0.57,10.25,21.19,-35.75
667429216,0.61,-0.65,9.30,-0.04,0.29,-0.57,10.25,21.19,-35.75
667439998,-0.46,-0.38,9.30,-0.04,0.29,-0.57,10.25,21.19,-35.75
667449593,-0.46,-0.38,9.30,-0.05,0.26,-0.54,10.25,21.19,-35.75
667459602,-0.50,0.73,10.11,-0.05,0.26,-0.54,10.25,21.19,-35.75
667469946,0.84,1.04,9.46,-0.05,0.26,-0.54,10.25,21.19,-35.75
667479710,0.84,1.04,9.46,-0.08,0.20,-0.57,10.25,21.19,-35.75
667488956,0.84,1.04,9.46,-0.09,0.25,-0.59,10.25,21.19,-35.75
667499208,0.11,-1.65,10.38,-0.09,0.25,-0.59,10.25,21.19,-35.75
667509910,-0.92,-2.03,10.61,-0.09,0.25,-0.59,10.25,21.19,-35.75
667519586,-0.92,-2.03,10.61,-0.06,0.29,-0.74,10.25,21.19,-35.75
667529611,-0.73,-1.30,9.12,-0.06,0.29,-0.74,10.25,21.19,-35.75
667540007,0.69,-1.04,8.84,-0.06,0.29,-0.74,10.25,21.19,-35.75
667549604,0.69,-1.04,8.84,-0.15,0.26,-0.97,10.25,21.19,-35.75
667558937,0.69,-1.04,8.84,-0.20,0.26,-1.03,10.25,21.19,-35.75
667569563,1.91,-1.00,10.61,-0.20,0.26,-1.03,10.25,21.19,-35.75
667579597,1.91,-1.00,10.61,-0.21,0.26,-1.07,10.25,21.19,-35.75
667588541,1.91,-1.00,10.61,-0.17,0.26,-1.04,10.25,21.19,-35.75
667599351,2.91,-0.84,12.79,-0.17,0.26,-1.04,10.25,21.19,-35.75
667609946,2.91,-0.84,12.79,-0.13,0.35,-1.00,10.25,21.19,-35.75
667619580,2.91,-0.84,12.79,-0.12,0.40,-0.98,10.25,21.19,-35.75
667628950,2.91,-0.84,12.79,-0.09,0.36,-0.99,10.25,21.19,-35.75
667639589,1.53,-3.03,9.12,-0.09,0.36,-0.99,10.25,21.19,-35.75
667649605,1.53,-3.03,9.12,-0.05,0.40,-1.04,10.25,21.19,-35.75
667659621,1.53,-3.03,9.12,0.00,0.41,-1.04,10.25,21.19,-35.75
667669670,1.68,-3.45,11.38,0.00,0.41,-1.04,10.25,21.19,-35.75
667680783,1.42,-3.75,10.88,0.00,0.41,-1.04,10.25,21.19,-35.75
667689802,1.42,-3.75,10.88,0.06,0.44,-0.96,10.25,21.19,-35.75
667698951,1.42,-3.75,10.88,0.09,0.47,-0.88,10.25,21.19,-35.75
667709888,-4.10,0.15,11.19,0.09,0.47,-0.88,10.25,21.19,-35.75
667719587,-4.10,0.15,11.19,0.04,0.30,-0.76,10.25,21.19,-35.75
667729634,-4.10,0.15,11.19,0.03,0.41,-0.64,10.25,21.19,-35.75
667739580,1.42,-2.26,5.90,0.03,0.41,-0.64,10.25,21.19,-35.75
667749901,-0.65,2.18,8.43,0.03,0.41,-0.64,10.25,21.19,-35.75
667759589,-0.65,2.18,8.43,0.21,0.50,-0.29,10.25,21.19,-35.75
667769670,-1.46,-1.23,11.91,0.21,0.50,-0.29,10.25,21.19,-35.75
667779895,-0.92,-4.21,13.29,0.21,0.50,-0.29,10.25,21.19,-35.75
667789591,-0.92,-4.21,13.29,0.08,0.33,-0.38,10.25,21.19,-35.75
667799684,-0.92,-4.21,13.29,0.14,0.28,-0.38,10.25,21.19,-35.75
667809231,-0.15,-2.26,5.36,0.14,0.28,-0.38,10.25,21.19,-35.75
667819908,-3.48,-2.68,6.63,0.14,0.28,-0.38,10.25,21.19,-35.75
667829604,-3.48,-2.68,6.63,0.20,0.34,-0.40,10.25,21.19,-35.75
667838581,0.23,-3.56,11.45,0.20,0.34,-0.40,10.25,21.19,-35.75
667849242,2.68,-3.41,12.68,0.20,0.34,-0.40,10.25,21.19,-35.75
667859911,2.68,-3.41,12.68,0.19,0.41,-0.42,10.25,21.19,-35.75
667869663,2.68,-3.41,12.68,0.22,0.38,-0.41,10.25,21.19,-35.75
667879289,-1.38,-1.80,7.09,0.22,0.38,-0.41,10.25,21.19,-35.75
667889928,-1.38,-0.96,8.96,0.22,0.38,-0.41,10.25,21.19,-35.75
667899626,-1.38,-0.96,8.96,0.12,0.28,-0.57,10.25,21.19,-35.75
667909612,0.11,-1.07,9.58,0.12,0.28,-0.57,10.25,21.19,-35.75
667919908,0.15,-0.42,9.88,0.12,0.28,-0.57,10.25,21.19,-35.75
667929608,0.15,-0.42,9.88,0.14,0.28,-0.61,10.25,21.19,-35.75
667938933,0.15,-0.42,9.88,0.11,0.26,-0.63,10.25,21.19,-35.75
667949307,0.00,1.76,10.19,0.11,0.26,-0.63,10.25,21.19,-35.75
667959885,-0.50,1.04,9.20,0.11,0.26,-0.63,10.25,21.19,-35.75
667969617,-0.50,1.04,9.20,0.04,0.28,-0.67,10.25,21.19,-35.75
667979653,0.50,0.46,10.80,0.04,0.28,-0.67,10.25,21.19,-35.75
667989911,0.61,-0.88,11.41,0.04,0.28,-0.67,10.25,21.19,-35.75
667999617,0.61,-0.88,11.41,0.02,0.29,-0.75,10.25,21.19,-35.75
668009019,0.61,-0.88,11.41,0.04,0.26,-0.76,10.25,21.19,-35.75
668019512,1.49,-2.95,10.38,0.04,0.26,-0.76,10.25,21.19,-35.75
668029613,1.49,-2.95,10.38,0.04,0.32,-0.77,10.25,21.19,-35.75
668039627,1.49,-2.95,10.38,0.09,0.34,-0.71,10.25,21.19,-35.75
668049689,1.04,-3.52,10.61,0.09,0.34,-0.71,10.25,21.19,-35.75
668059892,-0.30,-3.18,8.93,0.09,0.34,-0.71,10.25,21.19,-35.75
668069604,-0.30,-3.18,8.93,0.20,0.37,-0.55,10.25,21.19,-35.75
667879289,-1.38,-1.80,7.09,0.22,0.38,-0.41,10.25,21.19,-35.75
