timestamp,accX,accY,accZ,gyroX,gyroY,gyroZ,magX,magY,magZ
Straight
2305927219,1.65,-1.76,3.79,0.33,-0.55,-0.24,24.44,8.69,-42.38
2305941819,1.65,-1.76,3.79,-0.03,0.38,0.09,24.44,8.69,-42.38
2305946316,1.04,-1.15,6.16,-0.03,0.38,0.09,24.44,8.69,-42.38
2305955118,1.04,-1.15,6.16,-0.01,0.04,0.09,24.44,8.69,-42.38
2305965358,1.04,-1.15,6.16,-0.01,0.04,0.09,15.75,-8.44,-40.94
2305976326,1.04,-1.15,6.16,-0.04,0.08,0.05,15.75,-8.44,-40.94
2305985979,1.04,-1.15,6.16,-0.01,-0.04,0.02,15.75,-8.44,-40.94
2305996066,1.04,-1.15,6.16,0.01,-0.09,-0.00,15.75,-8.44,-40.94
2306006373,1.04,-1.15,6.16,-0.03,-0.05,-0.04,15.75,-8.44,-40.94
2306015996,1.04,-1.15,6.16,-0.08,0.06,-0.07,15.75,-8.44,-40.94
2306026033,1.04,-1.15,6.16,-0.09,0.08,-0.11,15.75,-8.44,-40.94
2306036366,1.04,-1.15,6.16,-0.05,-0.03,-0.15,15.75,-8.44,-40.94
2306046346,1.04,-1.15,6.16,0.00,-0.10,-0.16,15.75,-8.44,-40.94
2306056086,1.04,-1.15,6.16,-0.01,0.03,-0.15,15.75,-8.44,-40.94
2306066019,1.04,-1.15,6.16,0.00,0.13,-0.13,15.75,-8.44,-40.94
2306076333,1.04,-1.15,6.16,0.01,0.07,-0.12,15.75,-8.44,-40.94
2306086000,1.04,-1.15,6.16,-0.01,-0.04,-0.16,15.75,-8.44,-40.94
2306096045,1.04,-1.15,6.16,-0.02,-0.00,-0.15,15.75,-8.44,-40.94
2306106276,1.04,-1.15,6.16,0.02,0.11,-0.08,15.75,-8.44,-40.94
2306116368,1.04,-1.15,6.16,0.03,0.07,-0.05,15.75,-8.44,-40.94
2306127580,1.04,-1.15,6.16,0.02,-0.06,-0.07,15.75,-8.44,-40.94
2306136087,1.04,-1.15,6.16,0.04,-0.07,-0.05,15.75,-8.44,-40.94
2306146342,1.04,-1.15,6.16,0.08,-0.03,0.01,15.75,-8.44,-40.94
2306155972,1.04,-1.15,6.16,0.11,0.03,0.04,15.75,-8.44,-40.94
2306166038,1.04,-1.15,6.16,0.09,0.11,0.05,15.75,-8.44,-40.94
2306176242,1.04,-1.15,6.16,0.07,0.02,0.01,15.75,-8.44,-40.94
2306186432,1.04,-1.15,6.16,0.04,-0.01,-0.01,15.75,-8.44,-40.94
2306196025,1.04,-1.15,6.16,0.06,0.01,0.03,15.75,-8.44,-40.94
2306206119,1.04,-1.15,6.16,0.07,0.02,0.04,15.75,-8.44,-40.94
2306216340,1.04,-1.15,6.16,0.06,-0.02,0.04,15.75,-8.44,-40.94
2306226001,1.04,-1.15,6.16,0.12,-0.10,0.06,15.75,-8.44,-40.94
2306236108,1.04,-1.15,6.16,0.18,-0.06,0.09,15.75,-8.44,-40.94
2306246286,1.04,-1.15,6.16,0.13,0.15,0.10,15.75,-8.44,-40.94
2306256349,1.04,-1.15,6.16,0.09,0.13,0.07,15.75,-8.44,-40.94
2306266017,1.04,-1.15,6.16,0.09,-0.02,0.05,15.75,-8.44,-40.94
2306276031,1.04,-1.15,6.16,0.04,-0.07,0.01,15.75,-8.44,-40.94
2306286377,1.04,-1.15,6.16,0.01,0.05,-0.01,15.75,-8.44,-40.94
2306295989,1.04,-1.15,6.16,0.07,0.04,0.03,15.75,-8.44,-40.94
2306306052,1.04,-1.15,6.16,0.07,0.04,0.09,15.75,-8.44,-40.94
2306316283,1.04,-1.15,6.16,0.09,-0.03,0.12,15.75,-8.44,-40.94
2306326425,1.04,-1.15,6.16,0.12,-0.07,0.19,15.75,-8.44,-40.94
2306336044,1.04,-1.15,6.16,0.11,0.04,0.28,15.75,-8.44,-40.94
2306345952,1.04,-1.15,6.16,0.09,0.04,0.31,15.75,-8.44,-40.94
2306356308,1.04,-1.15,6.16,0.06,0.06,0.31,15.75,-8.44,-40.94
2306366003,1.04,-1.15,6.16,0.04,-0.01,0.29,15.75,-8.44,-40.94
2306376093,1.04,-1.15,6.16,0.06,-0.10,0.28,15.75,-8.44,-40.94
2306386079,1.04,-1.15,6.16,0.02,-0.02,0.27,15.75,-8.44,-40.94
2306396357,-0.27,-1.07,9.34,0.02,-0.02,0.27,15.75,-8.44,-40.94
2306406061,-0.27,-1.07,9.34,-0.10,0.02,0.16,15.75,-8.44,-40.94
2306415719,-0.27,-1.07,9.34,-0.10,-0.00,0.15,15.75,-8.44,-40.94
2306426298,-0.27,-1.07,9.34,-0.07,-0.07,0.15,15.75,-8.44,-40.94
2306436126,-0.27,-1.07,9.34,-0.10,-0.07,0.10,15.75,-8.44,-40.94
2306446057,-0.27,-1.07,9.34,-0.12,0.02,0.10,15.75,-8.44,-40.94
2306456317,-0.27,-1.07,9.34,-0.10,-0.04,0.10,15.75,-8.44,-40.94
2306466037,-0.27,-1.07,9.34,-0.11,0.04,0.07,15.75,-8.44,-40.94
2306475982,-0.27,-1.07,9.34,-0.11,0.01,0.06,15.75,-8.44,-40.94
2306485643,-0.27,-1.07,9.34,-0.11,-0.01,0.06,15.75,-8.44,-40.94
2306496346,-0.27,-1.07,9.34,-0.16,0.00,0.02,15.75,-8.44,-40.94
2306506045,-0.27,-1.07,9.34,-0.13,-0.19,-0.02,15.75,-8.44,-40.94
2306516014,-0.27,-1.07,9.34,-0.14,-0.04,0.02,15.75,-8.44,-40.94
2306526484,-0.27,-1.07,9.34,-0.14,-0.00,0.02,15.75,-8.44,-40.94
2306536075,-0.27,-1.07,9.34,-0.12,-0.04,0.02,15.75,-8.44,-40.94
2306546053,-0.27,-1.07,9.34,-0.10,0.03,0.07,15.75,-8.44,-40.94
2306555609,-0.27,-1.07,9.34,-0.09,-0.05,0.08,15.75,-8.44,-40.94
2306566329,-0.27,-1.07,9.34,-0.12,-0.05,0.04,15.75,-8.44,-40.94
2306576085,-0.27,-1.07,9.34,-0.16,0.03,0.02,15.75,-8.44,-40.94
2306586032,-0.27,-1.07,9.34,-0.15,-0.15,-0.01,15.75,-8.44,-40.94
2306596347,-0.27,-1.07,9.34,-0.19,-0.04,-0.05,15.75,-8.44,-40.94
2306606015,-0.27,-1.07,9.34,-0.18,-0.04,-0.07,15.75,-8.44,-40.94
2306616080,-0.27,-1.07,9.34,-0.18,-0.18,-0.12,15.75,-8.44,-40.94
2306625663,-0.27,-1.07,9.34,-0.25,0.01,-0.19,15.75,-8.44,-40.94
2306636377,-0.27,-1.07,9.34,-0.25,0.18,-0.20,15.75,-8.44,-40.94
2306646087,-0.27,-1.07,9.34,-0.22,-0.02,-0.28,15.75,-8.44,-40.94
2306656029,-0.27,-1.07,9.34,-0.25,-0.11,-0.41,15.75,-8.44,-40.94
2306666333,-0.27,-1.07,9.34,-0.27,0.03,-0.45,15.75,-8.44,-40.94
2306676002,-0.27,-1.07,9.34,-0.25,0.12,-0.45,15.75,-8.44,-40.94
2306686012,-0.27,-1.07,9.34,-0.24,0.10,-0.51,15.75,-8.44,-40.94
2306696879,-0.27,-1.07,9.34,-0.21,0.00,-0.55,15.75,-8.44,-40.94
2306706301,-0.27,-1.07,9.34,-0.18,-0.03,-0.54,15.75,-8.44,-40.94
2306716089,-0.27,-1.07,9.34,-0.13,0.00,-0.49,15.75,-8.44,-40.94
2306726087,-0.27,-1.07,9.34,-0.06,0.07,-0.39,15.75,-8.44,-40.94
2306737360,-0.27,-1.07,9.34,-0.04,0.11,-0.30,15.75,-8.44,-40.94
2306746022,-0.27,-1.07,9.34,-0.01,0.06,-0.25,15.75,-8.44,-40.94
2306755976,-0.27,-1.07,9.34,0.02,-0.05,-0.21,15.75,-8.44,-40.94
2306766812,-0.27,-1.07,9.34,0.02,-0.07,-0.17,15.75,-8.44,-40.94
2306776330,-0.27,-1.07,9.34,0.02,0.04,-0.12,15.75,-8.44,-40.94
2306786097,-0.27,-1.07,9.34,0.04,0.09,-0.08,15.75,-8.44,-40.94
2306795831,-0.27,-1.07,9.34,0.08,-0.04,-0.08,15.75,-8.44,-40.94
2306806333,-0.27,-1.07,9.34,0.09,0.10,-0.03,15.75,-8.44,-40.94
2306816038,-0.27,-1.07,9.34,0.12,0.12,0.02,15.75,-8.44,-40.94
2306826009,-0.27,-1.07,9.34,0.16,-0.05,0.03,15.75,-8.44,-40.94
2306836019,-0.27,-1.07,9.34,0.15,0.08,0.06,15.75,-8.44,-40.94
2306847718,-0.27,-1.07,9.34,0.17,-0.01,0.06,15.75,-8.44,-40.94
2306856806,-0.27,-1.07,9.34,0.19,-0.06,0.09,15.75,-8.44,-40.94
2306865666,-0.27,-1.07,9.34,0.17,0.11,0.16,15.75,-8.44,-40.94
2306876357,-0.27,-1.07,9.34,0.14,0.09,0.17,15.75,-8.44,-40.94
2306885985,-0.27,-1.07,9.34,0.14,-0.06,0.14,15.75,-8.44,-40.94
2306896003,-0.27,-1.07,9.34,0.14,-0.08,0.15,15.75,-8.44,-40.94
2306906003,-0.27,-1.07,9.34,0.13,-0.05,0.19,15.75,-8.44,-40.94
2306917053,1.04,-1.65,11.92,0.13,-0.05,0.19,15.75,-8.44,-40.94
2306927537,1.04,-1.65,11.92,0.12,-0.00,0.17,15.75,-8.44,-40.94
2306935709,1.04,-1.65,11.92,0.13,0.00,0.17,15.75,-8.44,-40.94
2306946993,1.04,-1.65,11.92,0.08,0.04,0.15,15.75,-8.44,-40.94
2306956669,1.04,-1.65,11.92,0.07,0.04,0.12,15.75,-8.44,-40.94
2306966619,1.04,-1.65,11.92,0.06,0.12,0.11,15.75,-8.44,-40.94
2306976940,1.04,-1.65,11.92,0.06,0.03,0.09,15.75,-8.44,-40.94
2306986626,1.04,-1.65,11.92,0.09,-0.05,0.08,15.75,-8.44,-40.94
2306996809,1.04,-1.65,11.92,0.09,-0.03,0.09,15.75,-8.44,-40.94
2307005618,1.04,-1.65,11.92,0.07,0.03,0.10,15.75,-8.44,-40.94
2307016933,1.04,-1.65,11.92,0.04,0.12,0.10,15.75,-8.44,-40.94
2307026644,1.04,-1.65,11.92,0.03,0.04,0.10,15.75,-8.44,-40.94
2307036573,1.04,-1.65,11.92,0.03,-0.12,0.10,15.75,-8.44,-40.94
2307046629,1.04,-1.65,11.92,-0.00,-0.02,0.13,15.75,-8.44,-40.94
2307056897,1.04,-1.65,11.92,-0.02,0.13,0.21,15.75,-8.44,-40.94
2307066690,1.04,-1.65,11.92,0.00,-0.04,0.22,15.75,-8.44,-40.94
2307075621,1.04,-1.65,11.92,-0.01,-0.06,0.23,15.75,-8.44,-40.94
2307086863,1.04,-1.65,11.92,-0.04,0.02,0.25,15.75,-8.44,-40.94
2307096647,1.04,-1.65,11.92,-0.05,-0.07,0.23,15.75,-8.44,-40.94
2307106523,1.04,-1.65,11.92,-0.08,-0.04,0.22,15.75,-8.44,-40.94
2307116548,1.04,-1.65,11.92,-0.10,0.04,0.22,15.75,-8.44,-40.94
2307126935,1.04,-1.65,11.92,-0.08,-0.05,0.20,15.75,-8.44,-40.94
2307136689,1.04,-1.65,11.92,-0.06,-0.15,0.19,15.75,-8.44,-40.94
2307146704,1.04,-1.65,11.92,-0.09,-0.09,0.17,15.75,-8.44,-40.94
2307156848,1.04,-1.65,11.92,-0.11,-0.07,0.14,15.75,-8.44,-40.94
2307166572,1.04,-1.65,11.92,-0.14,-0.00,0.12,15.75,-8.44,-40.94
2307176450,1.04,-1.65,11.92,-0.15,0.01,0.09,15.75,-8.44,-40.94
2307186544,1.04,-1.65,11.92,-0.12,-0.14,0.05,15.75,-8.44,-40.94
2307196837,1.04,-1.65,11.92,-0.13,-0.14,0.03,15.75,-8.44,-40.94
2307206612,1.04,-1.65,11.92,-0.18,0.03,0.02,15.75,-8.44,-40.94
2307216497,1.04,-1.65,11.92,-0.17,0.02,-0.01,15.75,-8.44,-40.94
2307226829,1.04,-1.65,11.92,-0.17,0.04,-0.02,15.75,-8.44,-40.94
2307236574,1.04,-1.65,11.92,-0.19,-0.02,-0.07,15.75,-8.44,-40.94
2307246431,1.04,-1.65,11.92,-0.20,-0.10,-0.12,15.75,-8.44,-40.94
2307256762,1.04,-1.65,11.92,-0.19,-0.03,-0.12,15.75,-8.44,-40.94
2307266436,1.04,-1.65,11.92,-0.19,-0.03,-0.14,15.75,-8.44,-40.94
2307276533,1.04,-1.65,11.92,-0.22,-0.04,-0.20,15.75,-8.44,-40.94
2307286446,1.04,-1.65,11.92,-0.23,-0.02,-0.24,15.75,-8.44,-40.94
2307296782,1.04,-1.65,11.92,-0.25,0.05,-0.25,15.75,-8.44,-40.94
2307306544,1.04,-1.65,11.92,-0.25,0.01,-0.29,15.75,-8.44,-40.94
2307315628,1.04,-1.65,11.92,-0.23,-0.06,-0.32,15.75,-8.44,-40.94
2307326864,1.04,-1.65,11.92,-0.28,0.12,-0.35,15.75,-8.44,-40.94
2307336458,1.04,-1.65,11.92,-0.25,0.07,-0.37,15.75,-8.44,-40.94
2307346533,1.04,-1.65,11.92,-0.16,-0.05,-0.35,15.75,-8.44,-40.94
2307356447,1.04,-1.65,11.92,-0.19,0.10,-0.34,15.75,-8.44,-40.94
2307366754,1.04,-1.65,11.92,-0.23,0.13,-0.38,15.75,-8.44,-40.94
2307376541,1.04,-1.65,11.92,-0.17,-0.11,-0.41,15.75,-8.44,-40.94
2307386294,1.04,-1.65,11.92,-0.18,-0.01,-0.40,15.75,-8.44,-40.94
2307395497,1.04,-1.65,11.92,-0.21,0.11,-0.42,15.75,-8.44,-40.94
2307406766,1.04,-1.65,11.92,-0.15,-0.07,-0.47,15.75,-8.44,-40.94
2307416522,1.04,-1.65,11.92,-0.13,-0.02,-0.46,15.75,-8.44,-40.94
2307426803,1.04,-1.65,11.92,-0.13,0.05,-0.47,15.75,-8.44,-40.94
2307436467,1.04,-1.65,11.92,-0.14,0.14,-0.49,15.75,-8.44,-40.94
2307446628,1.04,-1.65,11.92,-0.11,0.08,-0.50,15.75,-8.44,-40.94
2307456219,1.04,-1.65,11.92,-0.09,0.09,-0.50,15.75,-8.44,-40.94
2307466744,1.04,-1.65,11.92,-0.08,0.04,-0.51,15.75,-8.44,-40.94
2307476459,1.04,-1.65,11.92,-0.03,-0.07,-0.50,15.75,-8.44,-40.94
2307486499,1.04,-1.65,11.92,-0.01,0.03,-0.45,15.75,-8.44,-40.94
2307496758,1.04,-1.65,11.92,0.02,0.14,-0.39,15.75,-8.44,-40.94
2307506446,1.04,-1.65,11.92,0.02,0.33,-0.33,15.75,-8.44,-40.94
2307516516,1.04,-1.65,11.92,0.05,0.16,-0.29,15.75,-8.44,-40.94
2307526806,1.04,-1.65,11.92,0.08,-0.04,-0.24,15.75,-8.44,-40.94
2307536870,1.04,-1.65,11.92,0.02,0.09,-0.21,15.75,-8.44,-40.94
2307546485,1.04,-1.65,11.92,0.09,-0.08,-0.18,15.75,-8.44,-40.94
2307556473,1.04,-1.65,11.92,0.20,-0.12,-0.09,15.75,-8.44,-40.94
2307566432,1.04,-1.65,11.92,0.25,-0.01,0.00,15.75,-8.44,-40.94
2307576762,1.04,-1.65,11.92,0.19,0.28,0.03,15.75,-8.44,-40.94
2307586576,1.04,-1.65,11.92,0.13,0.29,0.03,15.75,-8.44,-40.94
2307596672,1.04,-1.65,11.92,0.10,0.13,0.04,15.75,-8.44,-40.94
2307606766,1.04,-1.65,11.92,0.07,0.12,0.01,15.75,-8.44,-40.94
2307616546,1.04,-1.65,11.92,0.07,0.26,0.02,15.75,-8.44,-40.94
2307626279,1.04,-1.65,11.92,0.16,0.19,0.11,15.75,-8.44,-40.94
2307636468,1.04,-1.65,11.92,0.23,0.07,0.19,15.75,-8.44,-40.94
2307646777,1.04,-1.65,11.92,0.28,-0.09,0.19,15.75,-8.44,-40.94
2307656638,1.04,-1.65,11.92,0.25,0.12,0.18,15.75,-8.44,-40.94
2307666476,1.04,-1.65,11.92,0.27,0.05,0.18,15.75,-8.44,-40.94
2307676762,1.04,-1.65,11.92,0.24,-0.11,0.15,15.75,-8.44,-40.94
2307686567,1.04,-1.65,11.92,0.17,0.05,0.11,15.75,-8.44,-40.94
2307696103,1.04,-1.65,11.92,0.17,0.04,0.13,15.75,-8.44,-40.94
2307706408,1.04,-1.65,11.92,0.18,-0.05,0.15,15.75,-8.44,-40.94
2307716764,1.04,-1.65,11.92,0.16,-0.02,0.17,15.75,-8.44,-40.94
2307726613,1.04,-1.65,11.92,0.19,-0.08,0.24,15.75,-8.44,-40.94
2307736458,1.04,-1.65,11.92,0.21,-0.01,0.31,15.75,-8.44,-40.94
2307746765,1.04,-1.65,11.92,0.14,0.20,0.33,15.75,-8.44,-40.94
2307756514,1.04,-1.65,11.92,0.14,-0.02,0.32,15.75,-8.44,-40.94
2307765901,1.04,-1.65,11.92,0.15,-0.21,0.28,15.75,-8.44,-40.94
2307776384,1.04,-1.65,11.92,0.11,-0.13,0.25,15.75,-8.44,-40.94
2307786714,1.04,-1.65,11.92,0.11,-0.05,0.25,15.75,-8.44,-40.94
2307796536,1.04,-1.65,11.92,0.07,0.11,0.25,15.75,-8.44,-40.94
2307806361,1.04,-1.65,11.92,0.05,0.04,0.24,15.75,-8.44,-40.94
2307816689,1.04,-1.65,11.92,0.06,-0.07,0.21,15.75,-8.44,-40.94
2307826461,1.04,-1.65,11.92,0.04,0.06,0.22,15.75,-8.44,-40.94
2307835936,1.04,-1.65,11.92,0.01,0.12,0.21,15.75,-8.44,-40.94
2307846647,1.04,-1.65,11.92,-0.03,0.09,0.17,15.75,-8.44,-40.94
2307856371,1.04,-1.65,11.92,0.00,-0.20,0.09,15.75,-8.44,-40.94
2307866392,1.04,-1.65,11.92,0.03,-0.24,0.06,15.75,-8.44,-40.94
2307876655,1.04,-1.65,11.92,-0.04,0.15,0.09,15.75,-8.44,-40.94
2307886296,1.04,-1.65,11.92,-0.04,0.04,0.06,15.75,-8.44,-40.94
2307896390,1.04,-1.65,11.92,-0.06,-0.04,-0.00,15.75,-8.44,-40.94
2307905875,1.04,-1.65,11.92,-0.11,0.12,-0.05,15.75,-8.44,-40.94
2307916571,1.04,-1.65,11.92,-0.07,-0.12,-0.10,15.75,-8.44,-40.94
2307926338,1.04,-1.65,11.92,-0.09,-0.14,-0.12,15.75,-8.44,-40.94
2307936389,1.04,-1.65,11.92,-0.19,0.10,-0.15,15.75,-8.44,-40.94
2307946612,1.04,-1.65,11.92,-0.17,0.06,-0.21,15.75,-8.44,-40.94
2307956237,1.04,-1.65,11.92,-0.07,-0.14,-0.21,15.75,-8.44,-40.94
2307966342,1.04,-1.65,11.92,-0.06,-0.08,-0.21,15.75,-8.44,-40.94
2307975854,1.04,-1.65,11.92,-0.13,0.03,-0.27,15.75,-8.44,-40.94
2307986596,1.04,-1.65,11.92,-0.16,0.09,-0.32,15.75,-8.44,-40.94
2307996203,1.04,-1.65,11.92,-0.12,0.02,-0.34,15.75,-8.44,-40.94
2308006272,1.04,-1.65,11.92,-0.11,-0.08,-0.37,15.75,-8.44,-40.94
2308016176,1.04,-1.65,11.92,-0.09,-0.03,-0.38,15.75,-8.44,-40.94
2308026487,1.04,-1.65,11.92,-0.08,0.07,-0.36,15.75,-8.44,-40.94
2308036276,1.04,-1.65,11.92,-0.06,0.03,-0.34,15.75,-8.44,-40.94
2308045819,1.04,-1.65,11.92,-0.02,0.01,-0.33,15.75,-8.44,-40.94
2308056465,1.04,-1.65,11.92,0.03,-0.05,-0.31,15.75,-8.44,-40.94
2308066152,1.04,-1.65,11.92,0.04,0.07,-0.29,15.75,-8.44,-40.94
2308076200,1.04,-1.65,11.92,0.02,0.20,-0.24,15.75,-8.44,-40.94
2308086447,1.04,-1.65,11.92,0.05,0.07,-0.21,15.75,-8.44,-40.94
2308096142,1.04,-1.65,11.92,0.09,-0.07,-0.18,15.75,-8.44,-40.94
2308106230,1.04,-1.65,11.92,0.12,0.01,-0.12,15.75,-8.44,-40.94
2308116284,1.04,-1.65,11.92,0.16,0.04,-0.06,15.75,-8.44,-40.94
2308126472,1.04,-1.65,11.92,0.20,0.02,0.03,15.75,-8.44,-40.94
2308136174,1.04,-1.65,11.92,0.23,0.02,0.11,15.75,-8.44,-40.94
2308146042,1.04,-1.65,11.92,0.22,0.05,0.15,15.75,-8.44,-40.94
2308156033,1.04,-1.65,11.92,0.20,0.03,0.16,15.75,-8.44,-40.94
2308166391,1.04,-1.65,11.92,0.17,0.01,0.16,15.75,-8.44,-40.94
2308176166,1.04,-1.65,11.92,0.14,0.05,0.15,15.75,-8.44,-40.94
2308186164,1.04,-1.65,11.92,0.16,-0.02,0.14,15.75,-8.44,-40.94
2308196352,1.04,-1.65,11.92,0.20,-0.02,0.16,15.75,-8.44,-40.94
2308206120,1.04,-1.65,11.92,0.17,0.09,0.14,15.75,-8.44,-40.94
2308215834,1.04,-1.65,11.92,0.15,0.06,0.11,15.75,-8.44,-40.94
2308225961,1.04,-1.65,11.92,0.13,0.04,0.08,15.75,-8.44,-40.94
2308236326,1.04,-1.65,11.92,0.13,0.06,0.04,15.75,-8.44,-40.94
2308246138,1.04,-1.65,11.92,0.15,-0.06,-0.01,15.75,-8.44,-40.94
2308255944,1.04,-1.65,11.92,0.18,-0.16,-0.03,15.75,-8.44,-40.94
2308266278,1.04,-1.65,11.92,0.20,-0.02,0.02,15.75,-8.44,-40.94
2308276059,1.04,-1.65,11.92,0.19,0.16,0.08,15.75,-8.44,-40.94
2308285650,1.04,-1.65,11.92,0.20,0.05,0.09,15.75,-8.44,-40.94
2308295918,1.04,-1.65,11.92,0.19,0.01,0.10,15.75,-8.44,-40.94
2308306246,1.04,-1.65,11.92,0.15,0.01,0.11,15.75,-8.44,-40.94
2308316032,1.04,-1.65,11.92,0.12,0.00,0.10,15.75,-8.44,-40.94
2308325974,1.04,-1.65,11.92,0.04,0.14,0.09,15.75,-8.44,-40.94
2308336224,1.04,-1.65,11.92,0.02,0.02,0.03,15.75,-8.44,-40.94
2308346028,1.04,-1.65,11.92,0.08,-0.21,0.00,15.75,-8.44,-40.94
2308355673,1.04,-1.65,11.92,0.08,-0.03,0.04,15.75,-8.44,-40.94
2308366161,1.04,-1.65,11.92,0.04,0.14,0.06,15.75,-8.44,-40.94
2308375869,1.04,-1.65,11.92,0.06,0.08,0.08,15.75,-8.44,-40.94
2308385941,1.04,-1.65,11.92,-0.00,0.19,0.07,15.75,-8.44,-40.94
2308395844,1.04,-1.65,11.92,0.03,-0.07,0.03,15.75,-8.44,-40.94
2308406227,1.04,-1.65,11.92,0.11,-0.11,0.07,15.75,-8.44,-40.94
2308415964,1.04,-1.65,11.92,0.06,-0.02,0.08,15.75,-8.44,-40.94
2308426318,1.04,-1.65,11.92,-0.00,-0.01,0.03,15.75,-8.44,-40.94
2308436451,1.04,-1.65,11.92,0.04,-0.03,0.06,15.75,-8.44,-40.94
2308445842,1.04,-1.65,11.92,0.04,-0.03,0.06,23.62,-8.88,-44.31
2308455135,1.04,-1.65,11.92,0.04,-0.03,0.06,24.56,-9.06,-43.12
2308465842,1.04,-1.65,11.92,0.05,-0.09,0.10,24.56,-9.06,-43.12
2308476122,1.04,-1.65,11.92,0.03,-0.08,0.12,24.56,-9.06,-43.12
2308485889,1.04,-1.65,11.92,-0.04,0.06,0.08,24.56,-9.06,-43.12
2308496290,1.04,-1.65,11.92,0.01,-0.02,0.08,24.56,-9.06,-43.12
2308506393,1.04,-1.65,11.92,0.05,-0.01,0.13,24.56,-9.06,-43.12
2308515775,1.04,-1.65,11.92,0.05,-0.01,0.13,23.75,-8.81,-45.12
2308525185,1.04,-1.65,11.92,0.05,-0.01,0.13,23.88,-9.31,-43.25
2308535771,1.04,-1.65,11.92,0.07,0.10,0.20,23.88,-9.31,-43.25
2308546049,1.04,-1.65,11.92,0.07,0.01,0.19,23.88,-9.31,-43.25
2308555888,1.04,-1.65,11.92,0.04,0.01,0.17,23.88,-9.31,-43.25
2308566267,1.04,-1.65,11.92,0.03,0.10,0.18,23.88,-9.31,-43.25
2308576405,1.04,-1.65,11.92,0.05,-0.09,0.17,23.88,-9.31,-43.25
2308585742,1.04,-1.65,11.92,0.05,-0.09,0.17,22.69,-8.94,-43.69
2308595076,1.04,-1.65,11.92,0.05,-0.09,0.17,23.81,-9.31,-43.31
2308605705,1.04,-1.65,11.92,0.02,0.06,0.20,23.81,-9.31,-43.31
2308615998,1.04,-1.65,11.92,0.04,-0.04,0.20,23.81,-9.31,-43.31
2308625769,1.04,-1.65,11.92,-0.02,0.06,0.17,23.81,-9.31,-43.31
2308636221,1.04,-1.65,11.92,-0.04,-0.08,0.10,23.81,-9.31,-43.31
2308646287,1.04,-1.65,11.92,-0.05,-0.07,0.07,23.81,-9.31,-43.31
2308655698,1.04,-1.65,11.92,-0.05,-0.07,0.07,23.69,-9.88,-42.81
2308665070,1.04,-1.65,11.92,-0.05,-0.07,0.07,22.62,-8.56,-44.12
2308675618,1.04,-1.65,11.92,0.01,-0.03,0.04,22.62,-8.56,-44.12
2308685938,-0.88,-1.80,9.88,0.01,-0.03,0.04,22.62,-8.56,-44.12
2308695702,-0.88,-1.80,9.88,0.01,-0.00,0.00,22.62,-8.56,-44.12
2308705858,-0.88,-1.80,9.88,-0.02,0.06,-0.03,22.62,-8.56,-44.12
2308715971,-0.88,-1.80,9.88,-0.05,0.09,-0.08,22.62,-8.56,-44.12
2308725747,-0.88,-1.80,9.88,-0.03,0.04,-0.09,22.62,-8.56,-44.12
2308735678,-0.88,-1.80,9.88,0.04,-0.14,-0.08,22.62,-8.56,-44.12
2308745972,-0.88,-1.80,9.88,0.04,0.02,-0.04,22.62,-8.56,-44.12
2308755645,-0.88,-1.80,9.88,0.06,0.01,-0.01,22.62,-8.56,-44.12
2308765705,-0.88,-1.80,9.88,0.10,-0.02,0.05,22.62,-8.56,-44.12
2308775720,-0.88,-1.80,9.88,0.06,0.12,0.09,22.62,-8.56,-44.12
2308785938,-0.88,-1.80,9.88,0.07,-0.02,0.07,22.62,-8.56,-44.12
2308795650,-0.88,-1.80,9.88,0.05,0.03,0.09,22.62,-8.56,-44.12
2308805714,-0.88,-1.80,9.88,0.03,0.02,0.11,22.62,-8.56,-44.12
2308815934,-0.88,-1.80,9.88,0.03,-0.08,0.09,22.62,-8.56,-44.12
2308825590,-0.88,-1.80,9.88,0.02,-0.02,0.09,22.62,-8.56,-44.12
2308835638,-0.88,-1.80,9.88,0.05,-0.08,0.09,22.62,-8.56,-44.12
2308845651,-0.88,-1.80,9.88,0.05,0.01,0.09,22.62,-8.56,-44.12
2308855908,-0.88,-1.80,9.88,0.05,-0.05,0.08,22.62,-8.56,-44.12
2308865716,-0.88,-1.80,9.88,0.04,-0.06,0.05,22.62,-8.56,-44.12
2308876201,-0.88,-1.80,9.88,0.00,0.07,0.06,22.62,-8.56,-44.12
2308886985,-0.88,-1.80,9.88,0.03,0.03,0.06,22.62,-8.56,-44.12
2308896340,-0.88,-1.80,9.88,0.03,0.03,0.06,24.12,-10.44,-40.94
2308905595,-0.88,-1.80,9.88,0.03,0.03,0.06,23.00,-9.56,-40.88
2308915046,-0.88,-1.80,9.88,0.03,0.03,0.06,23.31,-9.06,-40.94
2308926725,-0.88,-1.80,9.88,0.08,-0.01,0.10,23.31,-9.06,-40.94
2308936782,-0.88,-1.80,9.88,0.05,0.00,0.08,23.31,-9.06,-40.94
2308945995,-0.88,-1.80,9.88,0.05,0.00,0.08,22.50,-8.94,-41.19
2308956615,-0.88,-1.80,9.88,0.05,0.00,0.08,24.12,-8.56,-40.50
2308966335,-0.88,-1.80,9.88,0.05,0.00,0.08,23.19,-9.75,-41.75
2308976488,-0.88,-1.80,9.88,0.05,0.00,0.08,24.31,-9.50,-39.75
2308986290,-0.88,-1.80,9.88,0.05,0.00,0.08,23.94,-9.75,-39.81
2308996613,-0.88,-1.80,9.88,0.05,0.00,0.08,23.94,-8.44,-41.31
2309006342,-0.88,-1.80,9.88,0.05,0.00,0.08,23.06,-9.06,-40.56
2309015860,-0.88,-1.80,9.88,0.05,0.00,0.08,24.25,-10.00,-40.06
2309026564,-0.88,-1.80,9.88,0.05,0.00,0.08,23.81,-8.69,-41.75
2309036255,-0.88,-1.80,9.88,0.05,0.00,0.08,22.88,-8.50,-42.88
2309046329,-0.88,-1.80,9.88,0.05,0.00,0.08,23.19,-8.25,-41.19
2309056249,-0.88,-1.80,9.88,0.05,0.00,0.08,22.69,-9.31,-40.62
2309066529,-0.88,-1.80,9.88,0.05,0.00,0.08,23.12,-8.94,-41.81
2309076307,-0.88,-1.80,9.88,0.05,0.00,0.08,23.38,-8.81,-40.62
2309085725,-0.88,-1.80,9.88,0.05,0.00,0.08,23.56,-8.00,-41.06
2309096482,-0.88,-1.80,9.88,0.05,0.00,0.08,22.38,-8.12,-41.75
2309106171,-0.88,-1.80,9.88,0.05,0.00,0.08,23.88,-7.94,-41.50
2309116236,-0.88,-1.80,9.88,0.05,0.00,0.08,23.06,-8.62,-42.00
2309126565,-0.88,-1.80,9.88,0.05,0.00,0.08,24.88,-8.19,-39.88
2309136152,-0.88,-1.80,9.88,0.05,0.00,0.08,23.31,-8.31,-40.69
2309146238,-0.88,-1.80,9.88,0.05,0.00,0.08,24.12,-8.38,-40.44
2309155771,-0.88,-1.80,9.88,0.05,0.00,0.08,23.19,-8.94,-39.81
2309166424,-0.88,-1.80,9.88,0.05,0.00,0.08,23.31,-7.50,-40.50
2309176156,-0.88,-1.80,9.88,0.05,0.00,0.08,22.88,-8.44,-41.25
2309186234,-0.88,-1.80,9.88,0.05,0.00,0.08,22.50,-7.69,-41.00
2309196421,-0.88,-1.80,9.88,0.05,0.00,0.08,23.69,-8.75,-39.25
2309206075,-0.88,-1.80,9.88,0.05,0.00,0.08,23.56,-8.00,-41.06
2309216172,-0.88,-1.80,9.88,0.05,0.00,0.08,22.81,-8.12,-39.62
2309225705,-0.88,-1.80,9.88,0.05,0.00,0.08,23.56,-8.69,-41.44
2309236366,-0.88,-1.80,9.88,0.05,0.00,0.08,22.75,-8.06,-40.00
2309246098,-0.88,-1.80,9.88,0.05,0.00,0.08,23.00,-9.50,-39.31
2309255595,-0.88,-1.80,9.88,0.05,0.00,0.08,23.25,-8.19,-39.44
2309266714,-0.88,-1.80,9.88,0.02,-0.02,0.40,23.25,-8.19,-39.44
2309276035,-0.88,-1.80,9.88,0.02,-0.02,0.40,23.25,-8.69,-39.44
2309286109,-0.88,-1.80,9.88,0.02,-0.02,0.40,22.62,-8.69,-39.19
2309295593,-0.88,-1.80,9.88,0.02,-0.02,0.40,22.81,-9.62,-38.50
2309306301,-0.88,-1.80,9.88,0.02,-0.02,0.40,21.69,-8.81,-40.12
2309315984,-0.88,-1.80,9.88,0.02,-0.02,0.40,22.00,-8.25,-38.56
2309325573,-0.88,-1.80,9.88,0.02,-0.02,0.40,22.88,-8.69,-39.44
2309336685,-0.88,-1.80,9.88,-0.04,-0.09,0.22,22.88,-8.69,-39.44
2309345964,-0.88,-1.80,9.88,-0.04,-0.09,0.22,21.69,-9.06,-40.12
2309356033,-0.88,-1.80,9.88,-0.04,-0.09,0.22,22.81,-8.81,-38.19
2309366197,-0.88,-1.80,9.88,-0.04,-0.09,0.22,21.88,-7.94,-40.75
2309376302,-0.88,-1.80,9.88,-0.04,-0.09,0.22,21.94,-8.00,-40.25
2309386000,-0.88,-1.80,9.88,-0.04,-0.09,0.22,23.06,-8.81,-38.62
2309395917,-0.88,-1.80,9.88,-0.04,-0.09,0.22,22.75,-8.31,-38.38
2309406201,-0.88,-1.80,9.88,-0.04,-0.09,0.22,21.94,-8.00,-40.25
2309415897,-0.88,-1.80,9.88,-0.04,-0.09,0.22,22.12,-7.88,-39.44
2309425994,-0.88,-1.80,9.88,-0.04,-0.09,0.22,22.69,-8.81,-40.38
2309436001,-0.88,-1.80,9.88,-0.04,-0.09,0.22,22.69,-8.81,-40.38
2309446291,-0.88,-1.80,9.88,-0.04,-0.09,0.22,21.31,-7.56,-41.38
2309455875,-0.88,-1.80,9.88,-0.04,-0.09,0.22,21.50,-8.19,-40.81
2309465770,-0.88,-1.80,9.88,-0.04,-0.09,0.22,21.81,-7.38,-40.88
2309476185,-0.88,-1.80,9.88,-0.04,-0.09,0.22,20.44,-8.19,-40.56
2309485814,-0.88,-1.80,9.88,-0.04,-0.09,0.22,22.12,-8.12,-39.38
2309495944,-0.88,-1.80,9.88,-0.04,-0.09,0.22,21.31,-7.50,-39.62
2309505845,-0.88,-1.80,9.88,-0.04,-0.09,0.22,21.75,-7.56,-39.56
2309516131,-0.88,-1.80,9.88,-0.04,-0.09,0.22,21.69,-8.06,-39.88
2309525903,-0.88,-1.80,9.88,-0.04,-0.09,0.22,22.12,-7.06,-39.19
2309535653,-0.88,-1.80,9.88,-0.04,-0.09,0.22,22.38,-7.19,-38.19
2309546075,-0.88,-1.80,9.88,-0.04,-0.09,0.22,21.88,-7.44,-40.38
2309555757,-0.88,-1.80,9.88,-0.04,-0.09,0.22,22.19,-7.62,-39.06
2309565915,-0.88,-1.80,9.88,-0.04,-0.09,0.22,21.00,-7.75,-39.75
2309575806,-0.88,-1.80,9.88,-0.04,-0.09,0.22,21.50,-7.38,-38.81
2309586135,-0.88,-1.80,9.88,-0.04,-0.09,0.22,22.31,-6.69,-40.00
2309595891,-0.88,-1.80,9.88,-0.04,-0.09,0.22,21.25,-6.12,-39.56
2309605601,-0.88,-1.80,9.88,-0.04,-0.09,0.22,20.75,-7.56,-38.94
2309616013,-0.88,-1.80,9.88,-0.04,-0.09,0.22,21.06,-7.12,-40.69
2309625687,-0.88,-1.80,9.88,-0.04,-0.09,0.22,20.38,-6.00,-40.25
2309635822,-0.88,-1.80,9.88,-0.04,-0.09,0.22,20.50,-6.12,-39.75
2309645767,-0.88,-1.80,9.88,-0.04,-0.09,0.22,21.25,-5.88,-39.62
2309655983,-0.88,-1.80,9.88,-0.04,-0.09,0.22,21.50,-6.06,-40.31
2309665779,-0.88,-1.80,9.88,-0.04,-0.09,0.22,21.56,-7.12,-38.50
2309675587,-0.88,-1.80,9.88,-0.04,-0.09,0.22,22.44,-7.00,-37.81
2309685963,-0.88,-1.80,9.88,-0.04,-0.09,0.22,21.69,-6.50,-39.38
2309695634,-0.88,-1.80,9.88,-0.04,-0.09,0.22,21.56,-6.62,-40.19
2309705707,-0.88,-1.80,9.88,-0.04,-0.09,0.22,21.44,-6.50,-39.00
2309715605,-0.88,-1.80,9.88,-0.04,-0.09,0.22,20.62,-5.38,-39.00
2309726024,-0.88,-1.80,9.88,-0.04,-0.09,0.22,21.06,-6.75,-39.06
2309735735,-0.88,-1.80,9.88,-0.04,-0.09,0.22,20.69,-5.69,-38.94
2309745597,-0.88,-1.80,9.88,-0.04,-0.09,0.22,21.75,-5.94,-39.12
2309755896,-0.88,-1.80,9.88,-0.04,-0.09,0.22,21.44,-6.50,-39.00
2309765602,-0.88,-1.80,9.88,-0.04,-0.09,0.22,22.38,-6.75,-39.62
2309775645,-0.88,-1.80,9.88,-0.04,-0.09,0.22,20.44,-5.56,-39.88
2309786021,-0.88,-1.80,9.88,-0.04,-0.09,0.22,20.69,-5.94,-38.94
2309795601,-0.88,-1.80,9.88,-0.04,-0.09,0.22,21.81,-5.81,-40.31
2309805654,-0.88,-1.80,9.88,-0.04,-0.09,0.22,20.81,-5.25,-39.88
2309815594,-0.88,-1.80,9.88,-0.04,-0.09,0.22,20.12,-4.56,-41.00
2309825891,-0.88,-1.80,9.88,-0.04,-0.09,0.22,20.88,-4.81,-41.12
2309835622,-0.88,-1.80,9.88,-0.04,-0.09,0.22,21.19,-5.31,-39.81
2309845682,-0.88,-1.80,9.88,-0.04,-0.09,0.22,20.88,-4.81,-41.12
2309855924,-0.88,-1.80,9.88,-0.04,-0.09,0.22,20.38,-5.44,-38.62
2309865615,-0.88,-1.80,9.88,-0.04,-0.09,0.22,21.00,-5.19,-40.62
2309875598,-0.88,-1.80,9.88,-0.04,-0.09,0.22,21.31,-4.38,-39.06
2309885658,-0.88,-1.80,9.88,-0.04,-0.09,0.22,22.06,-5.12,-39.12
2309895911,-0.88,-1.80,9.88,-0.04,-0.09,0.22,21.19,-5.00,-39.75
2309905595,-0.88,-1.80,9.88,-0.04,-0.09,0.22,19.94,-4.62,-40.25
2309915587,-0.88,-1.80,9.88,-0.04,-0.09,0.22,19.94,-3.62,-39.94
2309924843,-0.88,-1.80,9.88,-0.04,-0.09,0.22,20.44,-4.25,-39.69
2309935982,-0.88,-1.80,9.88,-0.03,0.12,0.03,20.44,-4.25,-39.69
2309945937,-0.88,-1.80,9.88,-0.04,0.07,-0.01,20.44,-4.25,-39.69
2309955678,-0.88,-1.80,9.88,-0.04,0.07,-0.01,20.44,-4.50,-39.62
2309965906,-0.88,-1.80,9.88,-0.04,0.07,-0.01,20.12,-5.31,-39.56
2309975590,-0.88,-1.80,9.88,-0.04,0.07,-0.01,20.50,-5.00,-39.62
2309985705,-0.88,-1.80,9.88,-0.04,0.07,-0.01,20.81,-4.25,-39.62
2309995949,-0.88,-1.80,9.88,-0.04,0.07,-0.01,20.56,-4.56,-39.25
2310005604,-0.88,-1.80,9.88,-0.04,0.07,-0.01,19.25,-4.88,-40.31
2310015600,-0.88,-1.80,9.88,-0.04,0.07,-0.01,20.12,-4.19,-37.69
2310025595,-0.88,-1.80,9.88,-0.04,0.07,-0.01,20.12,-4.19,-37.69
2310035934,-0.88,-1.80,9.88,-0.04,0.07,-0.01,20.31,-4.88,-38.75
2310045687,-0.88,-1.80,9.88,-0.04,0.07,-0.01,20.38,-5.44,-38.62
2310055587,-0.88,-1.80,9.88,-0.04,0.07,-0.01,20.25,-4.62,-38.94
2310065909,-0.88,-1.80,9.88,-0.04,0.07,-0.01,20.12,-5.00,-39.69
2310075599,-0.88,-1.80,9.88,-0.04,0.07,-0.01,20.25,-5.62,-39.06
2310085593,-0.88,-1.80,9.88,-0.04,0.07,-0.01,21.75,-6.00,-39.00
2310095650,-0.88,-1.80,9.88,-0.04,0.07,-0.01,21.75,-6.00,-39.00
2310105936,-0.88,-1.80,9.88,-0.04,0.07,-0.01,20.50,-5.75,-38.19
2310115595,-0.88,-1.80,9.88,-0.04,0.07,-0.01,21.38,-6.19,-37.50
2310125711,-0.88,-1.80,9.88,-0.04,0.07,-0.01,20.06,-5.75,-38.31
2310135973,-0.88,-1.80,9.88,-0.04,0.07,-0.01,19.75,-6.25,-38.19
2310145957,-0.88,-1.80,9.88,-0.04,0.07,-0.01,20.69,-5.94,-38.94
2310155045,0.30,-0.88,9.46,-0.04,0.07,-0.01,20.69,-5.94,-38.94
2310165640,0.30,-0.88,9.46,-0.04,0.07,-0.01,20.56,-5.81,-37.75
2310175937,0.30,-0.88,9.46,-0.04,0.07,-0.01,20.06,-5.44,-38.31
2310185594,0.30,-0.88,9.46,-0.04,0.07,-0.01,20.38,-4.88,-38.38
2310195696,0.30,-0.88,9.46,-0.04,0.07,-0.01,20.06,-6.25,-38.56
2310205899,0.30,-0.88,9.46,-0.04,0.07,-0.01,20.31,-5.94,-39.00
2310215907,0.30,-0.88,9.46,-0.04,0.07,-0.01,20.75,-5.69,-38.56
2310225044,-0.15,-1.80,11.30,-0.04,0.07,-0.01,20.75,-5.69,-38.56
2310235613,-0.15,-1.80,11.30,-0.04,0.07,-0.01,20.88,-6.81,-36.62
2310245943,-0.15,-1.80,11.30,-0.04,0.07,-0.01,19.44,-6.25,-38.31
2310255664,-0.15,-1.80,11.30,-0.04,0.07,-0.01,20.25,-6.38,-37.62
2310265598,-0.15,-1.80,11.30,-0.04,0.07,-0.01,21.06,-6.44,-37.44
2310276238,-0.15,-1.80,11.30,-0.04,0.07,-0.01,20.62,-6.38,-37.56
2310285682,2.26,-0.38,9.96,-0.04,0.07,-0.01,20.62,-6.38,-37.56
2310295108,0.80,-0.46,9.08,-0.04,0.07,-0.01,20.62,-6.38,-37.56
2310305591,0.80,-0.46,9.08,-0.04,0.07,-0.01,20.00,-7.44,-37.56
2310315911,0.80,-0.46,9.08,-0.04,0.07,-0.01,20.00,-7.19,-37.56
2310325710,0.80,-0.46,9.08,-0.04,0.07,-0.01,19.56,-6.12,-39.19
2310335645,0.80,-0.46,9.08,-0.04,0.07,-0.01,19.94,-6.12,-37.38
2310346239,0.80,-0.46,9.08,-0.04,0.07,-0.01,20.06,-6.50,-38.56
2310355594,-1.61,0.15,6.74,-0.04,0.07,-0.01,20.06,-6.50,-38.56
2310365050,-1.91,-0.08,9.23,-0.04,0.07,-0.01,20.06,-6.50,-38.56
2310376029,-1.91,-0.08,9.23,-0.04,0.07,-0.01,20.50,-6.81,-38.31
2310385906,-1.91,-0.08,9.23,-0.04,0.07,-0.01,19.38,-6.44,-38.69
2310395647,-2.84,-1.23,9.50,-0.04,0.07,-0.01,19.38,-6.44,-38.69
2310405045,-2.61,-1.88,9.42,-0.04,0.07,-0.01,19.38,-6.44,-38.69
2310415927,-2.61,-1.88,9.42,-0.04,0.07,-0.01,19.00,-7.25,-39.06
2310425927,-2.61,-1.88,9.42,-0.04,0.07,-0.01,19.31,-5.88,-38.88
2310435690,-1.07,-0.50,6.28,-0.04,0.07,-0.01,19.31,-5.88,-38.88
2310445633,1.11,-1.04,8.62,-0.04,0.07,-0.01,19.31,-5.88,-38.88
2310455925,1.11,-1.04,8.62,-0.04,0.07,-0.01,19.19,-6.25,-37.94
2310465594,1.00,-2.22,10.95,-0.04,0.07,-0.01,19.19,-6.25,-37.94
2310475046,1.30,-1.99,11.99,-0.04,0.07,-0.01,19.19,-6.25,-37.94
2310485924,1.30,-1.99,11.99,-0.04,0.07,-0.01,19.06,-6.50,-38.44
2310495931,1.30,-1.99,11.99,-0.04,0.07,-0.01,18.81,-5.50,-39.50
2310505647,0.96,-1.57,10.80,-0.04,0.07,-0.01,18.81,-5.50,-39.50
2310515608,-0.57,-1.65,9.80,-0.04,0.07,-0.01,18.81,-5.50,-39.50
2310526049,-0.57,-1.65,9.80,-0.04,0.07,-0.01,19.62,-6.88,-37.69
2310535651,0.92,-1.68,9.96,-0.04,0.07,-0.01,19.62,-6.88,-37.69
2310545603,0.30,-0.92,8.39,-0.04,0.07,-0.01,19.62,-6.88,-37.69
2310555596,0.42,-0.27,9.27,-0.04,0.07,-0.01,19.62,-6.88,-37.69
2310565920,0.42,-0.27,9.27,-0.04,0.07,-0.01,19.25,-6.31,-37.50
2310575710,1.30,-1.42,9.27,-0.04,0.07,-0.01,19.25,-6.31,-37.50
2310585908,0.84,-1.30,8.88,-0.04,0.07,-0.01,19.25,-6.31,-37.50
2310595605,-0.34,-0.50,9.69,-0.04,0.07,-0.01,19.25,-6.31,-37.50
2310605643,-1.57,-0.65,8.12,-0.04,0.07,-0.01,19.25,-6.31,-37.50
2310615592,-0.65,-1.27,7.93,-0.04,0.07,-0.01,19.25,-6.31,-37.50
2310625950,1.99,-1.99,9.92,-0.04,0.07,-0.01,19.25,-6.31,-37.50
2310635677,1.95,-0.84,9.46,-0.04,0.07,-0.01,19.25,-6.31,-37.50
2310645053,-1.76,-0.92,8.28,-0.04,0.07,-0.01,19.25,-6.31,-37.50
2310655921,-1.76,-0.92,8.28,-0.04,0.07,-0.01,18.25,-6.38,-39.00
2310665936,-1.76,-0.92,8.28,-0.04,0.07,-0.01,18.62,-5.88,-38.62
2310675908,0.50,-1.57,9.58,-0.04,0.07,-0.01,18.62,-5.88,-38.62
2310685602,0.50,-1.57,9.58,0.01,0.04,-0.04,18.62,-5.88,-38.62
2310695632,-1.15,-1.46,8.08,0.01,0.04,-0.04,18.62,-5.88,-38.62
2310705645,-1.11,-1.91,10.95,0.01,0.04,-0.04,18.62,-5.88,-38.62
2310715606,-4.18,-2.57,10.57,0.01,0.04,-0.04,18.62,-5.88,-38.62
2310726019,-1.61,-2.49,9.77,0.01,0.04,-0.04,18.62,-5.88,-38.62
2310735702,-1.95,-2.14,8.96,0.01,0.04,-0.04,18.62,-5.88,-38.62
2310745936,-2.53,-1.91,6.21,0.01,0.04,-0.04,18.62,-5.88,-38.62
2310755592,-2.53,-1.91,6.21,0.09,-0.08,0.00,18.62,-5.88,-38.62
2310765613,-0.11,-1.07,11.76,0.09,-0.08,0.00,18.62,-5.88,-38.62
2310775746,-1.30,-1.57,11.96,0.09,-0.08,0.00,18.62,-5.88,-38.62
2310786291,0.80,-1.53,11.19,0.09,-0.08,0.00,18.62,-5.88,-38.62
2310795904,0.73,-1.04,9.89,0.09,-0.08,0.00,18.62,-5.88,-38.62
2310805697,0.84,-0.73,9.46,0.09,-0.08,0.00,18.62,-5.88,-38.62
2310815931,1.57,-2.03,9.12,0.09,-0.08,0.00,18.62,-5.88,-38.62
2310825600,1.57,-2.03,9.12,0.03,0.05,0.07,18.62,-5.88,-38.62
2310835631,-0.23,-1.80,7.86,0.03,0.05,0.07,18.62,-5.88,-38.62
2310845677,1.19,-2.18,8.36,0.03,0.05,0.07,18.62,-5.88,-38.62
2310856585,0.34,-1.15,8.23,0.03,0.05,0.07,18.62,-5.88,-38.62
2310866276,3.91,-1.88,12.45,0.03,0.05,0.07,18.62,-5.88,-38.62
2310875594,1.07,-1.88,11.96,0.03,0.05,0.07,18.62,-5.88,-38.62
2310885595,-1.84,-1.49,10.00,0.03,0.05,0.07,18.62,-5.88,-38.62
2310895923,-1.27,-1.76,9.88,0.03,0.05,0.07,18.62,-5.88,-38.62
2310905678,0.46,-1.95,9.65,0.03,0.05,0.07,18.62,-5.88,-38.62
2310915653,1.53,-0.80,8.74,0.03,0.05,0.07,18.62,-5.88,-38.62
2310726019,-1.61,-2.49,9.77,0.01,0.04,-0.04,18.62,-5.88,-38.62
