timestamp,accX,accY,accZ,gyroX,gyroY,gyroZ,magX,magY,magZ
34351813,0.00,0.00,0.00,0.00,0.00,0.00,0.00,0.00,0.00
34369547,0.00,0.00,0.00,0.00,0.00,0.00,0.00,0.00,0.00
34371243,0.00,0.00,0.00,0.00,0.00,0.00,0.00,0.00,0.00
34379776,0.00,0.00,0.00,0.00,0.00,0.00,0.00,0.00,0.00
34391255,0.00,0.00,0.00,-0.20,0.36,0.30,0.00,0.00,0.00
34399990,0.00,0.00,0.00,-0.20,0.36,0.30,0.00,0.00,0.00
34413575,-3.68,-1.23,9.08,-0.20,0.36,0.30,0.00,0.00,0.00
34421266,-3.68,-1.23,9.08,-0.15,-0.07,0.25,0.00,0.00,0.00
34430868,10.69,3.41,16.89,-0.15,-0.07,0.25,0.00,0.00,0.00
34441554,3.60,2.22,10.96,-0.15,-0.07,0.25,0.00,0.00,0.00
34451227,3.60,2.22,10.96,-0.22,0.22,0.30,0.00,0.00,0.00
34461300,-2.18,-1.04,7.93,-0.22,0.22,0.30,0.00,0.00,0.00
34471522,2.45,4.18,12.41,-0.22,0.22,0.30,0.00,0.00,0.00
34481219,2.45,4.18,12.41,-0.35,0.21,0.15,0.00,0.00,0.00
34490552,2.45,4.18,12.41,-0.16,-0.25,0.10,0.00,0.00,0.00
34500830,5.82,-2.22,9.73,-0.16,-0.25,0.10,0.00,0.00,0.00
34511621,2.11,-3.87,11.30,-0.16,-0.25,0.10,0.00,0.00,0.00
34521239,2.11,-3.87,11.30,-0.05,-0.19,0.06,0.00,0.00,0.00
34531368,0.88,0.50,9.16,-0.05,-0.19,0.06,0.00,0.00,0.00
34541563,2.64,1.61,7.39,-0.05,-0.19,0.06,0.00,0.00,0.00
34551340,2.64,1.61,7.39,-0.15,0.06,0.13,0.00,0.00,0.00
34560708,2.64,1.61,7.39,-0.27,0.03,0.06,0.00,0.00,0.00
34571158,4.79,-0.34,17.78,-0.27,0.03,0.06,0.00,0.00,0.00
34581228,4.79,-0.34,17.78,-0.14,-0.05,-0.13,0.00,0.00,0.00
34591248,4.79,-0.34,17.78,-0.21,0.23,-0.07,0.00,0.00,0.00
34601276,1.15,-1.76,8.58,-0.21,0.23,-0.07,0.00,0.00,0.00
34611602,3.87,-0.19,9.81,-0.21,0.23,-0.07,0.00,0.00,0.00
34621236,3.87,-0.19,9.81,-0.29,0.22,-0.09,0.00,0.00,0.00
34630610,3.87,-0.19,9.81,-0.30,0.00,-0.02,0.00,0.00,0.00
34641849,4.64,-6.55,16.05,-0.30,0.00,-0.02,0.00,0.00,0.00
34651237,4.64,-6.55,16.05,-0.14,-0.08,-0.19,0.00,0.00,0.00
34661321,4.64,-6.55,16.05,-0.30,0.35,-0.01,0.00,0.00,0.00
34671148,-6.74,-1.57,11.84,-0.30,0.35,-0.01,0.00,0.00,0.00
34681516,1.65,0.92,7.24,-0.30,0.35,-0.01,0.00,0.00,0.00
34691359,1.65,0.92,7.24,-0.14,-0.02,0.07,0.00,0.00,0.00
34700558,1.65,0.92,7.24,-0.04,-0.25,0.08,0.00,0.00,0.00
34711701,-3.95,-1.27,10.27,-0.04,-0.25,0.08,0.00,0.00,0.00
34721240,-3.95,-1.27,10.27,-0.40,0.62,0.21,0.00,0.00,0.00
34731314,-3.95,-1.27,10.27,-0.11,-0.17,0.03,0.00,0.00,0.00
34741006,9.92,1.42,11.57,-0.11,-0.17,0.03,0.00,0.00,0.00
34751676,11.57,-1.00,10.69,-0.11,-0.17,0.03,0.00,0.00,0.00
34761357,11.57,-1.00,10.69,-0.13,0.32,0.26,0.00,0.00,0.00
34771256,11.57,-1.00,10.69,-0.08,0.15,0.26,0.00,0.00,0.00
34781514,-10.23,-1.72,12.95,-0.08,0.15,0.26,0.00,0.00,0.00
34791245,-10.23,-1.72,12.95,-0.03,-0.29,0.01,0.00,0.00,0.00
34801271,-10.23,-1.72,12.95,-0.04,0.02,0.11,0.00,0.00,0.00
34811040,-11.30,-2.99,-0.19,-0.04,0.02,0.11,0.00,0.00,0.00
34821496,-9.12,-1.49,1.15,-0.04,0.02,0.11,0.00,0.00,0.00
34831237,-9.12,-1.49,1.15,0.10,-0.59,0.04,0.00,0.00,0.00
34841300,-9.12,-1.49,1.15,-0.12,0.01,0.07,0.00,0.00,0.00
34851556,-0.92,-2.91,3.33,-0.12,0.01,0.07,0.00,0.00,0.00
34861385,-0.92,-2.91,3.33,-0.08,-0.03,0.13,0.00,0.00,0.00
34870559,-0.92,-2.91,3.33,-0.04,-0.17,0.08,0.00,0.00,0.00
34880803,2.72,0.19,14.21,-0.04,-0.17,0.08,0.00,0.00,0.00
34891567,3.26,-1.15,16.78,-0.04,-0.17,0.08,0.00,0.00,0.00
34901218,3.26,-1.15,16.78,-0.12,-0.02,0.11,0.00,0.00,0.00
34911329,3.26,-1.15,16.78,-0.18,0.31,0.12,0.00,0.00,0.00
34921536,-6.40,-2.84,2.95,-0.18,0.31,0.12,0.00,0.00,0.00
34931253,-6.40,-2.84,2.95,0.01,-0.36,-0.04,0.00,0.00,0.00
34940622,-6.40,-2.84,2.95,-0.16,0.04,-0.07,0.00,0.00,0.00
34951286,-2.57,0.19,9.20,-0.16,0.04,-0.07,0.00,0.00,0.00
34961364,-2.57,0.19,9.20,-0.18,-0.08,-0.16,0.00,0.00,0.00
34971233,-2.57,0.19,9.20,-0.07,-0.08,-0.10,0.00,0.00,0.00
34981287,-2.57,0.19,9.20,-0.07,-0.05,-0.06,0.00,0.00,0.00
34991514,-7.74,-2.61,9.50,-0.07,-0.05,-0.06,0.00,0.00,0.00
35001209,-7.74,-2.61,9.50,-0.06,-0.03,-0.16,0.00,0.00,0.00
35010820,-7.74,-2.61,9.50,0.01,-0.29,-0.16,0.00,0.00,0.00
35021876,-11.80,-3.48,1.07,0.01,-0.29,-0.16,0.00,0.00,0.00
35031250,-11.80,-3.48,1.07,-0.15,-0.32,-0.39,0.00,0.00,0.00
35041276,-11.80,-3.48,1.07,0.05,-0.71,-0.37,0.00,0.00,0.00
35051226,5.94,-0.04,10.57,0.05,-0.71,-0.37,0.00,0.00,0.00
35061609,-1.76,-3.52,1.46,0.05,-0.71,-0.37,0.00,0.00,0.00
35071289,-1.76,-3.52,1.46,0.06,-0.15,-0.20,0.00,0.00,0.00
35080552,-1.76,-3.52,1.46,-0.03,-0.06,-0.22,0.00,0.00,0.00
35091668,1.88,-1.49,7.78,-0.03,-0.06,-0.22,0.00,0.00,0.00
35101242,1.88,-1.49,7.78,-0.03,-0.23,-0.24,0.00,0.00,0.00
35111306,1.88,-1.49,7.78,-0.17,0.22,-0.19,0.00,0.00,0.00
35120980,-0.34,-4.52,18.73,-0.17,0.22,-0.19,0.00,0.00,0.00
35131574,-5.44,-5.02,14.86,-0.17,0.22,-0.19,0.00,0.00,0.00
35141231,-5.44,-5.02,14.86,-0.06,0.12,-0.12,0.00,0.00,0.00
35151736,-5.44,-5.02,14.86,0.21,-0.67,-0.20,0.00,0.00,0.00
35161668,4.60,1.95,1.38,0.21,-0.67,-0.20,0.00,0.00,0.00
35171186,4.60,1.95,1.38,-0.16,0.26,-0.06,0.00,0.00,0.00
35181244,4.60,1.95,1.38,-0.26,0.50,-0.08,0.00,0.00,0.00
35190891,-0.11,-1.04,14.14,-0.26,0.50,-0.08,0.00,0.00,0.00
35201501,8.77,1.15,11.84,-0.26,0.50,-0.08,0.00,0.00,0.00
35211377,8.77,1.15,11.84,-0.12,0.29,-0.09,0.00,0.00,0.00
35221234,8.77,1.15,11.84,-0.02,0.13,-0.04,0.00,0.00,0.00
35231542,11.41,1.00,22.53,-0.02,0.13,-0.04,0.00,0.00,0.00
35241252,11.41,1.00,22.53,0.12,-0.15,0.02,0.00,0.00,0.00
35250667,11.41,1.00,22.53,-0.13,0.35,-0.01,0.00,0.00,0.00
35260874,0.92,-4.79,11.03,-0.13,0.35,-0.01,0.00,0.00,0.00
35271610,-10.42,-4.48,5.40,-0.13,0.35,-0.01,0.00,0.00,0.00
35281222,-10.42,-4.48,5.40,0.04,-0.02,-0.02,0.00,0.00,0.00
35291277,-10.42,-4.48,5.40,0.16,-0.55,-0.10,0.00,0.00,0.00
35301504,11.30,1.38,10.11,0.16,-0.55,-0.10,0.00,0.00,0.00
35311292,11.30,1.38,10.11,0.05,0.26,0.22,0.00,0.00,0.00
35320565,11.30,1.38,10.11,0.07,0.05,0.16,0.00,0.00,0.00
35331200,-4.48,-4.79,13.79,0.07,0.05,0.16,0.00,0.00,0.00
35341205,-4.48,-4.79,13.79,0.12,0.04,0.21,0.00,0.00,0.00
35351440,-4.48,-4.79,13.79,0.27,-0.29,0.21,0.00,0.00,0.00
35361416,-4.48,-4.79,13.79,0.10,0.18,0.19,0.00,0.00,0.00
35371514,-5.17,-0.88,7.70,0.10,0.18,0.19,0.00,0.00,0.00
35381211,-5.17,-0.88,7.70,0.20,-0.24,0.04,0.00,0.00,0.00
35390604,-5.17,-0.88,7.70,0.10,0.03,0.10,0.00,0.00,0.00
35401161,-0.69,-1.84,1.53,0.10,0.03,0.10,0.00,0.00,0.00
35411415,-0.69,-1.84,1.53,0.04,0.02,0.02,0.00,0.00,0.00
35421265,-0.69,-1.84,1.53,0.04,0.09,0.05,0.00,0.00,0.00
35431270,-0.69,-1.84,1.53,0.11,-0.04,0.10,0.00,0.00,0.00
35441551,5.05,1.95,12.10,0.11,-0.04,0.10,0.00,0.00,0.00
35451315,5.05,1.95,12.10,-0.01,0.34,0.17,0.00,0.00,0.00
35461408,5.05,1.95,12.10,0.05,0.06,0.08,0.00,0.00,0.00
35471749,4.64,-1.46,15.79,0.05,0.06,0.08,0.00,0.00,0.00
35481268,4.64,-1.46,15.79,0.03,0.35,0.21,0.00,0.00,0.00
35491262,4.64,-1.46,15.79,0.08,-0.11,0.06,0.00,0.00,0.00
35501036,4.64,-1.46,15.79,0.10,-0.24,0.04,0.00,0.00,0.00
35511614,-5.29,-2.57,8.12,0.10,-0.24,0.04,0.00,0.00,0.00
35521228,-5.29,-2.57,8.12,0.23,-0.44,0.08,0.00,0.00,0.00
35531283,-5.29,-2.57,8.12,0.15,-0.33,0.09,0.00,0.00,0.00
35541524,6.21,-2.34,8.82,0.15,-0.33,0.09,0.00,0.00,0.00
35551336,6.21,-2.34,8.82,-0.16,0.69,0.23,0.00,0.00,0.00
35561424,6.21,-2.34,8.82,0.05,0.05,0.14,0.00,0.00,0.00
35570830,6.21,-2.34,8.82,0.19,-0.42,0.02,0.00,0.00,0.00
35581565,10.19,2.91,3.33,0.19,-0.42,0.02,0.00,0.00,0.00
35591229,10.19,2.91,3.33,0.09,0.13,0.22,0.00,0.00,0.00
35601314,10.19,2.91,3.33,0.03,0.18,0.21,0.00,0.00,0.00
35611742,-2.22,-4.29,16.74,0.03,0.18,0.21,0.00,0.00,0.00
35621287,-2.22,-4.29,16.74,0.06,0.06,0.20,0.00,0.00,0.00
35630605,-2.22,-4.29,16.74,0.16,-0.23,0.13,0.00,0.00,0.00
35640812,0.69,0.04,3.87,0.16,-0.23,0.13,0.00,0.00,0.00
35651508,-1.38,-1.11,4.71,0.16,-0.23,0.13,0.00,0.00,0.00
35661369,-1.38,-1.11,4.71,0.15,-0.25,0.22,0.00,0.00,0.00
35671379,-1.38,-1.11,4.71,0.05,0.05,0.29,0.00,0.00,0.00
35681540,5.09,-3.48,6.71,0.05,0.05,0.29,0.00,0.00,0.00
35691206,5.09,-3.48,6.71,0.20,-0.09,0.26,0.00,0.00,0.00
35700566,5.09,-3.48,6.71,0.04,0.31,0.26,0.00,0.00,0.00
35711246,-9.81,0.50,1.30,0.04,0.31,0.26,0.00,0.00,0.00
35721207,-9.81,0.50,1.30,0.09,-0.25,0.18,0.00,0.00,0.00
35731260,-9.81,0.50,1.30,0.07,-0.48,0.10,0.00,0.00,0.00
35741313,-9.81,0.50,1.30,0.07,0.06,0.30,0.00,0.00,0.00
35751659,-0.69,1.80,10.15,0.07,0.06,0.30,0.00,0.00,0.00
35761425,-0.69,1.80,10.15,0.15,-0.25,0.27,0.00,0.00,0.00
35770575,-0.69,1.80,10.15,-0.02,0.07,0.34,0.00,0.00,0.00
35781150,7.32,-3.33,0.80,-0.02,0.07,0.34,0.00,0.00,0.00
35791212,7.32,-3.33,0.80,0.29,-0.47,0.31,0.00,0.00,0.00
35801334,7.32,-3.33,0.80,-0.07,0.26,0.33,0.00,0.00,0.00
35811291,7.32,-3.33,0.80,-0.14,0.26,0.27,0.00,0.00,0.00
35821527,6.59,-0.84,17.66,-0.14,0.26,0.27,0.00,0.00,0.00
35831266,6.59,-0.84,17.66,0.12,-0.18,0.38,0.00,0.00,0.00
35840558,6.59,-0.84,17.66,-0.10,0.36,0.46,0.00,0.00,0.00
35851672,-7.39,-4.14,11.19,-0.10,0.36,0.46,0.00,0.00,0.00
35861404,-7.39,-4.14,11.19,0.09,-0.04,0.34,0.00,0.00,0.00
35870236,-7.39,-4.14,11.19,0.11,-0.20,0.36,0.00,0.00,0.00
35879846,-7.39,-4.14,11.19,0.09,-0.14,0.35,0.00,0.00,0.00
35891857,7.28,-0.77,1.00,0.09,-0.14,0.35,0.00,0.00,0.00
35901229,7.28,-0.77,1.00,-0.01,0.16,0.38,0.00,0.00,0.00
35911350,7.28,-0.77,1.00,-0.19,0.28,0.36,0.00,0.00,0.00
35921559,2.11,-2.26,13.60,-0.19,0.28,0.36,0.00,0.00,0.00
35931239,2.11,-2.26,13.60,0.18,-0.46,0.30,0.00,0.00,0.00
35941276,2.11,-2.26,13.60,-0.07,0.26,0.38,0.00,0.00,0.00
35950948,2.11,-2.26,13.60,-0.17,0.50,0.43,0.00,0.00,0.00
35961713,-14.98,-5.40,13.60,-0.17,0.50,0.43,0.00,0.00,0.00
35971295,-14.98,-5.40,13.60,-0.03,-0.12,0.32,0.00,0.00,0.00
35981274,-14.98,-5.40,13.60,0.13,-0.53,0.25,0.00,0.00,0.00
35991535,17.05,6.17,10.04,0.13,-0.53,0.25,0.00,0.00,0.00
36001235,17.05,6.17,10.04,-0.08,0.07,0.32,0.00,0.00,0.00
36010785,17.05,6.17,10.04,-0.27,0.50,0.45,0.00,0.00,0.00
36021139,17.05,6.17,10.04,-0.10,0.12,0.28,0.00,0.00,0.00
36031218,17.05,6.17,10.04,-0.00,-0.13,0.23,0.00,0.00,0.00
36041240,17.05,6.17,10.04,-0.12,0.08,0.16,0.00,0.00,0.00
36051250,17.05,6.17,10.04,-0.15,-0.02,0.09,0.00,0.00,0.00
36061608,-0.96,-2.99,-2.45,-0.15,-0.02,0.09,0.00,0.00,0.00
36071272,-0.96,-2.99,-2.45,-0.20,0.04,-0.11,0.00,0.00,0.00
36080568,-0.96,-2.99,-2.45,-0.15,-0.12,-0.16,0.00,0.00,0.00
36091262,-0.96,-2.99,-2.45,-0.35,0.35,-0.20,0.00,0.00,0.00
36101207,-0.96,-2.99,-2.45,-0.29,0.05,-0.31,0.00,0.00,0.00
36111284,-0.96,-2.99,-2.45,-0.06,-0.50,-0.31,0.00,0.00,0.00
36121257,-0.96,-2.99,-2.45,-0.17,-0.07,-0.21,0.00,0.00,0.00
36131536,5.79,-0.80,11.72,-0.17,-0.07,-0.21,0.00,0.00,0.00
36141245,5.79,-0.80,11.72,-0.30,0.37,-0.16,0.00,0.00,0.00
36150699,5.79,-0.80,11.72,-0.20,0.20,-0.17,0.00,0.00,0.00
36162705,2.91,0.50,11.96,-0.20,0.20,-0.17,0.00,0.00,0.00
36171284,2.91,0.50,11.96,-0.04,-0.48,-0.22,0.00,0.00,0.00
36181266,2.91,0.50,11.96,-0.22,0.09,-0.13,0.00,0.00,0.00
36191160,2.91,0.50,11.96,-0.37,0.36,-0.14,0.00,0.00,0.00
36201558,-1.46,-3.87,13.25,-0.37,0.36,-0.14,0.00,0.00,0.00
36211402,-1.46,-3.87,13.25,-0.26,-0.05,-0.26,0.00,0.00,0.00
36220577,-1.46,-3.87,13.25,-0.25,0.01,-0.25,0.00,0.00,0.00
36231662,3.60,1.57,3.26,-0.25,0.01,-0.25,0.00,0.00,0.00
36241250,3.60,1.57,3.26,-0.24,0.15,-0.27,0.00,0.00,0.00
36251268,3.60,1.57,3.26,-0.24,0.19,-0.26,0.00,0.00,0.00
36261051,3.60,1.57,3.26,-0.16,0.00,-0.27,0.00,0.00,0.00
36271619,6.21,2.30,8.35,-0.16,0.00,-0.27,0.00,0.00,0.00
36281201,6.21,2.30,8.35,-0.08,-0.28,-0.37,0.00,0.00,0.00
36291240,6.21,2.30,8.35,-0.27,0.19,-0.38,0.00,0.00,0.00
36301528,-1.00,-1.23,14.71,-0.27,0.19,-0.38,0.00,0.00,0.00
36311286,-1.00,-1.23,14.71,-0.25,0.30,-0.28,0.00,0.00,0.00
36321283,-1.00,-1.23,14.71,-0.15,-0.09,-0.41,0.00,0.00,0.00
36330852,-1.00,-1.23,14.71,0.10,-0.69,-0.41,0.00,0.00,0.00
36341549,8.46,0.46,9.50,0.10,-0.69,-0.41,0.00,0.00,0.00
36351366,8.46,0.46,9.50,-0.33,0.58,-0.25,0.00,0.00,0.00
36361358,8.46,0.46,9.50,-0.01,-0.04,-0.30,0.00,0.00,0.00
36371549,-3.98,0.11,5.59,-0.01,-0.04,-0.30,0.00,0.00,0.00
36381297,-3.98,0.11,5.59,-0.01,-0.04,-0.30,-14.19,10.88,-52.25
36390569,-3.98,0.11,5.59,-0.01,-0.04,-0.30,-13.12,10.62,-50.69
36400937,-3.98,0.11,5.59,-0.02,-0.31,-0.33,-13.12,10.62,-50.69
36411640,-4.29,-3.75,0.80,-0.02,-0.31,-0.33,-13.12,10.62,-50.69
36421276,-4.29,-3.75,0.80,-0.03,-0.09,-0.24,-13.12,10.62,-50.69
36431297,-4.29,-3.75,0.80,0.35,-0.82,-0.24,-13.12,10.62,-50.69
36441546,1.80,-2.76,6.09,0.35,-0.82,-0.24,-13.12,10.62,-50.69
36451320,1.80,-2.76,6.09,-0.35,0.90,0.13,-13.12,10.62,-50.69
36460739,1.80,-2.76,6.09,-0.35,0.90,0.13,-14.31,11.31,-51.12
36471143,1.80,-2.76,6.09,0.27,-0.46,0.02,-14.31,11.31,-51.12
36481270,1.80,-2.76,6.09,-0.24,0.40,0.04,-14.31,11.31,-51.12
36491228,1.80,-2.76,6.09,0.07,-0.02,0.14,-14.31,11.31,-51.12
36501273,1.80,-2.76,6.09,0.28,-0.40,0.11,-14.31,11.31,-51.12
36511604,9.31,1.34,16.71,0.28,-0.40,0.11,-14.31,11.31,-51.12
36521271,9.31,1.34,16.71,0.28,-0.40,0.11,-13.38,10.56,-52.00
36530584,9.31,1.34,16.71,0.28,-0.40,0.11,-13.12,9.88,-50.94
36541153,9.31,1.34,16.71,0.08,-0.06,0.16,-13.12,9.88,-50.94
36551330,9.31,1.34,16.71,0.14,-0.14,0.22,-13.12,9.88,-50.94
36561407,9.31,1.34,16.71,0.05,0.18,0.34,-13.12,9.88,-50.94
36571256,9.31,1.34,16.71,0.12,0.10,0.33,-13.12,9.88,-50.94
36581612,-2.57,1.34,10.69,0.12,0.10,0.33,-13.12,9.88,-50.94
36591276,-2.57,1.34,10.69,0.12,0.10,0.33,-14.06,11.25,-53.12
36600593,-2.57,1.34,10.69,0.12,0.10,0.33,-13.12,10.12,-51.00
36611775,-2.57,1.34,10.69,0.07,-0.05,0.27,-13.12,10.12,-51.00
36621226,-2.57,1.34,10.69,0.05,-0.07,0.18,-13.12,10.12,-51.00
36631377,-2.57,1.34,10.69,0.10,-0.23,0.19,-13.12,10.12,-51.00
36640985,-2.57,1.34,10.69,-0.12,0.16,0.14,-13.12,10.12,-51.00
36651518,7.59,-3.91,17.96,-0.12,0.16,0.14,-13.12,10.12,-51.00
36661318,7.59,-3.91,17.96,0.02,0.15,0.25,-13.12,10.12,-51.00
36671285,7.59,-3.91,17.96,0.01,0.27,0.24,-13.12,10.12,-51.00
36681606,7.59,-3.91,17.96,0.17,-0.22,0.13,-13.12,10.12,-51.00
36691326,7.59,-3.91,17.96,0.00,-0.10,0.09,-13.12,10.12,-51.00
36701286,7.59,-3.91,17.96,-0.09,0.10,0.09,-13.12,10.12,-51.00
36710936,7.59,-3.91,17.96,0.04,-0.11,0.12,-13.12,10.12,-51.00
36721570,7.59,-3.91,17.96,-0.01,0.16,0.12,-13.12,10.12,-51.00
36731221,7.59,-3.91,17.96,-0.02,0.22,0.07,-13.12,10.12,-51.00
36741236,7.59,-3.91,17.96,0.13,-0.35,0.02,-13.12,10.12,-51.00
36752399,7.59,-3.91,17.96,-0.05,-0.24,0.00,-13.12,10.12,-51.00
36761361,7.59,-3.91,17.96,-0.27,0.02,-0.06,-13.12,10.12,-51.00
36770560,7.59,-3.91,17.96,-0.01,-0.22,-0.04,-13.12,10.12,-51.00
36780820,7.59,-3.91,17.96,0.04,0.17,0.05,-13.12,10.12,-51.00
36791616,-4.25,0.19,3.26,0.04,0.17,0.05,-13.12,10.12,-51.00
36801234,-4.25,0.19,3.26,0.09,-0.34,-0.04,-13.12,10.12,-51.00
36811493,-4.25,0.19,3.26,-0.16,0.06,-0.08,-13.12,10.12,-51.00
36821571,-4.25,0.19,3.26,-0.24,0.09,-0.25,-13.12,10.12,-51.00
36831280,-4.25,0.19,3.26,-0.11,-0.23,-0.38,-13.12,10.12,-51.00
36840606,-4.25,0.19,3.26,-0.25,0.20,-0.32,-13.12,10.12,-51.00
36851157,-4.25,0.19,3.26,-0.21,0.12,-0.28,-13.12,10.12,-51.00
36861325,-4.25,0.19,3.26,-0.04,-0.21,-0.33,-13.12,10.12,-51.00
36871289,-4.25,0.19,3.26,-0.08,-0.10,-0.34,-13.12,10.12,-51.00
36881294,-4.25,0.19,3.26,-0.19,0.11,-0.34,-13.12,10.12,-51.00
36891635,-4.25,0.19,3.26,-0.18,-0.06,-0.42,-13.12,10.12,-51.00
36901237,-4.25,0.19,3.26,-0.15,-0.06,-0.43,-13.12,10.12,-51.00
36910672,-4.25,0.19,3.26,-0.12,-0.05,-0.38,-13.12,10.12,-51.00
36921131,-4.25,0.19,3.26,-0.07,-0.09,-0.36,-13.12,10.12,-51.00
36931284,-4.25,0.19,3.26,-0.12,0.07,-0.34,-13.12,10.12,-51.00
36941228,-4.25,0.19,3.26,-0.16,0.19,-0.31,-13.12,10.12,-51.00
36951328,-4.25,0.19,3.26,-0.15,0.12,-0.31,-13.12,10.12,-51.00
36961742,-4.25,0.19,3.26,-0.19,0.06,-0.39,-13.12,10.12,-51.00
36971253,-4.25,0.19,3.26,-0.11,-0.22,-0.47,-13.12,10.12,-51.00
36980609,-4.25,0.19,3.26,-0.11,-0.06,-0.41,-13.12,10.12,-51.00
36991779,-4.25,0.19,3.26,-0.21,0.18,-0.40,-13.12,10.12,-51.00
37001250,-4.25,0.19,3.26,-0.10,-0.02,-0.40,-13.12,10.12,-51.00
37011028,-4.25,0.19,3.26,-0.08,0.01,-0.36,-13.12,10.12,-51.00
37021034,-4.25,0.19,3.26,-0.11,0.08,-0.38,-13.12,10.12,-51.00
37031536,3.68,-2.11,7.09,-0.11,0.08,-0.38,-13.12,10.12,-51.00
37041264,3.68,-2.11,7.09,-0.06,0.02,-0.32,-13.12,10.12,-51.00
37051308,3.68,-2.11,7.09,-0.15,0.10,-0.36,-13.12,10.12,-51.00
37061647,3.68,-2.11,7.09,-0.12,0.01,-0.41,-13.12,10.12,-51.00
37071321,3.68,-2.11,7.09,-0.02,-0.15,-0.37,-13.12,10.12,-51.00
37081242,3.68,-2.11,7.09,0.00,-0.10,-0.34,-13.12,10.12,-51.00
37090923,3.68,-2.11,7.09,-0.03,0.13,-0.31,-13.12,10.12,-51.00
37101540,3.68,-2.11,7.09,-0.04,0.17,-0.32,-13.12,10.12,-51.00
37111324,3.68,-2.11,7.09,-0.02,-0.05,-0.37,-13.12,10.12,-51.00
37121303,3.68,-2.11,7.09,-0.09,0.04,-0.44,-13.12,10.12,-51.00
37131592,3.68,-2.11,7.09,-0.08,-0.04,-0.47,-13.12,10.12,-51.00
37141238,3.68,-2.11,7.09,-0.04,-0.06,-0.46,-13.12,10.12,-51.00
37150316,3.68,-2.11,7.09,-0.11,0.14,-0.48,-13.12,10.12,-51.00
37159783,3.68,-2.11,7.09,-0.10,0.04,-0.52,-13.12,10.12,-51.00
37171932,4.18,-0.61,13.33,-0.10,0.04,-0.52,-13.12,10.12,-51.00
37181264,4.18,-0.61,13.33,-0.11,0.23,-0.48,-13.12,10.12,-51.00
37191322,4.18,-0.61,13.33,0.04,-0.22,-0.53,-13.12,10.12,-51.00
37201692,4.18,-0.61,13.33,-0.01,-0.24,-0.52,-13.12,10.12,-51.00
37211338,4.18,-0.61,13.33,-0.21,0.25,-0.47,-13.12,10.12,-51.00
37220588,4.18,-0.61,13.33,-0.05,-0.06,-0.50,-13.12,10.12,-51.00
37231218,4.18,-0.61,13.33,0.08,-0.20,-0.46,-13.12,10.12,-51.00
37241268,4.18,-0.61,13.33,-0.14,0.42,-0.43,-13.12,10.12,-51.00
37251265,4.18,-0.61,13.33,-0.14,0.42,-0.43,-15.81,11.06,-53.12
37261436,4.18,-0.61,13.33,0.03,-0.21,-0.58,-15.81,11.06,-53.12
37271613,4.18,-0.61,13.33,-0.18,0.18,-0.61,-15.81,11.06,-53.12
37281262,4.18,-0.61,13.33,-0.06,-0.01,-0.59,-15.81,11.06,-53.12
37290604,4.18,-0.61,13.33,-0.06,0.20,-0.54,-15.81,11.06,-53.12
37301239,4.18,-0.61,13.33,0.02,0.06,-0.48,-15.81,11.06,-53.12
37311313,4.18,-0.61,13.33,0.08,-0.08,-0.39,-15.81,11.06,-53.12
37321264,4.18,-0.61,13.33,0.03,0.06,-0.30,-15.81,11.06,-53.12
37331277,4.18,-0.61,13.33,0.08,0.05,-0.16,-15.81,11.06,-53.12
37341618,4.18,-0.61,13.33,0.02,0.30,-0.10,-15.81,11.06,-53.12
37351389,4.18,-0.61,13.33,0.08,0.11,-0.10,-15.81,11.06,-53.12
37361437,4.18,-0.61,13.33,0.12,-0.13,-0.07,-15.81,11.06,-53.12
37371737,4.18,-0.61,13.33,-0.00,0.03,0.03,-15.81,11.06,-53.12
37381278,4.18,-0.61,13.33,0.05,-0.10,0.17,-15.81,11.06,-53.12
37391281,4.18,-0.61,13.33,0.20,-0.25,0.38,-15.81,11.06,-53.12
37401082,4.18,-0.61,13.33,0.18,0.02,0.57,-15.81,11.06,-53.12
37411660,4.18,-0.61,13.33,0.18,0.09,0.64,-15.81,11.06,-53.12
37421277,4.18,-0.61,13.33,0.24,0.03,0.66,-15.81,11.06,-53.12
37431335,4.18,-0.61,13.33,0.31,-0.06,0.62,-15.81,11.06,-53.12
37441595,4.18,-0.61,13.33,0.33,-0.23,0.54,-15.81,11.06,-53.12
37451237,4.18,-0.61,13.33,0.24,-0.07,0.48,-15.81,11.06,-53.12
37461370,4.18,-0.61,13.33,0.14,0.23,0.48,-15.81,11.06,-53.12
37470926,4.18,-0.61,13.33,0.21,0.15,0.43,-15.81,11.06,-53.12
37481636,4.18,-0.61,13.33,0.34,-0.03,0.47,-15.81,11.06,-53.12
37491275,4.18,-0.61,13.33,0.32,-0.08,0.51,-15.81,11.06,-53.12
37501342,4.18,-0.61,13.33,0.24,0.05,0.52,-15.81,11.06,-53.12
37511656,4.18,-0.61,13.33,0.21,0.23,0.48,-15.81,11.06,-53.12
37521280,4.18,-0.61,13.33,0.30,0.01,0.43,-15.81,11.06,-53.12
37530606,4.18,-0.61,13.33,0.29,-0.07,0.39,-15.81,11.06,-53.12
37540888,4.18,-0.61,13.33,0.19,0.10,0.38,-15.81,11.06,-53.12
37551708,-0.04,1.07,7.66,0.19,0.10,0.38,-15.81,11.06,-53.12
37561402,-0.04,1.07,7.66,0.20,-0.02,0.31,-15.81,11.06,-53.12
37571301,-0.04,1.07,7.66,0.16,-0.02,0.28,-15.81,11.06,-53.12
37581570,-0.04,1.07,7.66,0.16,-0.03,0.33,-15.81,11.06,-53.12
37591280,-0.04,1.07,7.66,0.09,0.15,0.39,-15.81,11.06,-53.12
37601502,-0.04,1.07,7.66,0.12,-0.01,0.37,-15.81,11.06,-53.12
37611308,-0.04,1.07,7.66,0.13,-0.12,0.34,-15.81,11.06,-53.12
37621329,-0.04,1.07,7.66,0.06,0.04,0.35,-15.81,11.06,-53.12
37631297,-0.04,1.07,7.66,0.08,0.04,0.37,-15.81,11.06,-53.12
37641331,-0.04,1.07,7.66,0.09,-0.01,0.37,-15.81,11.06,-53.12
37651546,-0.04,1.07,7.66,0.06,-0.03,0.34,-15.81,11.06,-53.12
37661349,-0.04,1.07,7.66,0.09,-0.12,0.34,-15.81,11.06,-53.12
37670692,-0.04,1.07,7.66,0.10,-0.12,0.42,-15.81,11.06,-53.12
37681191,-0.04,1.07,7.66,0.10,-0.04,0.51,-15.81,11.06,-53.12
37691227,-0.04,1.07,7.66,0.13,-0.07,0.59,-15.81,11.06,-53.12
37701275,-0.04,1.07,7.66,0.14,-0.03,0.64,-15.81,11.06,-53.12
37711384,-0.04,1.07,7.66,0.19,-0.07,0.70,-15.81,11.06,-53.12
37721592,-0.04,1.07,7.66,0.22,-0.10,0.78,-15.81,11.06,-53.12
37731277,-0.04,1.07,7.66,0.17,0.05,0.85,-15.81,11.06,-53.12
37740620,-0.04,1.07,7.66,0.17,0.06,0.88,-15.81,11.06,-53.12
37751743,-0.04,1.07,7.66,0.18,0.03,0.89,-15.81,11.06,-53.12
37761353,-0.04,1.07,7.66,0.22,-0.04,0.94,-15.81,11.06,-53.12
37771285,-0.04,1.07,7.66,0.27,-0.10,1.07,-15.81,11.06,-53.12
37781018,-0.04,1.07,7.66,0.23,0.02,1.20,-15.81,11.06,-53.12
37791580,-0.04,1.07,7.66,0.22,0.10,1.31,-15.81,11.06,-53.12
37800153,-0.04,1.07,7.66,0.36,-0.03,1.46,-15.81,11.06,-53.12
37810912,-0.04,1.07,7.66,0.47,-0.16,1.63,-15.81,11.06,-53.12
37821537,2.87,-2.80,8.73,0.47,-0.16,1.63,-15.81,11.06,-53.12
37831613,1.04,-4.52,6.86,0.47,-0.16,1.63,-15.81,11.06,-53.12
37840613,1.04,-4.52,6.86,0.51,-0.01,1.99,-15.81,11.06,-53.12
37850871,1.04,-4.52,6.86,0.56,-0.08,2.08,-15.81,11.06,-53.12
37860979,1.04,-4.52,6.86,0.51,-0.08,2.12,-15.81,11.06,-53.12
37870670,1.04,-4.52,6.86,0.48,-0.06,2.15,-15.81,11.06,-53.12
37880597,1.04,-4.52,6.86,0.53,-0.15,2.19,-15.81,11.06,-53.12
37890514,1.04,-4.52,6.86,0.53,-0.14,2.17,-15.81,11.06,-53.12
37900556,1.04,-4.52,6.86,0.46,0.02,2.08,-15.81,11.06,-53.12
37910728,1.04,-4.52,6.86,0.43,-0.03,1.98,-15.81,11.06,-53.12
37920816,1.04,-4.52,6.86,0.42,-0.14,1.88,-15.81,11.06,-53.12
37930985,1.04,-4.52,6.86,0.38,-0.11,1.83,-15.81,11.06,-53.12
37940585,1.04,-4.52,6.86,0.34,-0.07,1.79,-15.81,11.06,-53.12
37950752,1.04,-4.52,6.86,0.29,-0.05,1.72,-15.81,11.06,-53.12
37961065,1.04,-4.52,6.86,0.26,-0.06,1.62,-15.81,11.06,-53.12
37970565,1.04,-4.52,6.86,0.25,-0.16,1.50,-15.81,11.06,-53.12
37980641,1.04,-4.52,6.86,0.19,-0.04,1.36,-15.81,11.06,-53.12
37990866,1.04,-4.52,6.86,0.13,0.04,1.23,-15.81,11.06,-53.12
38001029,1.04,-4.52,6.86,0.08,-0.01,1.06,-15.81,11.06,-53.12
38010364,1.04,-4.52,6.86,-0.06,0.06,0.80,-15.81,11.06,-53.12
38020094,1.04,-4.52,6.86,-0.15,0.01,0.49,-15.81,11.06,-53.12
38031307,0.38,2.11,6.09,-0.15,0.01,0.49,-15.81,11.06,-53.12
38040563,0.38,2.11,6.09,-0.17,0.02,0.06,-15.81,11.06,-53.12
38050614,0.38,2.11,6.09,-0.25,0.04,-0.16,-15.81,11.06,-53.12
38060961,0.38,2.11,6.09,-0.31,0.02,-0.38,-15.81,11.06,-53.12
38070991,0.38,2.11,6.09,-0.31,-0.01,-0.55,-15.81,11.06,-53.12
38080568,0.38,2.11,6.09,-0.31,-0.03,-0.68,-15.81,11.06,-53.12
38090591,0.38,2.11,6.09,-0.35,0.07,-0.79,-15.81,11.06,-53.12
38100900,0.38,2.11,6.09,-0.39,0.18,-0.87,-15.81,11.06,-53.12
38110706,0.38,2.11,6.09,-0.40,0.17,-0.90,-15.81,11.06,-53.12
38120647,0.38,2.11,6.09,-0.43,0.03,-0.95,-15.81,11.06,-53.12
38131049,0.38,2.11,6.09,-0.41,0.02,-0.97,-15.81,11.06,-53.12
38140583,0.38,2.11,6.09,-0.42,0.14,-0.94,-15.81,11.06,-53.12
38152127,0.38,2.11,6.09,-0.39,0.08,-0.93,-15.81,11.06,-53.12
38160507,0.38,2.11,6.09,-0.41,0.05,-0.94,-15.81,11.06,-53.12
38170911,0.38,2.11,6.09,-0.41,0.04,-0.91,-15.81,11.06,-53.12
38180594,0.38,2.11,6.09,-0.38,0.02,-0.85,-15.81,11.06,-53.12
38190588,0.38,2.11,6.09,-0.39,0.04,-0.81,-15.81,11.06,-53.12
38200909,0.38,2.11,6.09,-0.37,-0.02,-0.75,-15.81,11.06,-53.12
38210798,0.38,2.11,6.09,-0.35,-0.05,-0.65,-15.81,11.06,-53.12
38220643,0.38,2.11,6.09,-0.31,-0.10,-0.54,-15.81,11.06,-53.12
38230926,0.38,2.11,6.09,-0.26,-0.15,-0.46,-15.81,11.06,-53.12
38240931,0.38,2.11,6.09,-0.21,-0.16,-0.37,-15.81,11.06,-53.12
38250565,0.38,2.11,6.09,-0.17,-0.12,-0.27,-15.81,11.06,-53.12
38260750,0.38,2.11,6.09,-0.17,-0.04,-0.18,-15.81,11.06,-53.12
38271016,0.38,2.11,6.09,-0.17,-0.03,-0.13,-15.81,11.06,-53.12
38280588,0.38,2.11,6.09,-0.16,-0.02,-0.10,-15.81,11.06,-53.12
38290579,0.38,2.11,6.09,-0.17,0.02,-0.07,-15.81,11.06,-53.12
38300218,0.38,2.11,6.09,-0.13,-0.01,-0.04,-15.81,11.06,-53.12
38310983,0.38,2.11,6.09,-0.12,-0.00,-0.00,-15.81,11.06,-53.12
38320658,0.38,2.11,6.09,-0.12,0.03,0.03,-15.81,11.06,-53.12
38330711,0.38,2.11,6.09,-0.07,-0.05,0.07,-15.81,11.06,-53.12
38340955,0.38,2.11,6.09,-0.06,-0.03,0.11,-15.81,11.06,-53.12
38352015,0.38,2.11,6.09,-0.06,-0.03,0.11,-15.81,11.06,-53.12
38360707,0.38,2.11,6.09,-0.01,-0.16,0.10,-15.81,11.06,-53.12
38370227,0.38,2.11,6.09,-0.04,-0.10,0.07,-15.81,11.06,-53.12
38380917,0.38,2.11,6.09,-0.12,-0.01,0.01,-15.81,11.06,-53.12
38390609,0.38,2.11,6.09,-0.19,0.02,-0.09,-15.81,11.06,-53.12
38400794,0.38,2.11,6.09,-0.24,0.08,-0.17,-15.81,11.06,-53.12
38411039,0.38,2.11,6.09,-0.26,0.11,-0.22,-15.81,11.06,-53.12
38420273,0.38,2.11,6.09,-0.28,0.14,-0.26,-15.81,11.06,-53.12
38430071,0.38,2.11,6.09,-0.27,0.12,-0.31,-15.81,11.06,-53.12
38441232,-4.94,-0.30,8.28,-0.27,0.12,-0.31,-15.81,11.06,-53.12
38450923,-4.94,-0.30,8.28,-0.17,-0.13,-0.35,-15.81,11.06,-53.12
38460810,-4.94,-0.30,8.28,-0.28,0.17,-0.37,-15.81,11.06,-53.12
38470555,-4.94,-0.30,8.28,-0.32,0.22,-0.41,-15.81,11.06,-53.12
38480899,-4.94,-0.30,8.28,-0.26,-0.01,-0.45,-15.81,11.06,-53.12
38490612,-4.94,-0.30,8.28,-0.26,-0.04,-0.51,-15.81,11.06,-53.12
38500591,-4.94,-0.30,8.28,-0.24,-0.13,-0.54,-15.81,11.06,-53.12
38510790,-4.94,-0.30,8.28,-0.22,-0.10,-0.51,-15.81,11.06,-53.12
38520946,-4.94,-0.30,8.28,-0.29,0.04,-0.51,-15.81,11.06,-53.12
38530679,-4.94,-0.30,8.28,-0.34,0.05,-0.55,-15.81,11.06,-53.12
38540366,-4.94,-0.30,8.28,-0.36,0.01,-0.56,-15.81,11.06,-53.12
38551049,-4.94,-0.30,8.28,-0.34,-0.06,-0.56,-15.81,11.06,-53.12
38560758,-4.94,-0.30,8.28,-0.30,-0.03,-0.56,-15.81,11.06,-53.12
38570621,-4.94,-0.30,8.28,-0.27,0.05,-0.55,-15.81,11.06,-53.12
38580586,-4.94,-0.30,8.28,-0.26,0.09,-0.56,-15.81,11.06,-53.12
38590919,-4.94,-0.30,8.28,-0.24,0.04,-0.58,-15.81,11.06,-53.12
38600700,-4.94,-0.30,8.28,-0.21,-0.06,-0.62,-15.81,11.06,-53.12
38610494,-4.94,-0.30,8.28,-0.17,-0.07,-0.62,-15.81,11.06,-53.12
38620937,-4.94,-0.30,8.28,-0.17,0.03,-0.62,-15.81,11.06,-53.12
38630685,-4.94,-0.30,8.28,-0.18,0.11,-0.61,-15.81,11.06,-53.12
38640614,-4.94,-0.30,8.28,-0.16,0.04,-0.58,-15.81,11.06,-53.12
38650996,-4.94,-0.30,8.28,-0.12,-0.01,-0.53,-15.81,11.06,-53.12
38660702,-4.94,-0.30,8.28,-0.08,-0.01,-0.44,-15.81,11.06,-53.12
38670605,-4.94,-0.30,8.28,-0.03,-0.04,-0.35,-15.81,11.06,-53.12
38680207,-4.94,-0.30,8.28,-0.04,-0.01,-0.27,-15.81,11.06,-53.12
38690963,-4.94,-0.30,8.28,-0.11,0.04,-0.22,-15.81,11.06,-53.12
38700584,-4.94,-0.30,8.28,-0.13,-0.01,-0.20,-15.81,11.06,-53.12
38710744,-4.94,-0.30,8.28,-0.11,-0.11,-0.18,-15.81,11.06,-53.12
38720887,-4.94,-0.30,8.28,-0.08,-0.08,-0.12,-15.81,11.06,-53.12
38730680,-4.94,-0.30,8.28,-0.06,-0.02,-0.03,-15.81,11.06,-53.12
38740599,-4.94,-0.30,8.28,-0.04,-0.00,0.04,-15.81,11.06,-53.12
38750344,-4.94,-0.30,8.28,-0.03,-0.02,0.11,-15.81,11.06,-53.12
38761739,-4.94,-0.30,8.28,-0.04,-0.05,0.17,-15.81,11.06,-53.12
38770578,-4.94,-0.30,8.28,-0.04,-0.10,0.19,-15.81,11.06,-53.12
38780618,-4.94,-0.30,8.28,-0.05,-0.08,0.16,-15.81,11.06,-53.12
38790910,-4.94,-0.30,8.28,-0.09,-0.03,0.11,-15.81,11.06,-53.12
38800616,-4.94,-0.30,8.28,-0.13,-0.01,0.05,-15.81,11.06,-53.12
38810659,-4.94,-0.30,8.28,-0.18,-0.00,0.02,-15.81,11.06,-53.12
38821406,-4.94,-0.30,8.28,-0.20,0.02,0.01,-15.81,11.06,-53.12
38831018,-4.94,-0.30,8.28,-0.18,-0.01,0.02,-15.81,11.06,-53.12
38840636,-4.94,-0.30,8.28,-0.19,-0.00,0.02,-15.81,11.06,-53.12
38850578,-4.94,-0.30,8.28,-0.23,0.03,0.00,-15.81,11.06,-53.12
38861663,-4.94,-0.30,8.28,-0.26,0.03,-0.01,-15.81,11.06,-53.12
38870606,-4.94,-0.30,8.28,-0.27,0.02,-0.01,-15.81,11.06,-53.12
38880570,-4.94,-0.30,8.28,-0.25,-0.02,0.01,-15.81,11.06,-53.12
38892087,-4.94,-0.30,8.28,-0.22,-0.03,0.05,-15.81,11.06,-53.12
38900918,-4.94,-0.30,8.28,-0.18,-0.00,0.08,-15.81,11.06,-53.12
38911388,-4.94,-0.30,8.28,-0.19,0.06,0.08,-15.81,11.06,-53.12
38920346,-4.94,-0.30,8.28,-0.20,0.08,0.05,-15.81,11.06,-53.12
38931622,-4.94,-0.30,8.28,-0.15,-0.10,0.02,-15.81,11.06,-53.12
38941597,-4.94,-0.30,8.28,-0.13,-0.17,0.01,-15.81,11.06,-53.12
38951445,-4.94,-0.30,8.28,-0.12,-0.08,0.02,-15.81,11.06,-53.12
38961288,-4.94,-0.30,8.28,-0.09,-0.01,0.04,-15.81,11.06,-53.12
38971548,-4.94,-0.30,8.28,-0.14,0.16,0.06,-15.81,11.06,-53.12
38981353,-4.94,-0.30,8.28,-0.12,0.13,0.06,-15.81,11.06,-53.12
38990283,-4.94,-0.30,8.28,-0.05,-0.02,0.04,-15.81,11.06,-53.12
39001545,-4.94,-0.30,8.28,-0.06,-0.05,0.02,-15.81,11.06,-53.12
39011287,-4.94,-0.30,8.28,-0.07,-0.02,0.02,-15.81,11.06,-53.12
39021239,-4.94,-0.30,8.28,-0.04,0.02,0.05,-15.81,11.06,-53.12
39031541,-4.94,-0.30,8.28,-0.07,-0.02,0.09,-15.81,11.06,-53.12
39041239,-4.94,-0.30,8.28,-0.09,-0.11,0.11,-15.81,11.06,-53.12
39051280,-4.94,-0.30,8.28,-0.12,-0.04,0.15,-15.81,11.06,-53.12
39060291,-4.94,-0.30,8.28,-0.11,0.01,0.21,-15.81,11.06,-53.12
39071517,-4.94,-0.30,8.28,-0.12,0.07,0.23,-15.81,11.06,-53.12
39081148,-4.94,-0.30,8.28,-0.16,0.09,0.23,-15.81,11.06,-53.12
39091152,-4.94,-0.30,8.28,-0.16,0.02,0.24,-15.81,11.06,-53.12
39101453,-4.94,-0.30,8.28,-0.14,-0.05,0.25,-15.81,11.06,-53.12
39111116,-4.94,-0.30,8.28,-0.10,-0.13,0.22,-15.81,11.06,-53.12
39121266,-4.94,-0.30,8.28,-0.08,-0.09,0.17,-15.81,11.06,-53.12
39130231,-4.94,-0.30,8.28,-0.10,-0.02,0.09,-15.81,11.06,-53.12
39141496,-4.94,-0.30,8.28,-0.11,-0.03,-0.01,-15.81,11.06,-53.12
38951445,-4.94,-0.30,8.28,-0.12,-0.08,0.02,-15.81,11.06,-53.12
38961288,-4.94,-0.30,8.28,-0.09,-0.01,0.04,-15.81,11.06,-53.12
38971548,-4.94,-0.30,8.28,-0.14,0.16,0.06,-15.81,11.06,-53.12
38981353,-4.94,-0.30,8.28,-0.12,0.13,0.06,-15.81,11.06,-53.12
38990283,-4.94,-0.30,8.28,-0.05,-0.02,0.04,-15.81,11.06,-53.12
39001545,-4.94,-0.30,8.28,-0.06,-0.05,0.02,-15.81,11.06,-53.12
39011287,-4.94,-0.30,8.28,-0.07,-0.02,0.02,-15.81,11.06,-53.12
39021239,-4.94,-0.30,8.28,-0.04,0.02,0.05,-15.81,11.06,-53.12
39031541,-4.94,-0.30,8.28,-0.07,-0.02,0.09,-15.81,11.06,-53.12
39041239,-4.94,-0.30,8.28,-0.09,-0.11,0.11,-15.81,11.06,-53.12
39051280,-4.94,-0.30,8.28,-0.12,-0.04,0.15,-15.81,11.06,-53.12
39060291,-4.94,-0.30,8.28,-0.11,0.01,0.21,-15.81,11.06,-53.12
39071517,-4.94,-0.30,8.28,-0.12,0.07,0.23,-15.81,11.06,-53.12
39081148,-4.94,-0.30,8.28,-0.16,0.09,0.23,-15.81,11.06,-53.12
39091152,-4.94,-0.30,8.28,-0.16,0.02,0.24,-15.81,11.06,-53.12
39101453,-4.94,-0.30,8.28,-0.14,-0.05,0.25,-15.81,11.06,-53.12
39111116,-4.94,-0.30,8.28,-0.10,-0.13,0.22,-15.81,11.06,-53.12
39121266,-4.94,-0.30,8.28,-0.08,-0.09,0.17,-15.81,11.06,-53.12
39130231,-4.94,-0.30,8.28,-0.10,-0.02,0.09,-15.81,11.06,-53.12
