timestamp,accX,accY,accZ,gyroX,gyroY,gyroZ,magX,magY,magZ
83168648,-4.94,-0.30,8.28,-0.34,-0.05,-0.59,-15.81,11.06,-53.12
83183234,-4.94,-0.30,8.28,-0.33,-0.05,-0.60,-15.81,11.06,-53.12
83187155,-4.94,-0.30,8.28,0.05,-0.09,0.21,-15.81,11.06,-53.12
83196280,-4.94,-0.30,8.28,0.05,-0.23,0.23,-15.81,11.06,-53.12
83206637,-4.94,-0.30,8.28,0.05,-0.23,0.23,-10.31,-2.88,-49.88
83217441,-4.94,-0.30,8.28,-0.11,-0.11,0.15,-10.31,-2.88,-49.88
83227112,-4.94,-0.30,8.28,-0.14,0.10,0.28,-10.31,-2.88,-49.88
83237224,-4.94,-0.30,8.28,-0.02,0.10,0.43,-10.31,-2.88,-49.88
83246762,-4.94,-0.30,8.28,0.06,0.03,0.39,-10.31,-2.88,-49.88
83257461,-4.94,-0.30,8.28,0.11,-0.03,0.42,-10.31,-2.88,-49.88
83267129,-4.94,-0.30,8.28,0.06,-0.14,0.44,-10.31,-2.88,-49.88
83277240,-4.94,-0.30,8.28,-0.05,-0.14,0.35,-10.31,-2.88,-49.88
83287194,-4.94,-0.30,8.28,-0.05,-0.09,0.31,-10.31,-2.88,-49.88
83297440,-1.46,-2.38,9.50,-0.05,-0.09,0.31,-10.31,-2.88,-49.88
83307235,-1.46,-2.38,9.50,-0.11,0.31,0.35,-10.31,-2.88,-49.88
83316810,-1.46,-2.38,9.50,0.05,-0.24,0.27,-10.31,-2.88,-49.88
83327457,-1.46,-2.38,9.50,-0.05,-0.05,0.28,-10.31,-2.88,-49.88
83337151,-1.46,-2.38,9.50,-0.24,0.39,0.25,-10.31,-2.88,-49.88
83347159,-1.46,-2.38,9.50,-0.01,-0.24,0.11,-10.31,-2.88,-49.88
83357155,-1.46,-2.38,9.50,-0.12,-0.00,0.06,-10.31,-2.88,-49.88
83368935,-5.09,0.27,13.41,-0.12,-0.00,0.06,-10.31,-2.88,-49.88
83377970,-5.09,0.27,13.41,-0.22,-0.19,-0.01,-10.31,-2.88,-49.88
83387971,-5.09,0.27,13.41,-0.14,-0.13,0.00,-10.31,-2.88,-49.88
83398122,-5.09,0.27,13.41,-0.29,0.37,0.07,-10.31,-2.88,-49.88
83407114,-5.09,0.27,13.41,-0.21,-0.04,-0.03,-10.31,-2.88,-49.88
83417000,-5.09,0.27,13.41,-0.17,-0.28,-0.18,-10.31,-2.88,-49.88
83428186,-5.09,0.27,13.41,-0.05,-0.38,-0.19,-10.31,-2.88,-49.88
83437870,-5.09,0.27,13.41,-0.23,-0.05,-0.00,-10.31,-2.88,-49.88
83447958,-5.09,0.27,13.41,-0.24,0.12,-0.04,-10.31,-2.88,-49.88
83457765,-5.09,0.27,13.41,-0.16,0.31,0.13,-10.31,-2.88,-49.88
83468092,-5.09,0.27,13.41,-0.13,0.08,-0.01,-10.31,-2.88,-49.88
83477920,-5.09,0.27,13.41,-0.27,0.06,-0.20,-10.31,-2.88,-49.88
83486815,-5.09,0.27,13.41,-0.17,-0.20,-0.21,-10.31,-2.88,-49.88
83498058,-5.09,0.27,13.41,-0.19,-0.25,-0.26,-10.31,-2.88,-49.88
83507727,-5.09,0.27,13.41,-0.25,-0.15,-0.33,-10.31,-2.88,-49.88
83517778,-5.09,0.27,13.41,-0.20,0.04,-0.25,-10.31,-2.88,-49.88
83528053,-5.09,0.27,13.41,-0.25,0.08,-0.21,-10.31,-2.88,-49.88
83537662,-5.09,0.27,13.41,-0.19,-0.26,-0.28,-10.31,-2.88,-49.88
83547856,-5.09,0.27,13.41,-0.05,-0.23,-0.31,-10.31,-2.88,-49.88
83556743,-5.09,0.27,13.41,-0.28,0.47,-0.43,-10.31,-2.88,-49.88
83568082,-5.09,0.27,13.41,-0.36,0.12,-0.51,-10.31,-2.88,-49.88
83577689,-5.09,0.27,13.41,-0.08,-0.45,-0.45,-10.31,-2.88,-49.88
83587812,-5.09,0.27,13.41,-0.25,-0.12,-0.34,-10.31,-2.88,-49.88
83597985,-5.09,0.27,13.41,-0.21,-0.39,-0.50,-10.31,-2.88,-49.88
83607652,-5.09,0.27,13.41,-0.19,0.05,-0.40,-10.31,-2.88,-49.88
83617767,-5.09,0.27,13.41,-0.28,0.69,-0.10,-10.31,-2.88,-49.88
83626842,-5.09,0.27,13.41,-0.07,-0.10,-0.21,-10.31,-2.88,-49.88
83638064,-5.09,0.27,13.41,0.04,-0.57,-0.26,-10.31,-2.88,-49.88
83647689,-5.09,0.27,13.41,-0.10,-0.14,-0.28,-10.31,-2.88,-49.88
83657644,-5.09,0.27,13.41,-0.18,0.03,-0.21,-10.31,-2.88,-49.88
83667951,-5.09,0.27,13.41,0.01,-0.24,-0.12,-10.31,-2.88,-49.88
83677617,-5.09,0.27,13.41,-0.11,0.28,-0.06,-10.31,-2.88,-49.88
83687864,-5.09,0.27,13.41,0.09,0.03,0.08,-10.31,-2.88,-49.88
83697936,-5.09,0.27,13.41,0.24,-0.34,0.02,-10.31,-2.88,-49.88
83707908,-5.09,0.27,13.41,-0.16,0.13,-0.05,-10.31,-2.88,-49.88
83717597,-5.09,0.27,13.41,-0.10,0.05,-0.09,-10.31,-2.88,-49.88
83727655,-5.09,0.27,13.41,0.21,-0.18,-0.02,-10.31,-2.88,-49.88
83737967,-5.09,0.27,13.41,-0.04,0.26,-0.17,-10.31,-2.88,-49.88
83747626,-5.09,0.27,13.41,-0.18,0.06,-0.16,-10.31,-2.88,-49.88
83757694,-5.09,0.27,13.41,0.09,-0.21,-0.07,-10.31,-2.88,-49.88
83767809,-5.09,0.27,13.41,-0.18,0.21,0.07,-10.31,-2.88,-49.88
83778121,-5.09,0.27,13.41,0.17,-0.38,0.09,-10.31,-2.88,-49.88
83787854,-5.09,0.27,13.41,0.28,-0.26,0.06,-10.31,-2.88,-49.88
83797470,-5.09,0.27,13.41,-0.01,0.67,0.21,-10.31,-2.88,-49.88
83807540,-5.09,0.27,13.41,-0.07,0.65,0.19,-10.31,-2.88,-49.88
83817989,-5.09,0.27,13.41,0.16,-0.50,0.06,-10.31,-2.88,-49.88
83827688,-5.09,0.27,13.41,-0.04,-0.30,-0.35,-10.31,-2.88,-49.88
83837588,-5.09,0.27,13.41,-0.27,0.35,-0.28,-10.31,-2.88,-49.88
83847909,-5.09,0.27,13.41,-0.12,0.15,-0.22,-10.31,-2.88,-49.88
83857768,-5.09,0.27,13.41,-0.25,0.22,-0.05,-10.31,-2.88,-49.88
83867394,-5.09,0.27,13.41,0.27,-0.39,0.02,-10.31,-2.88,-49.88
83877921,-5.09,0.27,13.41,0.46,-0.35,0.01,-10.31,-2.88,-49.88
83887620,-5.09,0.27,13.41,0.21,0.41,-0.01,-10.31,-2.88,-49.88
83897679,-5.09,0.27,13.41,-0.19,0.66,0.12,-10.31,-2.88,-49.88
83907570,-5.09,0.27,13.41,-0.07,-0.01,0.17,-10.31,-2.88,-49.88
83917932,-5.09,0.27,13.41,0.11,-0.51,0.05,-10.31,-2.88,-49.88
83927692,-5.09,0.27,13.41,0.08,-0.17,0.01,-10.31,-2.88,-49.88
83937314,-5.09,0.27,13.41,0.09,0.35,0.07,-10.31,-2.88,-49.88
83947905,-5.09,0.27,13.41,-0.03,0.72,0.24,-10.31,-2.88,-49.88
83957632,-5.09,0.27,13.41,0.13,0.18,0.29,-10.31,-2.88,-49.88
83967786,-5.09,0.27,13.41,0.04,-0.28,0.33,-10.31,-2.88,-49.88
83977624,-5.09,0.27,13.41,0.18,-0.50,0.21,-10.31,-2.88,-49.88
83988000,-5.09,0.27,13.41,0.28,-0.14,0.32,-10.31,-2.88,-49.88
83997724,-5.09,0.27,13.41,0.31,0.27,0.59,-10.31,-2.88,-49.88
84007310,-5.09,0.27,13.41,0.36,0.21,0.52,-10.31,-2.88,-49.88
84017887,-5.09,0.27,13.41,-0.11,0.53,0.43,-10.31,-2.88,-49.88
84027601,-5.09,0.27,13.41,0.15,-0.34,0.59,-10.31,-2.88,-49.88
84037649,-5.09,0.27,13.41,0.37,-0.64,0.28,-10.31,-2.88,-49.88
84047982,-5.09,0.27,13.41,0.01,0.24,0.25,-10.31,-2.88,-49.88
84057670,-5.09,0.27,13.41,-0.15,0.67,0.50,-10.31,-2.88,-49.88
84067682,-5.09,0.27,13.41,0.48,-0.43,0.51,-10.31,-2.88,-49.88
84077275,-5.09,0.27,13.41,0.45,-0.48,0.56,-10.31,-2.88,-49.88
84087966,-5.09,0.27,13.41,0.09,0.20,0.52,-10.31,-2.88,-49.88
84097573,-5.09,0.27,13.41,0.09,0.02,0.51,-10.31,-2.88,-49.88
84107650,-5.09,0.27,13.41,0.20,-0.19,0.46,-10.31,-2.88,-49.88
84117987,-5.09,0.27,13.41,-0.00,0.39,0.38,-10.31,-2.88,-49.88
84127547,-5.09,0.27,13.41,-0.17,0.30,0.36,-10.31,-2.88,-49.88
84137688,-5.09,0.27,13.41,0.29,-0.54,0.38,-10.31,-2.88,-49.88
84147180,-5.09,0.27,13.41,0.09,-0.24,0.43,-10.31,-2.88,-49.88
84157597,-5.09,0.27,13.41,0.16,-0.36,0.49,-10.31,-2.88,-49.88
84168119,-5.09,0.27,13.41,0.15,0.01,0.43,-10.31,-2.88,-49.88
84177471,-5.09,0.27,13.41,-0.05,0.56,0.61,-10.31,-2.88,-49.88
84187581,-5.09,0.27,13.41,0.10,0.08,0.54,-10.31,-2.88,-49.88
84197917,-5.09,0.27,13.41,0.07,-0.36,0.46,-10.31,-2.88,-49.88
84207687,-5.09,0.27,13.41,0.10,-0.57,0.29,-10.31,-2.88,-49.88
84217581,-5.09,0.27,13.41,-0.02,-0.25,0.20,-10.31,-2.88,-49.88
84227945,-5.09,0.27,13.41,-0.01,-0.02,0.24,-10.31,-2.88,-49.88
84237686,-5.09,0.27,13.41,-0.13,0.41,0.13,-10.31,-2.88,-49.88
84247259,-5.09,0.27,13.41,-0.29,0.48,0.22,-10.31,-2.88,-49.88
84257528,-5.09,0.27,13.41,0.06,-0.55,0.27,-10.31,-2.88,-49.88
84267912,-5.09,0.27,13.41,0.10,-0.72,-0.01,-10.31,-2.88,-49.88
84277627,-5.09,0.27,13.41,-0.16,0.02,-0.10,-10.31,-2.88,-49.88
84287572,-5.09,0.27,13.41,-0.17,0.21,0.09,-10.31,-2.88,-49.88
84297837,-5.09,0.27,13.41,-0.12,0.16,0.02,-10.31,-2.88,-49.88
84307617,-5.09,0.27,13.41,-0.19,-0.01,-0.11,-10.31,-2.88,-49.88
84317034,-5.09,0.27,13.41,-0.11,-0.35,-0.36,-10.31,-2.88,-49.88
84327447,-5.09,0.27,13.41,-0.24,0.01,-0.43,-10.31,-2.88,-49.88
84337900,-5.09,0.27,13.41,-0.29,0.19,-0.39,-10.31,-2.88,-49.88
84347558,-5.09,0.27,13.41,-0.25,0.04,-0.40,-10.31,-2.88,-49.88
84357477,-5.09,0.27,13.41,-0.23,0.03,-0.43,-10.31,-2.88,-49.88
84367841,-5.09,0.27,13.41,-0.07,-0.22,-0.42,-10.31,-2.88,-49.88
84377563,-5.09,0.27,13.41,-0.21,0.05,-0.30,-10.31,-2.88,-49.88
84387046,-5.09,0.27,13.41,-0.21,0.05,-0.25,-10.31,-2.88,-49.88
84397740,-5.09,0.27,13.41,-0.10,-0.14,-0.04,-10.31,-2.88,-49.88
84407382,-5.09,0.27,13.41,-0.01,-0.19,0.06,-10.31,-2.88,-49.88
84417487,-5.09,0.27,13.41,-0.05,-0.11,0.01,-10.31,-2.88,-49.88
84427437,-5.09,0.27,13.41,-0.15,0.09,-0.10,-10.31,-2.88,-49.88
84437830,-5.09,0.27,13.41,-0.28,0.21,-0.16,-10.31,-2.88,-49.88
84447536,-5.09,0.27,13.41,-0.15,-0.13,-0.28,-10.31,-2.88,-49.88
84456944,-5.09,0.27,13.41,-0.21,-0.08,-0.39,-10.31,-2.88,-49.88
84467724,-5.09,0.27,13.41,-0.27,-0.11,-0.52,-10.31,-2.88,-49.88
84477338,-5.09,0.27,13.41,-0.30,0.01,-0.52,-10.31,-2.88,-49.88
84487509,-5.09,0.27,13.41,-0.28,0.10,-0.39,-10.31,-2.88,-49.88
84497659,-5.09,0.27,13.41,-0.16,0.03,-0.33,-10.31,-2.88,-49.88
84507323,-5.09,0.27,13.41,-0.08,-0.02,-0.29,-10.31,-2.88,-49.88
84517453,-5.09,0.27,13.41,-0.04,-0.04,-0.29,-10.31,-2.88,-49.88
84526923,-5.09,0.27,13.41,-0.15,0.12,-0.29,-10.31,-2.88,-49.88
84537614,-5.09,0.27,13.41,-0.18,-0.01,-0.33,-10.31,-2.88,-49.88
84547307,-5.09,0.27,13.41,-0.18,-0.07,-0.40,-10.31,-2.88,-49.88
84557356,-5.09,0.27,13.41,-0.15,0.04,-0.37,-10.31,-2.88,-49.88
84567663,-5.09,0.27,13.41,0.01,-0.11,-0.34,-10.31,-2.88,-49.88
84577280,-5.09,0.27,13.41,-0.00,0.08,-0.31,-10.31,-2.88,-49.88
84586968,-5.09,0.27,13.41,-0.09,0.15,-0.16,-10.31,-2.88,-49.88
84597530,-5.09,0.27,13.41,-0.00,-0.17,-0.14,-10.31,-2.88,-49.88
84607555,-5.09,0.27,13.41,-0.07,-0.05,-0.08,-10.31,-2.88,-49.88
84617279,-5.09,0.27,13.41,0.02,-0.09,0.02,-10.31,-2.88,-49.88
84627299,-5.09,0.27,13.41,0.09,-0.03,0.19,-10.31,-2.88,-49.88
84637526,-5.09,0.27,13.41,0.11,0.05,0.35,-10.31,-2.88,-49.88
84647191,-5.09,0.27,13.41,0.21,-0.09,0.43,-10.31,-2.88,-49.88
84657312,-5.09,0.27,13.41,0.19,0.02,0.47,-10.31,-2.88,-49.88
84667317,-5.09,0.27,13.41,0.18,0.03,0.58,-10.31,-2.88,-49.88
84677529,-5.09,0.27,13.41,0.18,-0.11,0.60,-10.31,-2.88,-49.88
84687259,-5.09,0.27,13.41,0.07,0.05,0.61,-10.31,-2.88,-49.88
84697109,-5.09,0.27,13.41,0.21,-0.09,0.68,-10.31,-2.88,-49.88
84707121,-5.09,0.27,13.41,0.33,-0.13,0.63,-10.31,-2.88,-49.88
84717479,-5.09,0.27,13.41,0.27,0.12,0.71,-10.31,-2.88,-49.88
84727254,-5.09,0.27,13.41,0.12,0.16,0.65,-10.31,-2.88,-49.88
84737117,-5.09,0.27,13.41,0.22,-0.20,0.64,-10.31,-2.88,-49.88
84747443,-5.09,0.27,13.41,0.05,0.05,0.57,-10.31,-2.88,-49.88
84757219,-5.09,0.27,13.41,0.09,-0.11,0.57,-10.31,-2.88,-49.88
84766861,-5.09,0.27,13.41,0.18,-0.06,0.58,-10.31,-2.88,-49.88
84777126,-5.09,0.27,13.41,0.04,0.19,0.54,-10.31,-2.88,-49.88
84787397,-5.09,0.27,13.41,0.16,-0.17,0.52,-10.31,-2.88,-49.88
84797172,-5.09,0.27,13.41,0.05,0.00,0.28,-10.31,-2.88,-49.88
84807057,-5.09,0.27,13.41,-0.24,0.22,0.33,-10.31,-2.88,-49.88
84817388,-5.09,0.27,13.41,0.05,-0.32,0.30,-10.31,-2.88,-49.88
84827165,-5.09,0.27,13.41,-0.25,0.14,0.26,-10.31,-2.88,-49.88
84836821,-5.09,0.27,13.41,-0.21,-0.11,0.33,-10.31,-2.88,-49.88
84847357,-5.09,0.27,13.41,0.11,-0.46,0.27,-10.31,-2.88,-49.88
84857037,-5.09,0.27,13.41,-0.21,0.27,0.26,-10.31,-2.88,-49.88
84867135,-5.09,0.27,13.41,-0.19,0.23,0.21,-10.31,-2.88,-49.88
84877039,-5.09,0.27,13.41,-0.20,-0.12,0.16,-10.31,-2.88,-49.88
84887343,-5.09,0.27,13.41,-0.30,-0.07,0.12,-10.31,-2.88,-49.88
84897128,-5.09,0.27,13.41,-0.20,-0.20,0.07,-10.31,-2.88,-49.88
84907490,-5.09,0.27,13.41,-0.28,0.11,0.09,-10.31,-2.88,-49.88
84917652,-5.09,0.27,13.41,-0.23,0.09,0.18,-10.31,-2.88,-49.88
84926973,-5.09,0.27,13.41,-0.23,0.09,0.18,-12.88,2.38,-51.94
84936249,-5.09,0.27,13.41,-0.23,0.09,0.18,-12.06,1.44,-51.50
84947000,-5.09,0.27,13.41,-0.29,0.13,0.11,-12.06,1.44,-51.50
84957272,-5.09,0.27,13.41,-0.22,-0.04,0.14,-12.06,1.44,-51.50
84967109,-5.09,0.27,13.41,-0.30,0.05,0.14,-12.06,1.44,-51.50
84977519,-5.09,0.27,13.41,-0.20,-0.17,0.05,-12.06,1.44,-51.50
84987566,-5.09,0.27,13.41,-0.26,0.07,0.01,-12.06,1.44,-51.50
84996214,-5.09,0.27,13.41,-0.26,0.07,0.01,-12.00,1.94,-51.19
85006973,-5.09,0.27,13.41,-0.33,-0.04,0.09,-12.00,1.94,-51.19
85016957,-5.09,0.27,13.41,-0.32,-0.17,0.14,-12.00,1.94,-51.19
85027241,-5.09,0.27,13.41,-0.22,-0.24,0.04,-12.00,1.94,-51.19
85036997,-5.09,0.27,13.41,-0.20,0.06,0.01,-12.00,1.94,-51.19
85047407,-5.09,0.27,13.41,-0.25,0.32,-0.10,-12.00,1.94,-51.19
85057500,-5.09,0.27,13.41,-0.47,0.23,-0.10,-12.00,1.94,-51.19
85066236,-5.09,0.27,13.41,-0.47,0.23,-0.10,-12.69,3.00,-52.38
85076979,-5.09,0.27,13.41,-0.79,-0.32,-0.13,-12.69,3.00,-52.38
85086912,-5.09,0.27,13.41,-0.09,-0.70,-0.01,-12.69,3.00,-52.38
85097184,-5.09,0.27,13.41,-0.24,-0.23,0.03,-12.69,3.00,-52.38
85106934,-5.09,0.27,13.41,-0.52,0.72,0.33,-12.69,3.00,-52.38
85117355,-5.09,0.27,13.41,-0.40,0.51,0.31,-12.69,3.00,-52.38
85127450,-5.09,0.27,13.41,-0.13,-0.53,0.19,-12.69,3.00,-52.38
85136213,-5.09,0.27,13.41,-0.13,-0.53,0.19,-13.12,4.44,-50.69
85146832,-5.09,0.27,13.41,-0.73,0.09,-0.47,-13.12,4.44,-50.69
85156803,-5.09,0.27,13.41,-0.50,-0.23,-0.62,-13.12,4.44,-50.69
85167633,-5.09,0.27,13.41,-0.63,-0.04,-0.77,-13.12,4.44,-50.69
85177133,-5.09,0.27,13.41,-0.79,0.12,-0.96,-13.12,4.44,-50.69
85186298,-2.34,-1.72,7.16,-0.79,0.12,-0.96,-13.12,4.44,-50.69
85197098,-2.34,-1.72,7.16,-0.73,0.01,-0.93,-13.12,4.44,-50.69
85206885,-2.34,-1.72,7.16,-0.62,-0.10,-0.85,-13.12,4.44,-50.69
85216756,-2.34,-1.72,7.16,-0.52,-0.26,-0.81,-13.12,4.44,-50.69
85227168,-2.34,-1.72,7.16,-0.56,-0.16,-0.76,-13.12,4.44,-50.69
85236744,-2.34,-1.72,7.16,-0.58,-0.02,-0.71,-13.12,4.44,-50.69
85246833,-2.34,-1.72,7.16,-0.53,-0.17,-0.72,-13.12,4.44,-50.69
85256764,-2.34,-1.72,7.16,-0.42,-0.28,-0.76,-13.12,4.44,-50.69
85267098,-2.34,-1.72,7.16,-0.46,0.10,-0.74,-13.12,4.44,-50.69
85276832,-2.34,-1.72,7.16,-0.44,0.12,-0.72,-13.12,4.44,-50.69
85287446,-2.34,-1.72,7.16,-0.41,-0.01,-0.74,-13.12,4.44,-50.69
85297373,-2.34,-1.72,7.16,-0.46,0.09,-0.75,-13.12,4.44,-50.69
85306770,-2.34,-1.72,7.16,-0.46,0.09,-0.75,-15.19,7.25,-53.06
85316219,-2.34,-1.72,7.16,-0.46,0.09,-0.75,-14.88,6.56,-52.00
85326763,-2.34,-1.72,7.16,-0.49,0.32,-0.76,-14.88,6.56,-52.00
85337070,-2.34,-1.72,7.16,-0.31,-0.08,-0.75,-14.88,6.56,-52.00
85346747,-2.34,-1.72,7.16,-0.45,0.21,-0.72,-14.88,6.56,-52.00
85357207,-2.34,-1.72,7.16,-0.54,0.29,-0.72,-14.88,6.56,-52.00
85367819,-2.34,-1.72,7.16,-0.21,-0.44,-0.70,-14.88,6.56,-52.00
85377497,-2.34,-1.72,7.16,-0.21,-0.44,-0.70,-15.81,7.75,-52.44
85386824,-2.34,-1.72,7.16,-0.21,-0.44,-0.70,-14.75,7.06,-49.56
85396179,-2.34,-1.72,7.16,-0.21,-0.44,-0.70,-15.44,7.69,-52.38
85407021,-2.34,-1.72,7.16,-0.36,0.03,-0.52,-15.44,7.69,-52.38
85417664,-2.34,-1.72,7.16,-0.38,0.06,-0.55,-15.44,7.69,-52.38
85427352,-2.34,-1.72,7.16,-0.29,-0.12,-0.57,-15.44,7.69,-52.38
85437832,-2.34,-1.72,7.16,-0.29,-0.12,-0.57,-16.00,8.12,-53.44
85447479,-2.34,-1.72,7.16,-0.29,-0.12,-0.57,-16.06,7.69,-52.12
85457546,-2.34,-1.72,7.16,-0.29,-0.12,-0.57,-15.06,8.19,-51.94
85467494,-2.34,-1.72,7.16,-0.29,-0.12,-0.57,-14.88,7.56,-51.38
85477752,-2.34,-1.72,7.16,-0.29,-0.12,-0.57,-16.31,7.81,-53.00
85487562,-2.34,-1.72,7.16,-0.29,-0.12,-0.57,-15.38,7.44,-52.31
85497000,-2.34,-1.72,7.16,-0.29,-0.12,-0.57,-15.12,6.75,-51.25
85507752,-2.34,-1.72,7.16,-0.29,-0.12,-0.57,-15.81,7.75,-52.44
85517422,-2.34,-1.72,7.16,-0.29,-0.12,-0.57,-15.69,7.69,-52.00
85527449,-2.34,-1.72,7.16,-0.29,-0.12,-0.57,-15.88,7.50,-52.88
85537796,-2.34,-1.72,7.16,-0.29,-0.12,-0.57,-16.00,7.12,-51.88
85547368,-2.34,-1.72,7.16,-0.29,-0.12,-0.57,-16.00,7.56,-53.31
85557472,-2.34,-1.72,7.16,-0.29,-0.12,-0.57,-16.81,8.50,-53.69
85567061,-2.34,-1.72,7.16,-0.29,-0.12,-0.57,-16.31,8.12,-53.06
85577290,-2.34,-1.72,7.16,-0.29,-0.12,-0.57,-15.94,8.06,-53.00
85587374,-2.34,-1.72,7.16,-0.29,-0.12,-0.57,-16.31,7.81,-53.00
85597441,-2.34,-1.72,7.16,-0.29,-0.12,-0.57,-14.31,6.44,-49.31
85607653,-2.34,-1.72,7.16,-0.29,-0.12,-0.57,-16.12,7.94,-53.81
85617319,-2.34,-1.72,7.16,-0.29,-0.12,-0.57,-16.12,7.94,-53.81
85627403,-2.34,-1.72,7.16,-0.29,-0.12,-0.57,-17.25,7.75,-54.06
85636951,-2.34,-1.72,7.16,-0.29,-0.12,-0.57,-16.44,7.38,-53.81
85647658,-2.34,-1.72,7.16,-0.29,-0.12,-0.57,-17.31,7.81,-54.50
85657307,-2.34,-1.72,7.16,-0.29,-0.12,-0.57,-16.88,8.00,-54.06
85667360,-2.34,-1.72,7.16,-0.29,-0.12,-0.57,-16.31,7.81,-53.00
85677586,-2.34,-1.72,7.16,-0.29,-0.12,-0.57,-15.88,7.50,-52.88
85687278,-2.34,-1.72,7.16,-0.29,-0.12,-0.57,-16.31,7.06,-53.25
85697372,-2.34,-1.72,7.16,-0.29,-0.12,-0.57,-15.56,7.25,-53.12
85707478,-2.34,-1.72,7.16,-0.29,-0.12,-0.57,-15.56,7.25,-53.12
85717578,-2.34,-1.72,7.16,-0.29,-0.12,-0.57,-15.75,7.38,-54.06
85727204,-2.34,-1.72,7.16,-0.29,-0.12,-0.57,-15.12,7.19,-52.62
85737213,-2.34,-1.72,7.16,-0.29,-0.12,-0.57,-15.62,6.31,-52.12
85747510,-2.34,-1.72,7.16,-0.29,-0.12,-0.57,-15.62,6.75,-53.44
85757209,-2.34,-1.72,7.16,-0.29,-0.12,-0.57,-15.62,7.06,-53.50
85767354,-2.34,-1.72,7.16,-0.29,-0.12,-0.57,-15.38,7.12,-52.25
85777271,-2.34,-1.72,7.16,-0.29,-0.12,-0.57,-15.38,7.12,-52.25
85787538,-2.34,-1.72,7.16,-0.29,-0.12,-0.57,-15.12,6.19,-53.25
85797265,-2.34,-1.72,7.16,-0.29,-0.12,-0.57,-14.75,5.62,-53.00
85806977,-2.34,-1.72,7.16,-0.29,-0.12,-0.57,-14.88,6.44,-53.19
85817510,-2.34,-1.72,7.16,-0.29,-0.12,-0.57,-15.50,5.69,-53.19
85827130,-2.34,-1.72,7.16,-0.29,-0.12,-0.57,-14.25,5.94,-53.81
85837264,-2.34,-1.72,7.16,-0.29,-0.12,-0.57,-15.50,5.94,-53.25
85847148,-2.34,-1.72,7.16,-0.29,-0.12,-0.57,-14.56,6.19,-53.50
85857434,-2.34,-1.72,7.16,-0.29,-0.12,-0.57,-15.50,5.69,-53.19
85866747,-2.34,-1.72,7.16,-0.29,-0.12,-0.57,-14.81,4.94,-52.06
85875934,-2.34,-1.72,7.16,-0.29,-0.12,-0.57,-14.56,5.69,-53.81
85887843,-2.34,-1.72,7.16,0.21,0.10,-0.07,-14.56,5.69,-53.81
85897420,-2.34,-1.72,7.16,0.21,0.11,-0.05,-14.56,5.69,-53.81
85907228,-2.34,-1.72,7.16,0.21,0.11,-0.05,-14.12,5.12,-53.62
85917058,-2.34,-1.72,7.16,0.21,0.11,-0.05,-14.88,5.69,-53.50
85927356,-2.34,-1.72,7.16,0.21,0.11,-0.05,-13.31,4.50,-53.25
85937119,-2.34,-1.72,7.16,0.21,0.11,-0.05,-14.00,4.81,-51.44
85946739,-2.34,-1.72,7.16,0.21,0.11,-0.05,-13.50,5.19,-52.19
85957306,-2.34,-1.72,7.16,0.21,0.11,-0.05,-13.56,4.94,-52.56
85967089,-2.34,-1.72,7.16,0.21,0.11,-0.05,-13.06,5.81,-53.50
85977137,-2.34,-1.72,7.16,0.21,0.11,-0.05,-13.06,4.06,-52.31
85986987,-2.34,-1.72,7.16,0.21,0.11,-0.05,-12.31,5.06,-51.88
85997334,-2.34,-1.72,7.16,0.21,0.11,-0.05,-13.19,4.94,-52.50
86007102,-2.34,-1.72,7.16,0.21,0.11,-0.05,-13.12,5.38,-53.81
86016845,-2.34,-1.72,7.16,0.21,0.11,-0.05,-13.31,4.19,-53.19
86027187,-2.34,-1.72,7.16,0.21,0.11,-0.05,-13.25,4.94,-54.62
86036954,-2.34,-1.72,7.16,0.21,0.11,-0.05,-15.31,5.12,-55.56
86046986,-2.34,-1.72,7.16,0.21,0.11,-0.05,-13.56,5.19,-54.31
86057251,-2.34,-1.72,7.16,0.21,0.11,-0.05,-13.31,4.19,-53.19
86066929,-2.34,-1.72,7.16,0.21,0.11,-0.05,-13.25,4.62,-54.56
86077053,-2.34,-1.72,7.16,0.21,0.11,-0.05,-12.94,4.44,-53.19
86086743,-2.34,-1.72,7.16,0.21,0.11,-0.05,-13.50,5.12,-53.88
86097214,-2.34,-1.72,7.16,0.21,0.11,-0.05,-14.00,3.69,-53.31
86106916,-2.34,-1.72,7.16,0.21,0.11,-0.05,-12.50,4.12,-53.00
86116445,-2.34,-1.72,7.16,0.21,0.11,-0.05,-11.81,3.88,-53.19
86127541,-2.34,-1.72,7.16,-0.09,-0.05,-0.73,-11.81,3.88,-53.19
86136857,-2.34,-1.72,7.16,-0.09,-0.05,-0.73,-12.31,3.94,-53.75
86146966,-2.34,-1.72,7.16,-0.09,-0.05,-0.73,-12.75,4.56,-54.00
86156688,-2.34,-1.72,7.16,-0.09,-0.05,-0.73,-12.88,4.19,-53.12
86167164,-2.34,-1.72,7.16,-0.09,-0.05,-0.73,-13.38,4.19,-55.31
86176851,-2.34,-1.72,7.16,-0.09,-0.05,-0.73,-13.12,4.31,-54.00
86186889,-2.34,-1.72,7.16,-0.09,-0.05,-0.73,-12.62,4.44,-55.19
86197159,-2.34,-1.72,7.16,-0.09,-0.05,-0.73,-13.19,4.06,-54.38
86206877,-2.34,-1.72,7.16,-0.09,-0.05,-0.73,-12.31,2.44,-52.62
86216944,-2.34,-1.72,7.16,-0.09,-0.05,-0.73,-12.50,3.81,-54.56
86227033,-2.34,-1.72,7.16,-0.09,-0.05,-0.73,-12.50,3.81,-54.56
86237103,-2.34,-1.72,7.16,-0.09,-0.05,-0.73,-12.25,3.38,-53.62
86246796,-2.34,-1.72,7.16,-0.09,-0.05,-0.73,-12.06,3.56,-52.75
86256778,-2.34,-1.72,7.16,-0.09,-0.05,-0.73,-11.38,3.56,-53.00
86267123,-2.34,-1.72,7.16,-0.09,-0.05,-0.73,-12.44,2.81,-53.12
86276744,-2.34,-1.72,7.16,-0.09,-0.05,-0.73,-11.94,3.44,-53.94
86286862,-2.34,-1.72,7.16,-0.09,-0.05,-0.73,-12.12,3.81,-52.81
86296850,-2.34,-1.72,7.16,-0.09,-0.05,-0.73,-12.12,3.81,-52.81
86307105,-2.34,-1.72,7.16,-0.09,-0.05,-0.73,-12.88,3.88,-53.06
86316728,-2.34,-1.72,7.16,-0.09,-0.05,-0.73,-12.62,1.88,-52.56
86326749,-2.34,-1.72,7.16,-0.09,-0.05,-0.73,-12.31,2.44,-52.62
86337021,-2.34,-1.72,7.16,-0.09,-0.05,-0.73,-12.81,3.62,-53.00
86346734,-2.34,-1.72,7.16,-0.09,-0.05,-0.73,-13.00,3.44,-53.81
86356696,-2.34,-1.72,7.16,-0.09,-0.05,-0.73,-12.94,3.38,-53.38
86366300,-2.34,-1.72,7.16,-0.09,-0.05,-0.73,-12.19,3.12,-53.56
86377413,-8.39,-3.75,13.25,-0.09,-0.05,-0.73,-12.19,3.12,-53.56
86386763,-8.39,-3.75,13.25,-0.09,-0.05,-0.73,-11.88,2.94,-52.19
86396726,-8.39,-3.75,13.25,-0.09,-0.05,-0.73,-12.44,2.81,-53.12
86407055,-8.39,-3.75,13.25,-0.09,-0.05,-0.73,-12.75,2.69,-54.44
86416785,-8.39,-3.75,13.25,-0.09,-0.05,-0.73,-12.69,3.25,-52.44
86426738,-8.39,-3.75,13.25,-0.09,-0.05,-0.73,-11.06,3.31,-53.31
86436692,-8.39,-3.75,13.25,-0.09,-0.05,-0.73,-11.12,2.06,-52.25
86447043,-8.39,-3.75,13.25,-0.09,-0.05,-0.73,-11.19,2.62,-52.38
86456731,-8.39,-3.75,13.25,-0.09,-0.05,-0.73,-12.25,2.38,-52.19
86466729,-8.39,-3.75,13.25,-0.09,-0.05,-0.73,-11.19,3.06,-53.69
86477125,-8.39,-3.75,13.25,-0.09,-0.05,-0.73,-11.50,2.81,-53.75
86486773,-8.39,-3.75,13.25,-0.09,-0.05,-0.73,-11.75,2.25,-53.25
86496733,-8.39,-3.75,13.25,-0.09,-0.05,-0.73,-11.50,2.81,-53.75
86506710,-8.39,-3.75,13.25,-0.09,-0.05,-0.73,-11.88,2.56,-53.75
86517109,-8.39,-3.75,13.25,-0.09,-0.05,-0.73,-12.81,3.56,-54.62
86526688,-8.39,-3.75,13.25,-0.09,-0.05,-0.73,-11.56,2.69,-52.50
86536782,-8.39,-3.75,13.25,-0.09,-0.05,-0.73,-11.62,3.25,-52.62
86547037,-8.39,-3.75,13.25,-0.09,-0.05,-0.73,-12.69,2.94,-54.06
86556713,-8.39,-3.75,13.25,-0.09,-0.05,-0.73,-11.12,3.56,-53.38
86566835,-8.39,-3.75,13.25,-0.09,-0.05,-0.73,-11.81,2.31,-52.06
86577061,-8.39,-3.75,13.25,-0.09,-0.05,-0.73,-11.81,3.00,-55.12
86586758,-8.39,-3.75,13.25,-0.09,-0.05,-0.73,-12.38,3.44,-54.06
86596732,-8.39,-3.75,13.25,-0.09,-0.05,-0.73,-11.38,3.56,-53.00
86606740,-8.39,-3.75,13.25,-0.09,-0.05,-0.73,-12.62,2.62,-54.00
86617469,-8.39,-3.75,13.25,-0.09,-0.05,-0.73,-12.00,2.12,-54.56
86626739,-4.94,-3.37,7.21,-0.09,-0.05,-0.73,-12.00,2.12,-54.56
86636168,1.80,-3.45,13.02,-0.09,-0.05,-0.73,-12.00,2.12,-54.56
86647042,1.80,-3.45,13.02,-0.09,-0.05,-0.73,-11.44,3.06,-53.38
86656712,1.80,-3.45,13.02,-0.09,-0.05,-0.73,-12.50,3.31,-54.94
86666778,1.80,-3.45,13.02,-0.09,-0.05,-0.73,-11.12,2.56,-51.94
86676691,1.80,-3.45,13.02,-0.09,-0.05,-0.73,-11.88,1.12,-52.62
86687062,1.80,-3.45,13.02,-0.09,-0.05,-0.73,-10.62,1.69,-51.62
86696807,1.80,-3.45,13.02,-0.09,-0.05,-0.73,-10.31,2.25,-50.00
86706696,1.80,-3.45,13.02,-0.09,-0.05,-0.73,-11.19,2.62,-52.38
86717082,1.80,-3.45,13.02,-0.09,-0.05,-0.73,-10.81,1.81,-52.50
86727017,1.80,-3.45,13.02,-0.09,-0.05,-0.73,-11.50,2.06,-54.00
86736164,-14.33,-2.80,-1.27,-0.09,-0.05,-0.73,-11.50,2.06,-54.00
86746730,-14.33,-2.80,-1.27,-0.09,-0.05,-0.73,-11.44,2.25,-53.62
86757014,-14.33,-2.80,-1.27,-0.09,-0.05,-0.73,-10.56,1.88,-52.88
86766848,-14.33,-2.80,-1.27,-0.09,-0.05,-0.73,-11.25,2.88,-54.06
86776752,-14.33,-2.80,-1.27,-0.09,-0.05,-0.73,-11.69,2.38,-54.50
86787049,-14.33,-2.80,-1.27,-0.09,-0.05,-0.73,-11.00,1.69,-53.38
86797068,-14.33,-2.80,-1.27,-0.09,-0.05,-0.73,-11.94,2.06,-54.12
86806171,1.88,-1.88,10.27,-0.09,-0.05,-0.73,-11.94,2.06,-54.12
86816737,1.88,-1.88,10.27,-0.09,-0.05,-0.73,-9.88,1.88,-53.12
86827077,1.88,-1.88,10.27,-0.09,-0.05,-0.73,-9.88,1.56,-53.06
86837041,1.88,-1.88,10.27,-0.09,-0.05,-0.73,-10.31,2.19,-53.31
86846197,-14.17,-1.72,-5.29,-0.09,-0.05,-0.73,-10.31,2.19,-53.31
86857045,-14.17,-1.72,-5.29,-0.09,-0.05,-0.73,-9.38,2.00,-52.19
86867074,-14.17,-1.72,-5.29,-0.09,-0.05,-0.73,-8.88,1.88,-51.62
86876812,2.80,-4.67,9.84,-0.09,-0.05,-0.73,-8.88,1.88,-51.62
86886208,-6.59,-13.45,-1.91,-0.09,-0.05,-0.73,-8.88,1.88,-51.62
86897025,-6.59,-13.45,-1.91,-0.09,-0.05,-0.73,-8.50,0.81,-51.75
86907026,-6.59,-13.45,-1.91,-0.09,-0.05,-0.73,-10.00,1.44,-53.94
86916172,0.65,-0.34,9.04,-0.09,-0.05,-0.73,-10.00,1.44,-53.94
86927154,0.65,-0.34,9.04,-0.09,-0.05,-0.73,-8.88,0.50,-53.44
86937043,0.65,-0.34,9.04,-0.09,-0.05,-0.73,-8.94,1.38,-51.94
86947047,-4.17,-4.14,3.52,-0.09,-0.05,-0.73,-8.94,1.38,-51.94
86956188,-4.17,-4.14,3.52,0.05,0.11,-0.52,-8.94,1.38,-51.94
86966850,3.22,1.53,9.00,0.05,0.11,-0.52,-8.94,1.38,-51.94
86976749,3.22,1.53,9.00,0.05,0.11,-0.52,-7.25,-0.12,-51.25
86986744,3.22,1.53,9.00,0.05,0.11,-0.52,-7.81,1.25,-53.31
86997367,3.22,1.53,9.00,0.05,0.11,-0.52,-7.88,1.31,-53.75
87006750,-5.71,-11.38,6.78,0.05,0.11,-0.52,-7.88,1.31,-53.75
87015872,-5.71,-11.38,6.78,0.33,-0.17,-0.46,-7.88,1.31,-53.75
87027151,3.75,-12.83,4.18,0.33,-0.17,-0.46,-7.88,1.31,-53.75
87037478,3.75,-12.83,4.18,0.33,-0.17,-0.46,-7.69,1.19,-54.50
87046719,-7.89,-3.29,0.65,0.33,-0.17,-0.46,-7.69,1.19,-54.50
87056161,-4.68,-3.52,3.87,0.33,-0.17,-0.46,-7.69,1.19,-54.50
87067378,-4.68,-3.52,3.87,0.33,-0.17,-0.46,-7.38,1.94,-54.62
87076695,4.52,-3.37,8.27,0.33,-0.17,-0.46,-7.38,1.94,-54.62
87086202,1.27,-0.38,11.68,0.33,-0.17,-0.46,-7.38,1.94,-54.62
87097121,1.27,-0.38,11.68,0.33,-0.17,-0.46,-6.56,0.31,-52.81
87107039,1.27,-0.38,11.68,0.33,-0.17,-0.46,-5.19,0.06,-53.25
87116725,4.18,-1.07,12.02,0.33,-0.17,-0.46,-5.19,0.06,-53.25
87126767,3.10,1.23,6.05,0.33,-0.17,-0.46,-5.19,0.06,-53.25
87137021,-4.56,-0.84,-0.50,0.33,-0.17,-0.46,-5.19,0.06,-53.25
87146733,5.75,-2.30,-1.76,0.33,-0.17,-0.46,-5.19,0.06,-53.25
87156166,-1.34,-1.72,0.38,0.33,-0.17,-0.46,-5.19,0.06,-53.25
87167158,-1.34,-1.72,0.38,0.33,-0.17,-0.46,-5.19,0.88,-53.00
87177087,-1.34,-1.72,0.38,0.33,-0.17,-0.46,-6.06,0.19,-53.94
87186746,16.28,-0.69,28.42,0.33,-0.17,-0.46,-6.06,0.19,-53.94
87197366,1.23,-5.71,14.29,0.33,-0.17,-0.46,-6.06,0.19,-53.94
87207019,-6.44,-5.98,0.19,0.33,-0.17,-0.46,-6.06,0.19,-53.94
87216692,-6.13,0.19,8.12,0.33,-0.17,-0.46,-6.06,0.19,-53.94
87226742,16.66,8.39,18.88,0.33,-0.17,-0.46,-6.06,0.19,-53.94
87237133,16.89,3.52,15.59,0.33,-0.17,-0.46,-6.06,0.19,-53.94
87246742,-0.92,-4.98,1.49,0.33,-0.17,-0.46,-6.06,0.19,-53.94
87256185,1.42,-9.65,8.73,0.33,-0.17,-0.46,-6.06,0.19,-53.94
87266740,1.42,-9.65,8.73,0.33,-0.17,-0.46,-5.00,-1.56,-51.19
87277049,1.42,-9.65,8.73,0.33,-0.17,-0.46,-5.00,-1.38,-52.94
87287081,1.42,-9.65,8.73,0.33,-0.17,-0.46,-3.00,-2.12,-51.88
87296711,6.97,0.69,9.08,0.33,-0.17,-0.46,-3.00,-2.12,-51.88
87307123,0.54,-3.71,5.66,0.33,-0.17,-0.46,-3.00,-2.12,-51.88
87316733,-11.99,-8.77,8.20,0.33,-0.17,-0.46,-3.00,-2.12,-51.88
87326728,-5.63,-5.67,15.59,0.33,-0.17,-0.46,-3.00,-2.12,-51.88
87336771,0.77,-4.79,20.54,0.33,-0.17,-0.46,-3.00,-2.12,-51.88
87347031,9.65,-2.03,22.14,0.33,-0.17,-0.46,-3.00,-2.12,-51.88
87356719,2.41,-4.94,5.18,0.33,-0.17,-0.46,-3.00,-2.12,-51.88
87366835,-2.14,-5.25,-0.19,0.33,-0.17,-0.46,-3.00,-2.12,-51.88
87377062,-2.34,-4.13,0.80,0.33,-0.17,-0.46,-3.00,-2.12,-51.88
87386767,1.07,2.53,9.46,0.33,-0.17,-0.46,-3.00,-2.12,-51.88
87396723,7.74,1.42,13.75,0.33,-0.17,-0.46,-3.00,-2.12,-51.88
87406695,8.01,-0.69,13.21,0.33,-0.17,-0.46,-3.00,-2.12,-51.88
87417059,1.30,-0.92,6.89,0.33,-0.17,-0.46,-3.00,-2.12,-51.88
87426822,-13.91,-3.91,-1.57,0.33,-0.17,-0.46,-3.00,-2.12,-51.88
87436761,-9.43,-0.42,6.32,0.33,-0.17,-0.46,-3.00,-2.12,-51.88
87446174,-9.43,-0.42,6.32,0.23,-0.42,-0.28,-3.00,-2.12,-51.88
87456750,-9.43,-0.42,6.32,0.23,-0.42,-0.28,-3.69,-2.75,-49.00
87467377,-9.43,-0.42,6.32,0.23,-0.42,-0.28,-4.69,-3.62,-50.31
87477426,-9.43,-0.42,6.32,0.19,0.04,-0.28,-4.69,-3.62,-50.31
87486807,4.29,4.41,13.56,0.19,0.04,-0.28,-4.69,-3.62,-50.31
87496730,-18.27,-2.14,14.44,0.19,0.04,-0.28,-4.69,-3.62,-50.31
87507691,-29.19,-4.79,12.57,0.19,0.04,-0.28,-4.69,-3.62,-50.31
87516737,13.06,-2.41,17.23,0.19,0.04,-0.28,-4.69,-3.62,-50.31
87526730,18.34,-0.46,11.22,0.19,0.04,-0.28,-4.69,-3.62,-50.31
87537087,19.73,1.11,0.54,0.19,0.04,-0.28,-4.69,-3.62,-50.31
87547402,19.73,1.11,0.54,-0.28,1.19,-0.03,-4.69,-3.62,-50.31
87556737,-13.79,-1.04,13.41,-0.28,1.19,-0.03,-4.69,-3.62,-50.31
87567165,-16.05,-9.50,15.05,-0.28,1.19,-0.03,-4.69,-3.62,-50.31
87577417,-16.05,-9.50,15.05,0.18,-0.22,-0.39,-4.69,-3.62,-50.31
87587439,15.09,-1.04,2.91,0.18,-0.22,-0.39,-4.69,-3.62,-50.31
87596719,9.46,1.42,2.68,0.18,-0.22,-0.39,-4.69,-3.62,-50.31
87606717,-3.45,1.91,3.87,0.18,-0.22,-0.39,-4.69,-3.62,-50.31
87617670,-13.17,0.00,5.59,0.18,-0.22,-0.39,-4.69,-3.62,-50.31
87626829,10.46,0.73,25.05,0.18,-0.22,-0.39,-4.69,-3.62,-50.31
87637046,17.58,-2.76,23.94,0.18,-0.22,-0.39,-4.69,-3.62,-50.31
87647408,17.58,-2.76,23.94,-0.13,0.71,-0.33,-4.69,-3.62,-50.31
87657370,-3.98,2.95,5.90,-0.13,0.71,-0.33,-4.69,-3.62,-50.31
87666740,-7.82,5.40,13.83,-0.13,0.71,-0.33,-4.69,-3.62,-50.31
87677483,-5.98,-0.19,11.88,-0.13,0.71,-0.33,-4.69,-3.62,-50.31
87687812,-2.22,-3.75,12.98,-0.13,0.71,-0.33,-4.69,-3.62,-50.31
87696788,7.43,-7.66,8.08,-0.13,0.71,-0.33,-4.69,-3.62,-50.31
87707030,-6.25,-4.67,2.99,-0.13,0.71,-0.33,-4.69,-3.62,-50.31
87716172,-6.25,-4.67,2.99,0.24,0.03,-0.22,-4.69,-3.62,-50.31
87727746,-2.99,3.87,10.04,0.24,0.03,-0.22,-4.69,-3.62,-50.31
87737012,-0.57,-1.42,14.59,0.24,0.03,-0.22,-4.69,-3.62,-50.31
87747414,-0.57,-1.42,14.59,0.01,0.33,-0.08,-4.69,-3.62,-50.31
87757329,-7.47,-1.88,3.87,0.01,0.33,-0.08,-4.69,-3.62,-50.31
87766868,-4.33,-0.15,4.75,0.01,0.33,-0.08,-4.69,-3.62,-50.31
87777279,7.66,6.44,11.38,0.01,0.33,-0.08,-4.69,-3.62,-50.31
87787395,7.66,6.44,11.38,0.06,0.10,-0.12,-4.69,-3.62,-50.31
87797384,-2.26,-2.57,5.25,0.06,0.10,-0.12,-4.69,-3.62,-50.31
87806736,-1.80,-0.92,10.69,0.06,0.10,-0.12,-4.69,-3.62,-50.31
87817730,-5.40,-3.79,14.40,0.06,0.10,-0.12,-4.69,-3.62,-50.31
87827483,7.16,-1.30,10.91,0.06,0.10,-0.12,-4.69,-3.62,-50.31
87836746,0.00,-3.56,7.89,0.06,0.10,-0.12,-4.69,-3.62,-50.31
87847098,-5.21,-1.07,2.95,0.06,0.10,-0.12,-4.69,-3.62,-50.31
87857372,-5.21,-1.07,2.95,0.16,-0.18,-0.32,-4.69,-3.62,-50.31
87866752,4.64,-1.68,10.95,0.16,-0.18,-0.32,-4.69,-3.62,-50.31
87876717,-0.27,0.61,6.17,0.16,-0.18,-0.32,-4.69,-3.62,-50.31
87887882,-5.10,-2.38,-0.50,0.16,-0.18,-0.32,-4.69,-3.62,-50.31
87897359,7.05,-1.27,12.45,0.16,-0.18,-0.32,-4.69,-3.62,-50.31
87906771,4.29,2.68,14.60,0.16,-0.18,-0.32,-4.69,-3.62,-50.31
87917065,3.91,-0.27,12.95,0.16,-0.18,-0.32,-4.69,-3.62,-50.31
87927375,3.91,-0.27,12.95,0.07,0.00,-0.29,-4.69,-3.62,-50.31
87936735,7.47,-1.88,12.76,0.07,0.00,-0.29,-4.69,-3.62,-50.31
87947106,0.34,-2.84,10.96,0.07,0.00,-0.29,-4.69,-3.62,-50.31
87957346,0.34,-2.84,10.96,0.14,0.16,-0.22,-4.69,-3.62,-50.31
87967512,0.88,-1.91,10.42,0.14,0.16,-0.22,-4.69,-3.62,-50.31
87976748,-1.68,0.23,10.11,0.14,0.16,-0.22,-4.69,-3.62,-50.31
87987054,-4.37,-1.42,5.75,0.14,0.16,-0.22,-4.69,-3.62,-50.31
87997381,-4.37,-1.42,5.75,0.14,-0.05,-0.23,-4.69,-3.62,-50.31
88006750,2.03,0.34,8.04,0.14,-0.05,-0.23,-4.69,-3.62,-50.31
88017805,3.98,-0.30,8.58,0.14,-0.05,-0.23,-4.69,-3.62,-50.31
88027447,3.98,-0.30,8.58,0.01,0.32,-0.20,-4.69,-3.62,-50.31
88037451,-10.23,-4.64,8.46,0.01,0.32,-0.20,-4.69,-3.62,-50.31
88047424,-2.38,-4.18,15.32,0.01,0.32,-0.20,-4.69,-3.62,-50.31
88057799,-3.71,-1.91,11.57,0.01,0.32,-0.20,-4.69,-3.62,-50.31
88066733,-3.71,-1.91,11.57,0.12,0.04,-0.24,-4.69,-3.62,-50.31
88076726,1.07,-3.60,10.27,0.12,0.04,-0.24,-4.69,-3.62,-50.31
88087887,1.07,-3.60,10.27,0.20,0.12,-0.23,-4.69,-3.62,-50.31
88097361,1.07,-3.60,10.27,0.21,0.24,-0.19,-4.69,-3.62,-50.31
88107386,-1.27,-0.84,8.43,0.21,0.24,-0.19,-4.69,-3.62,-50.31
88116711,-3.87,-3.18,6.82,0.21,0.24,-0.19,-4.69,-3.62,-50.31
88127681,-5.74,-1.95,5.40,0.21,0.24,-0.19,-4.69,-3.62,-50.31
88137364,-5.74,-1.95,5.40,0.20,-0.02,-0.31,-4.69,-3.62,-50.31
88147410,1.88,-2.14,6.28,0.20,-0.02,-0.31,-4.69,-3.62,-50.31
88157722,6.78,-0.27,12.26,0.20,-0.02,-0.31,-4.69,-3.62,-50.31
87967512,0.88,-1.91,10.42,0.14,0.16,-0.22,-4.69,-3.62,-50.31
