timestamp,accX,accY,accZ,gyroX,gyroY,gyroZ
Break
7,-4.25,1.23,8.43,-0.10,-0.20,-0.41
18,-4.25,1.23,8.43,-0.09,-0.16,-0.41
22,-4.25,1.23,8.43,-0.27,-0.00,-0.17
23,-0.73,1.57,7.32,-0.27,-0.00,-0.17
26,-0.73,1.57,7.32,-0.30,-0.00,-0.26
31,0.96,0.84,9.00,-0.30,-0.00,-0.26
36,0.96,0.84,9.00,-0.30,-0.03,-0.27
42,3.87,1.61,10.77,-0.30,-0.03,-0.27
46,3.87,1.61,10.77,-0.34,-0.14,-0.31
51,3.87,1.61,10.77,-0.35,-0.14,-0.32
57,3.87,1.61,10.77,-0.35,-0.15,-0.33
61,3.87,1.61,10.77,-0.36,-0.09,-0.34
66,3.87,1.61,10.77,-0.33,0.02,-0.35
71,3.87,1.61,10.77,-0.31,0.13,-0.33
76,-2.11,0.61,8.01,-0.31,0.13,-0.33
81,-2.11,0.61,8.01,-0.26,0.26,-0.33
86,-2.11,0.61,8.01,-0.27,0.25,-0.36
92,-2.11,0.61,8.01,-0.29,0.21,-0.40
96,-2.11,0.61,8.01,-0.31,0.12,-0.44
101,-2.11,0.61,8.01,-0.33,-0.00,-0.46
106,-2.11,0.61,8.01,-0.32,-0.07,-0.47
112,4.71,-0.34,8.08,-0.32,-0.07,-0.47
116,4.71,-0.34,8.08,-0.31,-0.23,-0.42
121,4.71,-0.34,8.08,-0.30,-0.26,-0.41
127,4.71,-0.34,8.08,-0.29,-0.22,-0.41
131,4.71,-0.34,8.08,-0.27,-0.16,-0.41
136,4.71,-0.34,8.08,-0.27,-0.08,-0.42
141,4.71,-0.34,8.08,-0.24,0.02,-0.45
147,-0.57,1.34,10.31,-0.24,0.02,-0.45
151,-0.57,1.34,10.31,-0.22,0.07,-0.49
156,-0.57,1.34,10.31,-0.22,0.05,-0.46
161,-0.57,1.34,10.31,-0.23,0.00,-0.43
166,-0.57,1.34,10.31,-0.19,-0.03,-0.43
171,-0.57,1.34,10.31,-0.21,-0.04,-0.45
176,-0.57,1.34,10.31,-0.18,-0.05,-0.47
182,-2.49,-0.15,7.59,-0.18,-0.05,-0.47
186,-2.49,-0.15,7.59,-0.15,-0.02,-0.45
192,-2.49,-0.15,7.59,-0.15,-0.00,-0.45
197,-2.49,-0.15,7.59,-0.16,0.01,-0.46
201,-2.49,-0.15,7.59,-0.14,0.02,-0.46
206,-2.49,-0.15,7.59,-0.14,0.01,-0.45
211,-2.49,-0.15,7.59,-0.13,0.00,-0.44
216,-2.49,-0.15,7.59,-0.11,0.00,-0.41
221,-2.49,-0.15,7.59,-0.07,0.01,-0.37
226,-2.49,-0.15,7.59,-0.04,0.05,-0.35
232,-2.49,-0.15,7.59,-0.03,0.06,-0.31
236,-2.49,-0.15,7.59,-0.03,0.03,-0.28
241,-2.49,-0.15,7.59,-0.04,0.02,-0.26
246,-2.49,-0.15,7.59,-0.03,0.04,-0.26
251,-2.49,-0.15,7.59,-0.02,0.04,-0.24
256,-2.49,-0.15,7.59,-0.01,0.06,-0.22
261,-2.49,-0.15,7.59,-0.01,0.06,-0.19
267,-0.11,-1.65,9.46,-0.01,0.06,-0.19
271,-0.11,-1.65,9.46,0.00,-0.08,-0.14
276,-0.11,-1.65,9.46,-0.01,-0.15,-0.10
282,-0.11,-1.65,9.46,0.00,-0.20,-0.07
286,-0.11,-1.65,9.46,0.00,-0.19,-0.04
291,-0.11,-1.65,9.46,0.03,-0.12,-0.02
296,-0.11,-1.65,9.46,0.07,-0.04,0.04
302,-0.77,-1.99,10.88,0.07,-0.04,0.04
306,-0.77,-1.99,10.88,0.14,0.15,0.13
312,-0.77,-1.99,10.88,0.16,0.20,0.15
316,-0.77,-1.99,10.88,0.17,0.21,0.15
322,-1.65,-1.42,8.43,0.17,0.21,0.15
326,-1.65,-1.42,8.43,0.17,0.07,0.19
331,-1.65,-1.42,8.43,0.15,-0.04,0.20
337,1.38,-2.64,9.69,0.15,-0.04,0.20
341,1.38,-2.64,9.69,0.11,-0.17,0.20
346,1.38,-2.64,9.69,0.11,-0.15,0.20
351,1.38,-2.64,9.69,0.10,-0.12,0.21
356,1.38,-2.64,9.69,0.13,-0.09,0.23
361,1.38,-2.64,9.69,0.15,-0.02,0.25
366,1.38,-2.64,9.69,0.20,0.04,0.27
372,-1.91,-1.46,8.01,0.20,0.04,0.27
376,-1.91,-1.46,8.01,0.20,0.13,0.29
381,-1.91,-1.46,8.01,0.22,0.13,0.28
386,-1.91,-1.46,8.01,0.20,0.07,0.28
391,-1.91,-1.46,8.01,0.19,-0.01,0.28
396,-1.91,-1.46,8.01,0.17,-0.07,0.30
401,-1.91,-1.46,8.01,0.17,-0.09,0.32
407,0.80,-1.15,11.26,0.17,-0.09,0.32
411,0.80,-1.15,11.26,0.15,0.02,0.32
416,0.80,-1.15,11.26,0.15,0.08,0.30
422,0.80,-1.15,11.26,0.15,0.14,0.29
427,-1.99,-1.11,9.12,0.15,0.14,0.29
432,-1.99,-1.11,9.12,0.17,0.16,0.31
436,-1.99,-1.11,9.12,0.18,0.13,0.30
442,-1.53,-0.65,6.51,0.18,0.13,0.30
446,-1.53,-0.65,6.51,0.15,-0.02,0.26
451,-1.53,-0.65,6.51,0.13,-0.09,0.24
456,-1.53,-0.65,6.51,0.11,-0.17,0.23
462,1.53,0.19,11.53,0.11,-0.17,0.23
466,1.53,0.19,11.53,0.04,-0.29,0.20
471,1.53,0.19,11.53,-0.02,-0.30,0.20
477,2.76,-0.80,14.10,-0.02,-0.30,0.20
481,2.76,-0.80,14.10,-0.00,-0.07,0.24
486,2.76,-0.80,14.10,0.05,0.09,0.27
492,2.76,-0.80,14.10,0.10,0.27,0.26
496,2.76,-0.80,14.10,0.17,0.41,0.23
501,2.76,-0.80,14.10,0.20,0.44,0.20
506,2.76,-0.80,14.10,0.19,0.36,0.17
512,-2.87,-0.61,5.52,0.19,0.36,0.17
516,-2.87,-0.61,5.52,0.01,-0.06,0.11
521,-2.87,-0.61,5.52,-0.07,-0.33,0.09
527,-2.87,-0.61,5.52,-0.11,-0.46,0.08
532,-2.87,-0.61,5.52,-0.11,-0.46,0.09
536,-2.87,-0.61,5.52,-0.09,-0.31,0.13
541,-2.87,-0.61,5.52,0.04,-0.11,0.21
547,0.88,3.37,10.96,0.04,-0.11,0.21
551,0.88,3.37,10.96,0.08,0.27,0.32
556,0.88,3.37,10.96,0.10,0.35,0.29
562,-1.76,0.11,8.50,0.10,0.35,0.29
566,-1.76,0.11,8.50,0.10,0.24,0.19
572,-1.76,0.11,8.50,0.08,0.10,0.20
576,-1.76,0.11,8.50,0.05,-0.03,0.25
582,-2.41,-0.27,6.93,0.05,-0.03,0.25
586,-2.41,-0.27,6.93,-0.07,-0.15,0.21
591,-2.41,-0.27,6.93,-0.13,-0.21,0.12
597,-0.46,0.11,4.90,-0.13,-0.21,0.12
601,-0.46,0.11,4.90,-0.17,-0.25,0.00
606,-0.46,0.11,4.90,-0.14,-0.21,-0.01
612,-0.46,0.11,4.90,-0.13,-0.16,-0.00
617,-0.46,-0.92,10.39,-0.13,-0.16,-0.00
621,-0.46,-0.92,10.39,-0.09,-0.09,0.08
626,-0.46,-0.92,10.39,-0.10,-0.08,0.11
632,3.75,-0.65,11.64,-0.10,-0.08,0.11
636,3.75,-0.65,11.64,-0.11,-0.07,0.13
641,3.75,-0.65,11.64,-0.08,-0.04,0.15
646,3.75,-0.65,11.64,-0.04,0.02,0.18
652,2.18,-0.61,7.59,-0.04,0.02,0.18
656,2.18,-0.61,7.59,-0.01,0.14,0.23
661,2.18,-0.61,7.59,-0.00,0.22,0.19
667,-3.83,-1.07,9.54,-0.00,0.22,0.19
671,-3.83,-1.07,9.54,-0.01,0.29,0.06
676,-3.83,-1.07,9.54,-0.05,0.23,-0.02
682,-3.83,-1.07,9.54,-0.07,0.12,-0.06
687,-0.08,-1.88,7.70,-0.07,0.12,-0.06
692,-0.08,-1.88,7.70,-0.14,-0.12,-0.10
696,-0.08,-1.88,7.70,-0.16,-0.15,-0.11
702,-1.07,1.91,10.91,-0.16,-0.15,-0.11
706,-1.07,1.91,10.91,-0.20,-0.14,-0.14
711,-1.07,1.91,10.91,-0.21,-0.17,-0.13
717,-1.07,1.91,10.91,-0.19,-0.19,-0.08
722,2.87,-0.80,9.65,-0.19,-0.19,-0.08
726,2.87,-0.80,9.65,-0.10,-0.05,0.03
731,2.87,-0.80,9.65,-0.06,0.06,0.05
737,-2.99,0.69,7.77,-0.06,0.06,0.05
741,-2.99,0.69,7.77,-0.02,0.23,-0.04
746,-2.99,0.69,7.77,-0.05,0.23,-0.10
752,-2.99,0.69,7.77,-0.09,0.20,-0.16
756,-2.99,0.69,7.77,-0.17,0.10,-0.21
761,-2.99,0.69,7.77,-0.24,-0.05,-0.28
767,-2.99,0.69,7.77,-0.30,-0.18,-0.35
772,3.56,-0.57,9.73,-0.30,-0.18,-0.35
776,3.56,-0.57,9.73,-0.33,-0.34,-0.36
781,3.56,-0.57,9.73,-0.32,-0.37,-0.31
787,3.56,-0.57,9.73,-0.26,-0.33,-0.24
791,3.56,-0.57,9.73,-0.20,-0.21,-0.18
796,3.56,-0.57,9.73,-0.15,-0.09,-0.14
802,3.56,-0.57,9.73,-0.12,0.03,-0.12
807,0.15,0.50,11.72,-0.12,0.03,-0.12
812,0.15,0.50,11.72,-0.08,0.16,-0.10
816,0.15,0.50,11.72,-0.07,0.17,-0.07
822,1.95,-0.88,8.73,-0.07,0.17,-0.07
826,1.95,-0.88,8.73,-0.08,0.09,-0.02
832,1.95,-0.88,8.73,-0.11,0.03,-0.01
837,1.95,-0.88,8.73,-0.12,-0.04,-0.03
842,2.18,-0.38,8.62,-0.12,-0.04,-0.03
846,2.18,-0.38,8.62,-0.17,-0.16,-0.08
851,2.18,-0.38,8.62,-0.16,-0.14,-0.10
857,0.30,-1.11,11.72,-0.16,-0.14,-0.10
861,0.30,-1.11,11.72,-0.11,0.02,-0.06
866,0.30,-1.11,11.72,-0.08,0.12,-0.04
871,0.30,-1.11,11.72,-0.06,0.19,-0.03
877,-0.84,-0.77,8.12,-0.06,0.19,-0.03
881,-0.84,-0.77,8.12,-0.04,0.13,-0.01
886,-0.84,-0.77,8.12,-0.04,0.05,-0.01
892,-2.18,-0.30,5.94,-0.04,0.05,-0.01
896,-2.18,-0.30,5.94,-0.07,-0.13,-0.05
901,-2.18,-0.30,5.94,-0.08,-0.20,-0.05
907,-2.18,-0.30,5.94,-0.12,-0.27,-0.04
912,4.10,-0.84,11.42,-0.12,-0.27,-0.04
916,4.10,-0.84,11.42,-0.16,-0.24,-0.01
921,4.10,-0.84,11.42,-0.15,-0.13,-0.00
927,0.00,-0.80,10.46,-0.15,-0.13,-0.00
931,0.00,-0.80,10.46,-0.10,0.14,-0.05
936,0.00,-0.80,10.46,-0.04,0.24,-0.08
941,0.00,-0.80,10.46,-0.02,0.28,-0.09
947,-1.65,-1.84,9.81,-0.02,0.28,-0.09
951,-1.65,-1.84,9.81,-0.03,0.20,-0.08
956,-1.65,-1.84,9.81,-0.06,0.10,-0.09
962,4.83,-1.72,11.26,-0.06,0.10,-0.09
966,4.83,-1.72,11.26,-0.12,-0.15,-0.11
971,4.83,-1.72,11.26,-0.17,-0.22,-0.09
976,4.83,-1.72,11.26,-0.15,-0.21,-0.07
982,2.57,-0.42,11.50,-0.15,-0.21,-0.07
986,2.57,-0.42,11.50,-0.08,0.04,-0.03
991,2.57,-0.42,11.50,-0.06,0.20,-0.04
997,-3.22,0.00,10.77,-0.06,0.20,-0.04
1001,-3.22,0.00,10.77,0.00,0.39,-0.05
1006,-3.22,0.00,10.77,0.01,0.37,-0.04
1012,0.30,-1.34,9.00,0.01,0.37,-0.04
1016,0.30,-1.34,9.00,-0.04,0.16,-0.00
1021,0.30,-1.34,9.00,-0.07,0.04,0.01
1026,0.30,-1.34,9.00,-0.09,-0.04,0.00
1032,2.41,0.11,8.77,-0.09,-0.04,0.00
1036,2.41,0.11,8.77,-0.13,-0.16,-0.02
1041,2.41,0.11,8.77,-0.11,-0.14,-0.00
1047,1.38,-1.49,12.07,-0.11,-0.14,-0.00
1051,1.38,-1.49,12.07,-0.07,-0.02,0.08
1056,1.38,-1.49,12.07,-0.06,0.05,0.08
1061,1.38,-1.49,12.07,-0.03,0.12,0.06
1067,0.69,-1.23,10.00,-0.03,0.12,0.06
1071,0.69,-1.23,10.00,-0.01,0.15,0.05
1076,0.69,-1.23,10.00,-0.02,0.13,0.06
1082,0.69,-1.23,10.00,-0.03,0.09,0.04
1086,0.69,-1.23,10.00,-0.06,0.06,0.02
1091,0.69,-1.23,10.00,-0.04,0.06,-0.02
1096,0.69,-1.23,10.00,-0.03,0.07,-0.02
1102,0.77,-0.04,8.70,-0.03,0.07,-0.02
1106,0.77,-0.04,8.70,-0.05,0.07,-0.02
1111,0.77,-0.04,8.70,-0.07,0.06,-0.07
1117,-0.54,0.04,7.13,-0.07,0.06,-0.07
1121,-0.54,0.04,7.13,-0.09,0.09,-0.20
1126,-0.54,0.04,7.13,-0.09,0.14,-0.22
1131,-0.54,0.04,7.13,-0.09,0.16,-0.25
1137,-1.30,-0.19,7.82,-0.09,0.16,-0.25
1141,-1.30,-0.19,7.82,-0.13,0.07,-0.31
1147,-1.30,-0.19,7.82,-0.15,-0.03,-0.33
1152,0.50,0.08,7.77,-0.15,-0.03,-0.33
1156,0.50,0.08,7.77,-0.20,-0.13,-0.38
1161,0.50,0.08,7.77,-0.20,-0.11,-0.42
1166,0.50,0.08,7.77,-0.20,-0.08,-0.44
1172,0.80,0.27,10.57,-0.20,-0.08,-0.44
1176,0.80,0.27,10.57,-0.14,0.11,-0.41
1182,0.80,0.27,10.57,-0.11,0.19,-0.38
1187,0.23,-0.38,10.04,-0.11,0.19,-0.38
1191,0.23,-0.38,10.04,-0.09,0.25,-0.44
1196,0.23,-0.38,10.04,-0.08,0.25,-0.47
1202,0.23,-0.38,10.04,-0.09,0.22,-0.48
1206,0.23,-0.38,10.04,-0.10,0.21,-0.50
1211,0.23,-0.38,10.04,-0.12,0.18,-0.51
1217,0.23,-0.38,10.04,-0.14,0.13,-0.54
1222,0.23,-0.38,10.04,-0.18,0.09,-0.56
1226,0.23,-0.38,10.04,-0.18,0.00,-0.59
1231,0.23,-0.38,10.04,-0.19,-0.10,-0.58
1236,3.29,0.15,8.70,-0.19,-0.10,-0.58
1242,2.80,0.46,7.97,-0.19,-0.10,-0.58
1246,2.80,0.46,7.97,-0.18,-0.22,-0.48
1251,2.80,0.46,7.97,-0.16,-0.20,-0.46
1257,0.27,-0.19,9.00,-0.16,-0.20,-0.46
1261,0.27,-0.19,9.00,-0.09,-0.03,-0.49
1266,0.27,-0.19,9.00,-0.07,0.06,-0.48
1272,-1.46,-0.38,11.07,-0.07,0.06,-0.48
1276,-1.46,-0.38,11.07,-0.06,0.18,-0.49
1281,-1.46,-0.38,11.07,-0.06,0.17,-0.50
1286,-1.46,-0.38,11.07,-0.07,0.13,-0.52
1292,3.14,-1.42,11.11,-0.07,0.13,-0.52
1296,3.14,-1.42,11.11,-0.10,-0.09,-0.49
1301,3.14,-1.42,11.11,-0.11,-0.19,-0.47
1307,2.76,-1.38,10.31,-0.11,-0.19,-0.47
1311,2.76,-1.38,10.31,-0.08,-0.19,-0.46
1316,2.76,-1.38,10.31,-0.02,-0.10,-0.44
1321,2.76,-1.38,10.31,0.01,0.04,-0.42
1327,-1.07,-1.88,10.65,0.01,0.04,-0.42
1331,-1.07,-1.88,10.65,0.11,0.30,-0.39
1336,-1.07,-1.88,10.65,0.15,0.37,-0.38
1341,-1.07,-1.88,10.65,0.16,0.37,-0.36
1346,-1.34,-1.30,6.74,0.16,0.37,-0.36
1352,-1.34,-1.30,6.74,0.14,0.16,-0.31
1356,-1.34,-1.30,6.74,0.10,0.00,-0.30
1362,2.49,-1.46,7.62,0.10,0.00,-0.30
1366,2.49,-1.46,7.62,0.08,-0.29,-0.20
1371,2.49,-1.46,7.62,0.07,-0.39,-0.13
1376,2.49,-1.46,7.62,0.08,-0.41,-0.05
1381,2.49,-1.46,7.62,0.09,-0.35,0.03
1386,2.49,-1.46,7.62,0.15,-0.22,0.09
1392,2.49,-1.46,7.62,0.20,-0.03,0.12
1396,2.49,-1.46,7.62,0.26,0.16,0.15
1401,2.49,-1.46,7.62,0.31,0.28,0.20
1407,2.49,-1.46,7.62,0.33,0.29,0.25
1412,0.27,-3.48,8.78,0.33,0.29,0.25
1416,0.27,-3.48,8.78,0.29,0.08,0.36
1421,0.27,-3.48,8.78,0.26,-0.05,0.38
1427,-1.95,-1.68,4.83,0.26,-0.05,0.38
1431,-1.95,-1.68,4.83,0.25,-0.15,0.39
1436,-1.95,-1.68,4.83,0.26,-0.18,0.40
1441,-1.95,-1.68,4.83,0.27,-0.20,0.43
1447,-0.34,-3.29,8.23,0.27,-0.20,0.43
1451,-0.34,-3.29,8.23,0.30,-0.20,0.53
1456,-0.34,-3.29,8.23,0.32,-0.18,0.57
1462,-0.34,-3.29,8.23,0.30,-0.14,0.57
1466,-0.34,-3.29,8.23,0.27,-0.11,0.57
1471,-0.34,-3.29,8.23,0.26,-0.08,0.56
1476,-0.34,-3.29,8.23,0.25,-0.05,0.56
1482,-0.34,-3.29,8.23,0.27,-0.03,0.56
1486,-0.34,-3.29,8.23,0.27,0.00,0.57
1491,-0.34,-3.29,8.23,0.28,0.01,0.60
1496,-2.84,-1.72,7.39,0.28,0.01,0.60
1502,-3.98,-1.30,6.85,0.28,0.01,0.60
1506,-3.98,-1.30,6.85,0.27,-0.03,0.53
1512,-3.98,-1.30,6.85,0.24,-0.11,0.46
1516,-3.98,-1.30,6.85,0.20,-0.21,0.43
1521,-3.98,-1.30,6.85,0.18,-0.28,0.40
1526,-3.98,-1.30,6.85,0.15,-0.29,0.38
1532,-0.42,-0.42,8.04,0.15,-0.29,0.38
1536,-0.42,-0.42,8.04,0.08,-0.30,0.28
1541,-0.42,-0.42,8.04,0.06,-0.25,0.22
1547,-0.42,-0.42,8.04,0.07,-0.19,0.21
1551,-0.42,-0.42,8.04,0.07,-0.14,0.23
1556,-0.42,-0.42,8.04,0.05,-0.09,0.22
1561,-0.42,-0.42,8.04,0.06,-0.07,0.23
1567,-0.38,0.08,10.99,0.06,-0.07,0.23
1571,-0.38,0.08,10.99,0.04,-0.06,0.24
1576,-0.38,0.08,10.99,0.06,-0.10,0.25
1582,-0.38,0.08,10.99,0.04,-0.17,0.29
1586,-0.38,0.08,10.99,0.07,-0.21,0.35
1591,-0.38,0.08,10.99,0.10,-0.19,0.40
1596,-0.38,0.08,10.99,0.11,-0.14,0.41
1602,-0.38,0.08,10.99,0.12,-0.07,0.38
1606,-0.38,0.08,10.99,0.11,0.03,0.35
1611,-0.38,0.08,10.99,0.11,0.13,0.33
1616,-0.38,0.08,10.99,0.13,0.21,0.31
1622,-3.91,0.30,7.93,0.13,0.21,0.31
1626,-3.91,0.30,7.93,0.04,0.18,0.23
1631,-3.91,0.30,7.93,-0.01,0.07,0.16
1636,0.65,0.50,7.86,-0.01,0.07,0.16
1641,0.65,0.50,7.86,-0.10,-0.27,0.09
1646,0.65,0.50,7.86,-0.14,-0.38,0.09
1652,0.65,0.50,7.86,-0.14,-0.44,0.10
1656,0.65,0.50,7.86,-0.15,-0.46,0.11
1661,0.65,0.50,7.86,-0.15,-0.40,0.10
1666,0.65,0.50,7.86,-0.12,-0.26,0.08
1671,-2.45,0.92,9.73,-0.12,-0.26,0.08
1676,-2.45,0.92,9.73,-0.05,0.08,0.09
1681,-2.45,0.92,9.73,-0.02,0.18,0.06
1687,-2.45,0.92,9.73,-0.04,0.20,0.02
1691,-2.45,0.92,9.73,-0.05,0.12,0.00
1696,-2.45,0.92,9.73,-0.07,0.02,-0.03
1701,-2.45,0.92,9.73,-0.11,-0.11,-0.07
1707,3.41,0.69,8.81,-0.11,-0.11,-0.07
1711,3.41,0.69,8.81,-0.17,-0.22,-0.16
1716,3.41,0.69,8.81,-0.19,-0.18,-0.22
1721,3.41,0.69,8.81,-0.22,-0.10,-0.26
1726,3.41,0.69,8.81,-0.20,0.02,-0.30
1731,3.41,0.69,8.81,-0.21,0.14,-0.32
1736,3.41,0.69,8.81,-0.17,0.24,-0.32
1741,3.41,0.69,8.81,-0.14,0.31,-0.32
1746,3.41,0.69,8.81,-0.16,0.33,-0.34
1751,3.41,0.69,8.81,-0.14,0.28,-0.37
1757,0.88,-0.34,8.58,-0.14,0.28,-0.37
1761,0.88,-0.34,8.58,-0.13,0.13,-0.40
1766,0.88,-0.34,8.58,-0.13,0.07,-0.40
1772,0.88,-0.34,8.58,-0.13,0.01,-0.40
1776,0.88,-0.34,8.58,-0.17,-0.06,-0.42
1781,0.88,-0.34,8.58,-0.20,-0.10,-0.44
1786,0.88,-0.34,8.58,-0.22,-0.12,-0.46
1792,2.22,1.00,7.86,-0.22,-0.12,-0.46
1796,2.22,1.00,7.86,-0.21,-0.06,-0.51
1801,2.22,1.00,7.86,-0.21,0.00,-0.54
1807,2.22,1.00,7.86,-0.22,0.07,-0.55
1812,2.22,1.00,7.86,-0.20,0.13,-0.54
1816,0.84,0.34,11.84,-0.20,0.13,-0.54
1821,0.84,0.34,11.84,-0.17,0.28,-0.55
1827,0.73,0.04,11.57,-0.17,0.28,-0.55
1831,0.73,0.04,11.57,-0.13,0.34,-0.54
1836,0.73,0.04,11.57,-0.10,0.33,-0.50
1842,0.73,0.04,11.57,-0.09,0.32,-0.48
1846,0.73,0.04,11.57,-0.07,0.28,-0.46
1851,0.73,0.04,11.57,-0.05,0.25,-0.46
1856,0.73,0.04,11.57,-0.03,0.25,-0.46
1862,0.73,0.04,11.57,-0.02,0.24,-0.45
1866,-2.84,0.27,10.96,-0.02,0.24,-0.45
1871,0.42,-0.27,9.54,-0.02,0.24,-0.45
1876,0.42,-0.27,9.54,-0.05,-0.00,-0.42
1882,7.62,-1.61,10.49,-0.05,-0.00,-0.42
1886,7.62,-1.61,10.49,-0.11,-0.34,-0.30
1891,6.82,-1.68,10.84,-0.11,-0.34,-0.30
1896,6.82,-1.68,10.84,-0.07,-0.34,-0.21
1901,6.82,-1.68,10.84,-0.04,-0.20,-0.22
1906,6.82,-1.68,10.84,0.02,-0.02,-0.24
1912,6.82,-1.68,10.84,0.08,0.20,-0.26
1916,6.82,-1.68,10.84,0.12,0.41,-0.25
1921,-1.19,-2.57,10.39,0.12,0.41,-0.25
1926,-1.19,-2.57,10.39,0.16,0.56,-0.23
1932,1.23,-2.14,8.23,0.16,0.56,-0.23
1936,1.23,-2.14,8.23,0.10,0.37,-0.23
1941,1.46,-1.57,2.18,0.10,0.37,-0.23
1946,1.46,-1.57,2.18,0.06,0.05,-0.25
1951,1.46,-1.57,2.18,0.03,-0.03,-0.27
1956,1.46,-1.57,2.18,0.07,-0.08,-0.27
1961,1.46,-1.57,2.18,0.07,-0.10,-0.28
1966,1.46,-1.57,2.18,0.10,-0.09,-0.22
1971,1.46,-1.57,2.18,0.14,-0.03,-0.11
1976,1.46,-1.57,2.18,0.17,0.03,0.01
1981,1.46,-1.57,2.18,0.16,0.04,0.05
1986,1.30,-0.50,10.31,0.16,0.04,0.05
1992,1.30,-0.50,10.31,0.15,0.02,0.02
1996,1.30,-0.50,10.31,0.17,-0.07,0.10
2002,1.30,-0.50,10.31,0.21,-0.06,0.19
2006,-4.10,-1.68,10.91,0.21,-0.06,0.19
2011,-4.86,-1.88,11.76,0.21,-0.06,0.19
2016,-4.86,-1.88,11.76,0.31,0.25,0.25
2021,-4.86,-1.88,11.76,0.32,0.31,0.27
2027,-4.86,-1.88,11.76,0.32,0.32,0.30
2032,1.07,-1.99,7.51,0.32,0.32,0.30
2036,4.94,-2.57,6.55,0.32,0.32,0.30
2041,4.56,-1.61,6.02,0.32,0.32,0.30
2046,4.56,-1.61,6.02,0.17,-0.40,0.38
2052,1.46,-1.00,6.40,0.17,-0.40,0.38
2056,-0.65,-1.04,9.69,0.17,-0.40,0.38
2061,-1.91,-2.03,10.19,0.17,-0.40,0.38
2066,-2.76,-1.23,10.80,0.17,-0.40,0.38
2071,-2.76,-1.23,10.80,0.23,0.04,0.42
2076,-2.76,-1.23,10.80,0.25,0.11,0.44
2082,-2.76,-1.23,10.80,0.25,0.10,0.47
2087,-2.76,-1.23,10.80,0.23,0.03,0.47
2091,-0.69,-0.54,8.84,0.23,0.03,0.47
2096,-0.50,-1.30,9.58,0.23,0.03,0.47
2102,-0.50,-1.30,9.58,0.15,-0.27,0.41
2106,-0.50,-1.30,9.58,0.14,-0.26,0.39
2111,-0.69,-1.61,11.30,0.14,-0.26,0.39
2116,-0.69,-1.61,11.30,0.14,-0.23,0.36
2122,-0.69,-1.61,11.30,0.15,-0.27,0.37
2126,3.33,-0.50,9.58,0.15,-0.27,0.37
2131,3.03,0.38,8.32,0.15,-0.27,0.37
2136,3.03,0.38,8.32,0.12,-0.24,0.39
2142,3.18,-1.04,10.11,0.12,-0.24,0.39
2147,3.18,-1.04,10.11,0.09,-0.11,0.27
2151,-1.42,-0.42,11.19,0.09,-0.11,0.27
2156,-2.03,-0.61,10.27,0.09,-0.11,0.27
2161,-2.61,-0.34,10.27,0.09,-0.11,0.27
2166,-2.61,-0.34,10.27,0.08,0.17,0.25
2172,-2.61,-0.34,10.27,0.06,0.15,0.24
2177,-2.61,-0.34,10.27,0.04,0.08,0.21
2181,-1.76,-0.80,6.55,0.04,0.08,0.21
2186,-0.73,-1.27,9.34,0.04,0.08,0.21
2191,-0.73,-1.27,9.34,0.01,-0.31,0.22
2196,-0.73,-1.27,9.34,0.01,-0.42,0.28
2201,-0.73,-1.27,9.34,0.01,-0.48,0.32
2207,-0.73,-1.27,9.34,0.02,-0.48,0.36
2212,-0.73,-1.27,9.34,0.04,-0.39,0.37
2216,0.57,-0.80,11.53,0.04,-0.39,0.37
2221,1.30,-0.92,12.07,0.04,-0.39,0.37
2226,1.30,-0.92,12.07,0.12,0.06,0.34
2231,1.30,-0.92,12.07,0.12,0.14,0.35
2236,1.30,-0.92,12.07,0.12,0.18,0.36
2242,1.30,-0.92,12.07,0.09,0.15,0.35
2247,1.30,-0.92,12.07,0.04,0.06,0.32
2251,5.94,-0.73,7.55,0.04,0.06,0.32
2256,5.36,0.30,7.39,0.04,0.06,0.32
2262,5.36,0.30,7.39,-0.00,-0.16,0.27
2267,5.36,0.30,7.39,-0.00,-0.11,0.27
2271,-1.42,1.00,11.22,-0.00,-0.11,0.27
2276,-4.90,0.80,12.30,-0.00,-0.11,0.27
2281,-4.90,0.80,12.30,-0.01,0.28,0.16
2286,-4.90,0.80,12.30,-0.00,0.37,0.13
2292,-2.76,-0.27,9.61,-0.00,0.37,0.13
2296,0.69,-1.42,7.59,-0.00,0.37,0.13
2301,2.84,-0.96,7.43,-0.00,0.37,0.13
2307,2.84,-0.96,7.43,-0.05,-0.07,0.18
2311,2.84,-0.96,7.43,-0.07,-0.22,0.17
2316,2.68,-0.23,8.82,-0.07,-0.22,0.17
2321,1.95,-0.42,10.57,-0.07,-0.22,0.17
2327,1.95,-0.42,10.57,-0.07,-0.21,0.13
2332,1.95,-0.42,10.57,-0.06,-0.07,0.12
2337,-1.19,0.46,11.30,-0.06,-0.07,0.12
2341,-0.92,-0.46,8.89,-0.06,-0.07,0.12
2346,-0.30,-0.27,9.43,-0.06,-0.07,0.12
2351,1.72,-0.54,10.30,-0.06,-0.07,0.12
2356,1.72,-0.54,10.30,-0.06,0.25,-0.04
2362,1.72,-0.54,10.30,-0.09,0.14,-0.06
2366,2.45,-0.65,9.16,-0.09,0.14,-0.06
2371,1.68,-1.04,9.43,-0.09,0.14,-0.06
2376,1.68,-1.04,9.43,-0.12,-0.02,-0.09
2382,1.68,-1.04,9.43,-0.12,0.03,-0.13
2387,0.08,-0.11,11.22,-0.12,0.03,-0.13
2391,0.08,-0.11,11.22,-0.11,0.21,-0.15
2396,-0.73,-0.15,9.58,-0.11,0.21,-0.15
2401,-0.73,-0.15,9.58,-0.11,0.23,-0.16
2406,-0.73,-0.15,9.58,-0.12,0.21,-0.20
2411,-0.73,-0.15,9.58,-0.13,0.16,-0.23
2416,-0.73,-0.15,9.58,-0.14,0.10,-0.24
2421,0.19,0.15,8.54,-0.14,0.10,-0.24
2426,-1.42,0.08,8.12,-0.14,0.10,-0.24
2432,-1.42,0.08,8.12,-0.12,0.15,-0.21
2436,-3.83,0.77,9.65,-0.12,0.15,-0.21
2441,-3.83,0.77,9.65,-0.10,0.21,-0.26
2446,-1.38,0.00,9.39,-0.10,0.21,-0.26
2451,-1.38,0.00,9.39,-0.09,0.14,-0.23
2457,-1.38,0.00,9.39,-0.11,0.04,-0.22
2461,1.68,-0.27,8.96,-0.11,0.04,-0.22
2466,2.57,-0.80,10.19,-0.11,0.04,-0.22
2471,1.46,-0.38,11.07,-0.11,0.04,-0.22
2476,1.23,-1.30,11.68,-0.11,0.04,-0.22
2482,1.23,-1.30,11.68,-0.10,-0.04,-0.25
2486,1.23,-1.30,11.68,-0.06,0.07,-0.22
2491,0.19,-1.00,10.27,-0.06,0.07,-0.22
2496,0.42,-0.80,9.69,-0.06,0.07,-0.22
2502,0.42,-0.80,9.69,-0.04,0.24,-0.23
2506,-1.72,-0.27,8.89,-0.04,0.24,-0.23
2511,-2.11,0.04,7.70,-0.04,0.24,-0.23
2516,-4.75,0.38,7.09,-0.04,0.24,-0.23
2521,-2.45,-0.50,9.08,-0.04,0.24,-0.23
2526,-2.45,-0.50,9.08,-0.05,0.12,-0.23
2532,-2.45,-0.50,9.08,-0.07,0.01,-0.20
2536,-2.45,-0.50,9.08,-0.07,-0.12,-0.15
2541,1.88,-1.11,7.89,-0.07,-0.12,-0.15
2546,1.57,-1.19,8.16,-0.07,-0.12,-0.15
2551,2.22,-1.38,9.27,-0.07,-0.12,-0.15
2556,1.46,-0.96,10.41,-0.07,-0.12,-0.15
2561,0.46,-1.91,11.04,-0.07,-0.12,-0.15
2566,-0.15,-0.88,11.41,-0.07,-0.12,-0.15
2571,-0.15,-0.88,11.41,0.06,0.05,-0.01
2576,0.04,-1.11,10.92,0.06,0.05,-0.01
2581,-0.04,-1.57,10.23,0.06,0.05,-0.01
2586,-0.46,-0.73,9.42,0.06,0.05,-0.01
2591,0.61,-1.46,8.58,0.06,0.05,-0.01
2596,1.38,-1.99,8.20,0.06,0.05,-0.01
2601,-0.23,-1.99,7.17,0.06,0.05,-0.01
2607,-0.23,-1.99,7.17,0.01,-0.05,0.01
2611,0.92,-1.34,9.35,0.01,-0.05,0.01
2616,1.15,-1.42,9.65,0.01,-0.05,0.01
2621,1.11,-0.96,9.58,0.01,-0.05,0.01
2626,0.46,-0.38,8.81,0.01,-0.05,0.01
2631,0.11,0.38,8.74,0.01,-0.05,0.01
2636,0.61,0.04,8.74,0.01,-0.05,0.01
2641,1.04,-0.54,9.61,0.01,-0.05,0.01
2646,0.04,-0.92,9.08,0.01,-0.05,0.01
2651,0.08,-0.77,9.27,0.01,-0.05,0.01
2656,0.38,-0.69,9.34,0.01,-0.05,0.01
2661,0.38,-0.69,9.34,0.03,-0.06,0.18
2666,1.80,-0.77,9.92,0.03,-0.06,0.18
2671,0.88,-0.42,9.73,0.03,-0.06,0.18
2676,0.80,-0.38,9.73,0.03,-0.06,0.18
2681,0.84,-0.54,9.61,0.03,-0.06,0.18
2686,1.30,-0.30,10.11,0.03,-0.06,0.18
2691,-1.04,0.30,8.96,0.03,-0.06,0.18
2696,1.72,-0.57,10.54,0.03,-0.06,0.18
2701,2.22,-0.65,9.73,0.03,-0.06,0.18
2706,2.38,-1.30,9.77,0.03,-0.06,0.18
2711,2.38,-1.30,9.77,-0.00,-0.09,0.11
2716,1.53,-0.08,8.70,-0.00,-0.09,0.11
2721,1.34,0.54,8.01,-0.00,-0.09,0.11
2726,1.00,-0.15,7.89,-0.00,-0.09,0.11
2732,1.80,0.30,9.46,-0.00,-0.09,0.11
2736,1.80,0.30,9.46,-0.05,-0.07,-0.01
2741,0.54,0.23,9.20,-0.05,-0.07,-0.01
2746,0.50,0.30,9.43,-0.05,-0.07,-0.01
2751,0.92,0.11,9.30,-0.05,-0.07,-0.01
2756,1.42,-0.15,9.20,-0.05,-0.07,-0.01
2761,1.34,-0.34,9.04,-0.05,-0.07,-0.01
2766,1.65,-0.27,8.66,-0.05,-0.07,-0.01
2771,1.65,-0.27,8.66,-0.12,-0.11,-0.19
2776,1.65,-0.27,8.66,-0.12,-0.12,-0.21
2781,-0.38,0.42,8.58,-0.12,-0.12,-0.21
2786,0.84,-0.54,11.68,-0.12,-0.12,-0.21
2791,1.34,-0.04,11.19,-0.12,-0.12,-0.21
2796,2.18,-0.15,11.22,-0.12,-0.12,-0.21
2801,2.11,0.00,10.88,-0.12,-0.12,-0.21
2806,2.45,0.15,10.23,-0.12,-0.12,-0.21
2811,2.72,0.19,10.39,-0.12,-0.12,-0.21
2816,2.41,0.04,9.43,-0.12,-0.12,-0.21
2821,2.30,-0.19,10.46,-0.12,-0.12,-0.21
2826,1.95,-0.15,10.15,-0.12,-0.12,-0.21
2832,1.95,-0.15,10.15,-0.10,0.02,-0.29
2836,-0.65,-0.04,9.54,-0.10,0.02,-0.29
2841,-1.15,0.50,9.65,-0.10,0.02,-0.29
2846,-0.69,0.00,9.38,-0.10,0.02,-0.29
2851,1.15,0.19,9.12,-0.10,0.02,-0.29
2856,1.15,0.19,9.12,-0.13,-0.07,-0.36
2861,2.95,-0.15,8.01,-0.13,-0.07,-0.36
2866,2.80,0.11,8.39,-0.13,-0.07,-0.36
2871,2.22,-0.23,8.73,-0.13,-0.07,-0.36
2876,1.27,-0.42,9.20,-0.13,-0.07,-0.36
2882,0.50,-0.61,11.57,-0.13,-0.07,-0.36
2886,-1.27,-0.19,12.06,-0.13,-0.07,-0.36
2891,-1.27,-0.19,12.06,-0.06,0.12,-0.36
2896,-1.27,-0.19,12.06,-0.06,0.15,-0.37
2901,-0.57,-0.88,10.00,-0.06,0.15,-0.37
2907,0.65,-1.34,8.89,-0.06,0.15,-0.37
2911,0.65,-1.34,8.89,-0.03,0.03,-0.35
2916,1.91,-2.38,9.89,-0.03,0.03,-0.35
2921,1.91,-2.38,9.89,-0.03,-0.04,-0.31
2926,0.77,-2.18,9.65,-0.03,-0.04,-0.31
2931,-1.00,-1.00,8.92,-0.03,-0.04,-0.31
2936,-1.68,0.04,8.43,-0.03,-0.04,-0.31
2941,-1.30,-0.61,8.82,-0.03,-0.04,-0.31
2946,-1.04,-0.80,9.04,-0.03,-0.04,-0.31
2951,0.15,-1.15,8.96,-0.03,-0.04,-0.31
2957,1.57,-1.57,9.04,-0.03,-0.04,-0.31
2961,1.57,-1.57,9.04,0.01,-0.11,-0.05
2966,1.91,-1.88,8.82,0.01,-0.11,-0.05
2971,1.76,-2.30,9.42,0.01,-0.11,-0.05
2976,0.92,-2.68,9.20,0.01,-0.11,-0.05
2981,-0.15,-2.95,10.07,0.01,-0.11,-0.05
2986,1.38,-3.03,12.52,0.01,-0.11,-0.05
2992,1.88,-2.22,10.69,0.01,-0.11,-0.05
2996,1.88,-2.22,10.69,0.14,0.01,0.19
3001,0.88,-1.30,8.96,0.14,0.01,0.19
3006,0.65,-0.80,8.54,0.14,0.01,0.19
3011,0.34,-1.19,9.20,0.14,0.01,0.19
3016,0.04,-1.27,8.88,0.14,0.01,0.19
3021,0.42,-1.23,10.38,0.14,0.01,0.19
3027,0.61,-0.80,10.88,0.14,0.01,0.19
3031,0.61,-0.80,10.88,0.12,-0.02,0.31
3036,0.61,-0.80,10.88,0.12,-0.03,0.31
3041,0.38,-0.96,8.46,0.12,-0.03,0.31
3046,1.19,-1.19,9.42,0.12,-0.03,0.31
3051,1.23,-1.11,8.70,0.12,-0.03,0.31
3056,2.53,-1.99,9.46,0.12,-0.03,0.31
3062,1.49,-1.11,8.92,0.12,-0.03,0.31
3066,1.49,-1.11,8.92,0.10,-0.07,0.28
3071,0.46,-0.54,9.92,0.10,-0.07,0.28
3076,0.23,-0.50,9.04,0.10,-0.07,0.28
3081,-1.07,0.23,8.46,0.10,-0.07,0.28
3086,-0.46,-0.61,10.65,0.10,-0.07,0.28
3091,1.46,-0.80,9.38,0.10,-0.07,0.28
3096,1.76,-1.00,9.00,0.10,-0.07,0.28
3102,2.34,-0.61,9.38,0.10,-0.07,0.28
3106,2.03,-0.46,9.08,0.10,-0.07,0.28
3111,1.99,-0.15,10.00,0.10,-0.07,0.28
3117,1.38,-0.96,9.77,0.10,-0.07,0.28
3121,1.07,-0.88,11.22,0.10,-0.07,0.28
3126,2.03,-0.92,12.45,0.10,-0.07,0.28
3132,1.34,-0.80,12.14,0.10,-0.07,0.28
3136,1.34,-0.80,12.14,0.03,0.11,-0.05
3141,0.65,-0.08,10.61,0.03,0.11,-0.05
3146,1.46,-0.27,9.77,0.03,0.11,-0.05
3151,0.30,-0.27,9.93,0.03,0.11,-0.05
3156,0.65,-0.34,9.69,0.03,0.11,-0.05
3162,1.07,-0.50,9.27,0.03,0.11,-0.05
3167,1.65,-0.23,9.23,0.03,0.11,-0.05
3171,1.65,-0.23,9.23,-0.04,0.01,-0.18
3176,1.65,-0.23,9.23,-0.05,-0.00,-0.20
3182,0.96,0.50,8.70,-0.05,-0.00,-0.20
3186,0.96,0.50,8.70,-0.06,0.04,-0.24
3191,0.54,-0.27,12.10,-0.06,0.04,-0.24
3196,0.00,0.34,10.19,-0.06,0.04,-0.24
3202,0.96,-0.34,10.27,-0.06,0.04,-0.24
3207,0.96,-0.34,10.27,-0.04,0.04,-0.24
3211,1.53,-0.50,8.84,-0.04,0.04,-0.24
3217,1.76,-0.08,8.85,-0.04,0.04,-0.24
3221,1.76,-0.08,8.85,-0.03,0.00,-0.26
3226,1.19,-0.50,9.39,-0.03,0.00,-0.26
3231,1.95,-0.54,11.00,-0.03,0.00,-0.26
3236,1.46,-1.19,11.26,-0.03,0.00,-0.26
3241,0.42,-0.11,10.23,-0.03,0.00,-0.26
3246,-0.84,0.84,9.58,-0.03,0.00,-0.26
3252,-0.92,0.08,9.23,-0.03,0.00,-0.26
3256,-0.92,0.08,9.23,0.05,0.19,-0.22
3261,0.38,-0.88,9.58,0.05,0.19,-0.22
3266,0.96,-0.69,9.43,0.05,0.19,-0.22
3271,1.42,-0.69,9.23,0.05,0.19,-0.22
3276,1.42,-0.69,9.23,0.02,-0.06,-0.16
3281,0.30,-0.61,9.08,0.02,-0.06,-0.16
3287,0.19,-0.69,8.92,0.02,-0.06,-0.16
3291,0.19,-0.69,8.92,0.01,-0.07,-0.17
3296,0.19,-0.69,8.92,-0.01,-0.05,-0.18
3302,2.34,-1.61,13.49,-0.01,-0.05,-0.18
3306,2.34,-1.61,13.49,0.01,0.01,-0.16
3311,3.18,-1.00,8.89,0.01,0.01,-0.16
3316,2.72,-0.65,8.04,0.01,0.01,-0.16
3322,2.61,-1.04,7.82,0.01,0.01,-0.16
3326,2.61,-1.04,7.82,0.03,0.10,-0.15
3331,1.00,-1.30,9.81,0.03,0.10,-0.15
3337,-0.11,-0.88,10.23,0.03,0.10,-0.15
3341,-0.11,-0.88,10.23,0.04,0.16,-0.14
3347,-1.04,0.00,10.65,0.04,0.16,-0.14
3351,-1.30,-0.08,8.96,0.04,0.16,-0.14
3356,-1.30,-0.08,8.96,0.06,0.16,-0.12
3361,-1.30,-0.08,8.96,0.04,0.13,-0.12
3366,0.46,-0.19,8.16,0.04,0.13,-0.12
3372,1.30,-0.77,8.66,0.04,0.13,-0.12
3376,1.30,-0.77,8.66,0.00,-0.12,-0.09
3382,1.57,-0.92,9.39,0.00,-0.12,-0.09
3387,1.72,-1.04,9.69,0.00,-0.12,-0.09
3391,1.72,-1.04,9.69,0.04,-0.09,-0.08
3396,1.72,-1.04,9.69,0.06,0.01,-0.09
3401,0.27,-0.46,10.45,0.06,0.01,-0.09
3407,0.27,-0.46,10.91,0.06,0.01,-0.09
3411,0.27,-0.46,10.91,0.08,0.17,-0.07
3416,0.27,-0.46,10.91,0.07,0.15,-0.08
3422,0.80,-0.57,10.35,0.07,0.15,-0.08
3426,0.80,-0.57,10.35,0.06,0.07,-0.10
3431,0.80,-0.57,10.35,0.04,-0.01,-0.09
3436,1.61,-1.04,9.31,0.04,-0.01,-0.09
3442,1.80,-1.57,9.00,0.04,-0.01,-0.09
3446,1.80,-1.57,9.00,0.05,-0.06,-0.10
3451,0.73,-0.61,9.85,0.05,-0.06,-0.10
3457,0.19,-0.19,9.69,0.05,-0.06,-0.10
3461,0.19,-0.19,9.69,0.07,0.10,-0.11
3467,-0.15,0.50,9.54,0.07,0.10,-0.11
3472,-0.04,-0.38,9.73,0.07,0.10,-0.11
3476,-0.04,-0.38,9.73,0.06,0.13,-0.12
3481,-0.04,-0.38,9.73,0.05,0.10,-0.13
3486,0.38,-0.96,9.42,0.05,0.10,-0.13
3491,0.46,-1.07,9.50,0.05,0.10,-0.13
3496,0.46,-1.07,9.50,0.04,-0.07,-0.13
3501,0.46,-1.07,9.50,0.06,-0.10,-0.12
3506,0.92,-1.53,9.46,0.06,-0.10,-0.12
3512,0.92,-1.53,9.46,0.05,-0.11,-0.13
3516,0.92,-1.53,9.46,0.07,-0.03,-0.14
3521,-0.61,-0.73,10.03,0.07,-0.03,-0.14
3527,-0.88,-0.69,9.84,0.07,-0.03,-0.14
3531,-0.88,-0.69,9.84,0.09,0.17,-0.16
3536,-0.88,-0.69,9.84,0.10,0.17,-0.15
3542,-2.26,-0.69,8.62,0.10,0.17,-0.15
3546,-2.26,-0.69,8.62,0.09,0.11,-0.13
3551,-2.26,-0.69,8.62,0.08,0.03,-0.12
3556,-2.26,-0.69,8.62,0.08,-0.09,-0.10
3562,5.32,-1.84,12.91,0.08,-0.09,-0.10
3566,5.32,-1.84,12.91,0.11,-0.19,-0.04
3571,-1.11,-0.80,6.09,0.11,-0.19,-0.04
3576,-3.56,-0.50,5.40,0.11,-0.19,-0.04
3582,-1.49,-1.07,8.74,0.11,-0.19,-0.04
3587,-1.49,-1.07,8.74,0.14,0.14,-0.01
3591,0.50,-1.68,12.64,0.14,0.14,-0.01
3596,0.92,-1.15,12.38,0.14,0.14,-0.01
3602,0.50,0.08,10.19,0.14,0.14,-0.01
3606,0.88,0.57,8.77,0.14,0.14,-0.01
3612,0.84,0.04,7.93,0.14,0.14,-0.01
3616,0.84,0.04,7.93,0.12,-0.02,0.13
3621,0.84,0.04,7.93,0.13,-0.08,0.20
3627,0.54,-2.49,10.19,0.13,-0.08,0.20
3632,-0.92,-1.15,7.93,0.13,-0.08,0.20
3637,-0.92,-1.15,7.93,0.19,0.03,0.37
3643,-0.92,-1.15,7.93,0.20,0.10,0.38
3646,-0.92,-1.15,7.93,0.21,0.12,0.41
3651,-0.92,-1.15,7.93,0.22,0.09,0.49
3657,-0.92,-1.15,7.93,0.21,0.04,0.56
3662,1.53,-0.38,8.43,0.21,0.04,0.56
3666,1.53,-0.38,8.43,0.22,-0.08,0.67
3671,1.53,-0.38,8.43,0.22,-0.12,0.70
3676,1.53,-0.38,8.43,0.23,-0.14,0.75
3682,2.22,-1.57,9.80,0.23,-0.14,0.75
3687,2.22,-1.57,9.80,0.23,-0.21,0.86
3691,2.22,-1.57,9.80,0.22,-0.21,0.88
3696,1.84,-0.57,9.08,0.22,-0.21,0.88
3702,1.27,-0.19,9.42,0.22,-0.21,0.88
3706,1.27,-0.19,9.42,0.23,-0.05,0.86
3712,-0.34,-1.19,10.07,0.23,-0.05,0.86
3717,-1.04,-1.19,9.89,0.23,-0.05,0.86
3721,-1.04,-1.19,9.89,0.22,0.10,0.94
3726,0.27,-1.27,9.27,0.22,0.10,0.94
3732,1.19,0.23,10.07,0.22,0.10,0.94
3736,1.19,0.23,10.07,0.17,-0.07,0.98
3741,1.19,0.23,10.07,0.14,-0.13,0.99
3746,0.96,-0.38,8.12,0.14,-0.13,0.99
3751,0.80,-0.84,9.08,0.14,-0.13,0.99
3756,0.80,-0.84,9.08,0.11,-0.14,0.95
3761,0.80,-0.84,9.08,0.12,-0.11,0.93
3767,0.27,-0.42,10.50,0.12,-0.11,0.93
3771,0.27,-0.42,10.50,0.11,-0.04,0.94
3776,0.27,-0.42,10.50,0.10,-0.00,0.92
3782,-0.69,-0.92,9.65,0.10,-0.00,0.92
3787,0.11,-0.80,9.50,0.10,-0.00,0.92
3791,0.11,-0.80,9.50,0.08,-0.05,0.79
3796,0.11,-0.80,9.50,0.07,-0.11,0.76
3802,0.84,-1.23,9.61,0.07,-0.11,0.76
3806,0.84,-1.23,9.61,0.02,-0.14,0.71
3811,0.84,-1.23,9.61,0.03,-0.13,0.66
3816,0.84,-1.23,9.61,0.01,-0.10,0.62
3822,1.99,-0.50,9.08,0.01,-0.10,0.62
3827,1.99,-0.50,9.08,0.01,-0.05,0.55
3832,1.99,-0.50,9.08,0.00,-0.02,0.53
3837,0.69,0.30,8.66,0.00,-0.02,0.53
3842,0.69,0.30,8.66,-0.02,0.09,0.47
3847,0.69,0.30,8.66,-0.03,0.13,0.42
3852,-1.42,0.34,9.65,-0.03,0.13,0.42
3857,-1.42,0.34,9.65,-0.05,0.13,0.37
3861,-1.42,0.34,9.65,-0.06,0.10,0.37
3866,0.69,-0.42,9.80,-0.06,0.10,0.37
3872,0.46,0.27,9.30,-0.06,0.10,0.37
3877,0.46,0.27,9.30,-0.08,-0.07,0.35
3881,0.46,0.27,9.30,-0.11,-0.08,0.34
3886,-0.46,0.15,8.46,-0.11,-0.08,0.34
3892,-0.11,0.65,9.12,-0.11,-0.08,0.34
3896,-0.11,0.65,9.12,-0.10,-0.02,0.29
3902,-0.11,0.65,9.12,-0.10,0.01,0.31
3907,0.19,0.23,9.89,-0.10,0.01,0.31
3911,0.19,0.23,9.89,-0.10,0.04,0.35
3916,0.19,0.23,9.89,-0.10,0.04,0.35
3921,1.68,0.69,9.30,-0.10,0.04,0.35
3926,1.68,0.69,9.30,-0.11,0.02,0.35
3933,1.68,0.69,9.30,-0.11,0.03,0.37
3938,1.68,0.69,9.30,-0.12,0.07,0.40
3941,1.68,0.69,9.30,-0.12,0.09,0.41
3946,1.68,0.69,9.30,-0.12,0.09,0.43
3951,1.68,0.69,9.30,-0.13,0.09,0.44
3956,-2.22,1.57,7.70,-0.13,0.09,0.44
3962,-0.92,0.42,8.66,-0.13,0.09,0.44
3966,-0.92,0.42,8.66,-0.15,0.03,0.45
3971,0.84,-0.23,8.82,-0.15,0.03,0.45
3977,0.50,0.73,9.08,-0.15,0.03,0.45
3982,0.50,0.73,9.08,-0.17,-0.09,0.44
3986,0.50,0.73,9.08,-0.18,-0.08,0.42
3992,-0.04,0.19,9.38,-0.18,-0.08,0.42
3997,-0.04,0.19,9.38,-0.20,-0.03,0.35
4002,-0.04,0.19,9.38,-0.21,0.00,0.31
4008,-0.80,0.23,9.20,-0.21,0.00,0.31
4011,-0.80,0.23,9.20,-0.22,0.05,0.22
4016,-0.80,0.23,9.20,-0.24,0.05,0.16
4021,-0.80,0.23,9.20,-0.27,0.02,0.11
4027,0.57,0.23,9.96,-0.27,0.02,0.11
4031,0.57,0.23,9.96,-0.31,-0.00,-0.01
4036,0.57,0.23,9.96,-0.32,0.03,-0.06
4042,0.19,0.54,10.54,-0.32,0.03,-0.06
4047,0.19,0.54,10.54,-0.34,0.08,-0.16
4052,0.19,0.54,10.54,-0.35,0.09,-0.21
4056,0.19,0.54,10.54,-0.35,0.10,-0.25
4062,0.27,0.08,9.77,-0.35,0.10,-0.25
4066,0.27,0.08,9.77,-0.35,0.08,-0.33
4071,0.27,0.08,9.77,-0.34,0.06,-0.37
4076,0.27,0.08,9.77,-0.34,0.08,-0.40
4082,-1.49,-0.19,9.42,-0.34,0.08,-0.40
4086,-1.49,-0.19,9.42,-0.34,0.08,-0.48
4091,-1.49,-0.19,9.42,-0.34,0.05,-0.52
4098,0.15,-1.57,9.50,-0.34,0.05,-0.52
4101,0.15,-1.57,9.50,-0.36,-0.04,-0.58
4106,0.15,-1.57,9.50,-0.36,-0.05,-0.61
4112,1.91,-1.34,11.61,-0.36,-0.05,-0.61
4116,1.91,-1.34,11.61,-0.36,-0.02,-0.67
4122,1.91,-1.34,11.61,-0.35,-0.00,-0.69
4126,0.15,-0.96,8.74,-0.35,-0.00,-0.69
4132,0.15,-1.30,9.34,-0.35,-0.00,-0.69
4136,0.15,-1.30,9.34,-0.30,0.15,-0.75
4141,0.15,-1.30,9.34,-0.29,0.18,-0.76
4147,-0.27,-1.23,9.54,-0.29,0.18,-0.76
4151,-0.27,-1.23,9.54,-0.28,0.17,-0.74
4157,-0.27,-1.23,9.54,-0.25,0.14,-0.73
4163,0.27,-0.69,9.43,-0.25,0.14,-0.73
4166,0.27,-0.69,9.43,-0.28,0.04,-0.75
4171,0.27,-0.69,9.43,-0.27,-0.03,-0.75
4176,0.27,-0.69,9.43,-0.25,-0.04,-0.73
4182,-0.11,-0.57,9.58,-0.25,-0.04,-0.73
4186,-0.11,-0.57,9.58,-0.20,0.02,-0.65
4192,-0.11,-0.57,9.58,-0.18,0.06,-0.61
4198,-0.11,-0.57,9.58,-0.17,0.08,-0.60
4201,-0.11,-0.57,9.58,-0.17,0.08,-0.59
4207,-0.11,-0.57,9.58,-0.16,0.07,-0.60
4211,-0.11,-0.57,9.58,-0.15,0.02,-0.58
4217,1.30,-1.27,8.78,-0.15,0.02,-0.58
4221,1.30,-1.27,8.78,-0.13,-0.05,-0.51
4226,1.30,-1.27,8.78,-0.13,-0.05,-0.50
4231,-0.04,-1.53,10.61,-0.13,-0.05,-0.50
4238,-0.61,-1.27,10.27,-0.13,-0.05,-0.50
4241,-0.61,-1.27,10.27,-0.11,0.06,-0.48
4246,-0.54,-0.65,9.30,-0.11,0.06,-0.48
4252,-0.15,-0.88,8.70,-0.11,0.06,-0.48
4257,-0.15,-0.88,8.70,-0.08,0.08,-0.39
4262,-0.15,-0.88,8.70,-0.08,0.07,-0.38
4267,-1.11,-0.88,9.31,-0.08,0.07,-0.38
4271,-1.11,-0.88,9.31,-0.07,0.05,-0.35
4276,-1.11,-0.88,9.31,-0.07,0.01,-0.34
4281,-1.11,-0.88,9.31,-0.07,-0.02,-0.29
4287,0.15,-0.46,9.65,-0.07,-0.02,-0.29
4291,0.15,-0.46,9.65,-0.05,-0.01,-0.22
4296,0.15,-0.46,9.65,-0.04,0.00,-0.23
4302,-0.77,-0.88,8.50,-0.04,0.00,-0.23
4307,-0.77,-0.88,8.50,-0.03,0.02,-0.22
4312,-0.77,-0.88,8.50,-0.03,0.02,-0.21
4316,-0.77,-0.88,8.50,-0.04,-0.01,-0.19
4323,0.23,-0.80,9.69,-0.04,-0.01,-0.19
4326,0.23,-0.80,9.69,-0.06,-0.04,-0.22
4332,0.23,-0.80,9.69,-0.06,-0.04,-0.24
4337,0.23,-0.80,9.69,-0.07,-0.01,-0.25
4341,0.23,-0.80,9.69,-0.06,0.02,-0.26
4346,0.23,-0.80,9.69,-0.05,0.04,-0.27
4351,-0.46,-1.07,8.82,-0.05,0.04,-0.27
4357,-0.23,-0.80,9.46,-0.05,0.04,-0.27
4361,-0.23,-0.80,9.46,-0.04,-0.01,-0.31
4366,-0.23,-0.80,9.46,-0.07,-0.03,-0.33
4372,0.34,0.15,9.65,-0.07,-0.03,-0.33
4376,0.34,0.15,9.65,-0.08,-0.01,-0.39
4382,0.34,0.15,9.65,-0.09,0.03,-0.42
4387,-0.84,-0.15,10.15,-0.09,0.03,-0.42
4391,-0.84,-0.15,10.15,-0.08,0.05,-0.47
4396,-0.84,-0.15,10.15,-0.11,0.02,-0.50
4401,-0.84,-0.15,10.15,-0.10,-0.03,-0.53
4407,1.42,-0.30,10.04,-0.10,-0.03,-0.53
4411,1.42,-0.30,10.04,-0.12,-0.06,-0.60
4416,1.42,-0.30,10.04,-0.13,-0.05,-0.63
4422,-1.46,-0.11,8.78,-0.13,-0.05,-0.63
4427,-1.46,-0.11,8.78,-0.12,0.04,-0.73
4431,-1.46,-0.11,8.78,-0.11,0.05,-0.77
4436,-1.46,-0.11,8.78,-0.11,0.04,-0.78
4441,1.61,-0.27,10.23,-0.11,0.04,-0.78
4447,1.61,-0.27,10.23,-0.11,0.03,-0.79
4453,0.96,-0.11,9.54,-0.11,0.03,-0.79
4457,0.96,-0.11,9.54,-0.14,0.15,-0.95
4462,0.96,-0.11,9.54,-0.12,0.18,-0.98
4466,0.96,-0.11,9.54,-0.12,0.19,-0.99
4471,0.96,-0.11,9.54,-0.11,0.18,-0.98
4477,-1.46,0.00,9.27,-0.11,0.18,-0.98
4481,-1.46,0.00,9.27,-0.10,0.13,-0.98
4486,-1.46,0.00,9.27,-0.13,0.10,-0.98
4492,1.04,0.69,9.69,-0.13,0.10,-0.98
4496,1.04,0.69,9.69,-0.12,0.02,-1.00
4501,1.04,0.69,9.69,-0.10,0.03,-0.98
4506,-0.38,-1.23,9.50,-0.10,0.03,-0.98
4512,-0.08,-1.19,9.30,-0.10,0.03,-0.98
4516,-0.08,-1.19,9.30,-0.07,0.08,-0.92
4521,-0.08,-1.19,9.30,-0.05,0.09,-0.91
4527,-0.34,-0.54,10.15,-0.05,0.09,-0.91
4531,-0.34,-0.54,10.15,-0.04,0.12,-0.88
4536,-0.34,-0.54,10.15,-0.05,0.12,-0.85
4541,-0.34,-0.54,10.15,-0.05,0.11,-0.82
4547,0.96,-1.07,9.50,-0.05,0.11,-0.82
4551,0.96,-1.07,9.50,-0.03,0.07,-0.72
4556,0.96,-1.07,9.50,-0.01,0.08,-0.66
4562,-0.80,-1.00,9.58,-0.01,0.08,-0.66
4566,-0.80,-1.00,9.58,0.03,0.12,-0.56
4571,-0.80,-1.00,9.58,0.05,0.13,-0.49
4577,-0.80,-1.00,9.58,0.07,0.12,-0.43
4582,-0.80,-1.00,9.58,0.08,0.09,-0.35
4586,-0.80,-1.00,9.58,0.09,0.05,-0.29
4591,-0.80,-1.00,9.58,0.11,0.04,-0.22
4597,0.30,-1.15,9.54,0.11,0.04,-0.22
4601,0.30,-1.15,9.54,0.11,-0.04,-0.09
4606,0.30,-1.15,9.54,0.13,-0.06,-0.01
4612,0.30,-1.15,9.54,0.14,-0.05,0.06
4616,0.30,-1.15,9.54,0.17,-0.02,0.11
4621,0.30,-1.15,9.54,0.17,0.02,0.15
4626,0.30,-1.15,9.54,0.20,0.05,0.18
4632,-0.38,-1.68,9.23,0.20,0.05,0.18
4636,-0.38,-1.68,9.23,0.20,0.06,0.25
4641,-0.38,-1.68,9.23,0.21,0.05,0.29
4646,-0.38,-1.68,9.23,0.21,0.03,0.33
4651,-0.38,-1.68,9.23,0.22,0.01,0.37
4656,-0.38,-1.68,9.23,0.22,0.00,0.43
4661,-0.38,-1.68,9.23,0.23,-0.00,0.48
4666,-0.57,-1.91,9.42,0.23,-0.00,0.48
4671,-0.57,-1.91,9.42,0.25,-0.01,0.53
4676,-0.57,-1.91,9.42,0.25,-0.04,0.55
4682,-0.57,-1.91,9.42,0.27,-0.06,0.58
4686,-0.57,-1.91,9.42,0.27,-0.09,0.62
4691,-0.57,-1.91,9.42,0.26,-0.12,0.65
4696,-0.57,-1.91,9.42,0.26,-0.13,0.66
4702,1.23,-1.88,9.73,0.26,-0.13,0.66
4706,1.23,-1.88,9.73,0.24,-0.11,0.65
4711,1.23,-1.88,9.73,0.23,-0.07,0.64
4717,1.23,-1.88,9.73,0.24,-0.04,0.62
4721,1.23,-1.88,9.73,0.25,-0.00,0.62
4726,1.23,-1.88,9.73,0.25,0.02,0.62
4731,1.23,-1.88,9.73,0.23,0.01,0.61
4737,1.27,-1.68,8.74,0.23,0.01,0.61
4741,1.27,-1.68,8.74,0.21,-0.08,0.61
4746,1.27,-1.68,8.74,0.22,-0.12,0.59
4752,1.27,-1.68,8.74,0.21,-0.14,0.57
4756,1.27,-1.68,8.74,0.21,-0.11,0.55
4761,1.27,-1.68,8.74,0.21,-0.10,0.53
4766,1.27,-1.68,8.74,0.19,-0.08,0.51
4772,1.88,-1.80,9.96,0.19,-0.08,0.51
4776,1.88,-1.80,9.96,0.19,-0.06,0.51
4781,1.88,-1.80,9.96,0.19,-0.03,0.48
4787,0.15,-1.34,9.61,0.19,-0.03,0.48
4791,0.15,-1.34,9.61,0.20,0.05,0.39
4796,0.15,-1.34,9.61,0.18,0.07,0.38
4802,0.15,-1.34,9.61,0.19,0.07,0.37
4807,0.15,-1.34,9.61,0.18,0.04,0.36
4811,0.15,-1.34,9.61,0.16,0.00,0.34
4816,0.15,-1.34,9.61,0.16,-0.04,0.32
4822,1.27,-0.84,10.73,0.16,-0.04,0.32
4826,1.27,-0.84,10.73,0.14,-0.08,0.32
4831,1.27,-0.84,10.73,0.13,-0.07,0.31
4837,1.27,-0.84,10.73,0.12,-0.04,0.29
4841,1.27,-0.84,10.73,0.11,-0.01,0.25
4846,1.27,-0.84,10.73,0.12,0.02,0.21
4851,1.27,-0.84,10.73,0.13,0.03,0.21
4856,-1.15,-0.46,9.16,0.13,0.03,0.21
4861,-1.15,-0.46,9.16,0.13,0.04,0.21
4867,-1.15,-0.46,9.16,0.12,0.01,0.21
4872,-0.27,-0.08,9.08,0.12,0.01,0.21
4876,-0.27,-0.08,9.08,0.10,-0.04,0.17
4881,-0.27,-0.08,9.08,0.11,-0.05,0.16
4886,-0.27,-0.08,9.08,0.12,-0.06,0.18
4892,-0.46,-0.38,10.07,0.12,-0.06,0.18
4896,-0.46,-0.38,10.07,0.12,-0.01,0.19
4901,-0.46,-0.38,10.07,0.11,0.02,0.19
4907,-0.46,-0.38,10.07,0.12,0.04,0.17
4911,-0.46,-0.38,10.07,0.11,0.04,0.17
4916,-0.46,-0.38,10.07,0.11,0.01,0.17
4921,-0.46,-0.38,10.07,0.11,-0.01,0.18
4826,1.27,-0.84,10.73,0.14,-0.08,0.32
4831,1.27,-0.84,10.73,0.13,-0.07,0.31
4837,1.27,-0.84,10.73,0.12,-0.04,0.29
4841,1.27,-0.84,10.73,0.11,-0.01,0.25
4846,1.27,-0.84,10.73,0.12,0.02,0.21
4851,1.27,-0.84,10.73,0.13,0.03,0.21
4856,-1.15,-0.46,9.16,0.13,0.03,0.21
4861,-1.15,-0.46,9.16,0.13,0.04,0.21
4867,-1.15,-0.46,9.16,0.12,0.01,0.21
4872,-0.27,-0.08,9.08,0.12,0.01,0.21
4876,-0.27,-0.08,9.08,0.10,-0.04,0.17
4881,-0.27,-0.08,9.08,0.11,-0.05,0.16
4886,-0.27,-0.08,9.08,0.12,-0.06,0.18
4892,-0.46,-0.38,10.07,0.12,-0.06,0.18
4896,-0.46,-0.38,10.07,0.12,-0.01,0.19
4901,-0.46,-0.38,10.07,0.11,0.02,0.19
