timestamp,accX,accY,accZ,gyroX,gyroY,gyroZ
Right
6,-1.00,-0.54,9.20,0.12,-0.05,0.47
18,-1.00,-0.54,9.20,0.12,-0.06,0.46
20,-1.00,-0.54,9.20,-0.09,0.04,0.10
22,-1.00,-0.54,9.20,-0.12,0.04,0.03
25,-1.38,-0.80,9.61,-0.12,0.04,0.03
30,-1.38,-0.80,9.61,-0.11,0.04,0.02
35,-2.11,0.11,9.16,-0.11,0.04,0.02
40,-2.11,0.11,9.16,-0.11,0.04,0.02
45,-2.11,0.11,9.16,-0.12,0.04,0.02
50,-2.11,0.11,9.16,-0.13,0.03,0.00
56,-2.11,0.11,9.16,-0.16,0.02,-0.03
60,-2.11,0.11,9.16,-0.16,0.01,-0.05
66,-2.11,0.11,9.16,-0.17,-0.02,-0.05
70,-2.11,0.11,9.16,-0.16,-0.04,-0.04
76,-0.84,0.11,9.80,-0.16,-0.04,-0.04
80,-0.84,0.11,9.80,-0.14,-0.02,-0.04
85,-0.84,0.11,9.80,-0.14,-0.01,-0.04
91,-2.26,-0.15,9.42,-0.14,-0.01,-0.04
95,-2.26,-0.15,9.42,-0.15,0.03,-0.05
100,-2.26,-0.15,9.42,-0.13,0.04,-0.04
106,-2.26,-0.15,9.42,-0.15,0.03,-0.04
110,-2.26,-0.15,9.42,-0.14,0.02,-0.04
115,-2.26,-0.15,9.42,-0.16,-0.01,-0.04
120,-2.26,-0.15,9.42,-0.16,-0.02,-0.02
126,0.77,-0.11,10.57,-0.16,-0.02,-0.02
130,0.77,-0.11,10.57,-0.15,-0.02,-0.03
135,0.77,-0.11,10.57,-0.14,-0.00,-0.04
141,0.77,-0.11,10.57,-0.13,0.02,-0.03
145,0.77,-0.11,10.57,-0.13,0.02,-0.01
150,0.77,-0.11,10.57,-0.14,0.02,-0.00
156,0.77,-0.11,10.57,-0.15,0.01,-0.01
160,0.77,-0.11,10.57,-0.17,-0.01,-0.03
165,0.77,-0.11,10.57,-0.16,-0.05,-0.03
170,0.77,-0.11,10.57,-0.15,-0.07,-0.02
176,0.77,-0.11,10.57,-0.15,-0.07,-0.02
180,0.77,-0.11,10.57,-0.16,-0.05,-0.04
186,0.77,-0.11,10.57,-0.15,-0.03,-0.04
190,0.77,-0.11,10.57,-0.15,-0.01,-0.06
196,0.77,-0.11,10.57,-0.15,-0.01,-0.07
200,0.77,-0.11,10.57,-0.14,-0.00,-0.07
206,0.77,-0.11,10.57,-0.14,0.00,-0.09
210,0.77,-0.11,10.57,-0.13,0.00,-0.08
215,0.77,-0.11,10.57,-0.12,0.02,-0.07
221,0.77,-0.11,10.57,-0.11,0.02,-0.08
226,0.77,-0.11,10.57,-0.11,0.04,-0.09
231,0.77,-0.11,10.57,-0.11,0.04,-0.10
235,-0.30,-0.88,9.31,-0.11,0.04,-0.10
240,-0.30,-0.88,9.31,-0.10,0.02,-0.10
246,0.34,-0.23,10.00,-0.10,0.02,-0.10
251,0.34,-0.23,10.00,-0.10,-0.01,-0.07
256,0.11,0.23,10.04,-0.10,-0.01,-0.07
261,-1.07,-0.04,10.04,-0.10,-0.01,-0.07
265,-1.07,-0.04,10.04,-0.10,0.03,-0.14
270,-1.07,-0.04,10.04,-0.10,0.07,-0.14
276,-1.07,-0.04,10.04,-0.10,0.08,-0.12
281,-1.07,-0.04,10.04,-0.11,0.07,-0.13
285,-1.34,1.84,9.61,-0.11,0.07,-0.13
290,-0.61,1.15,9.65,-0.11,0.07,-0.13
296,-0.61,1.15,9.65,-0.18,0.03,-0.18
301,-0.61,1.15,9.65,-0.20,0.01,-0.21
306,0.61,1.84,9.20,-0.20,0.01,-0.21
310,0.19,1.65,9.77,-0.20,0.01,-0.21
316,0.19,1.65,9.77,-0.25,-0.01,-0.25
321,0.19,1.65,9.77,-0.26,0.03,-0.26
325,-0.77,0.77,9.61,-0.26,0.03,-0.26
330,-1.11,0.57,9.58,-0.26,0.03,-0.26
336,-1.19,0.11,9.08,-0.26,0.03,-0.26
341,-1.19,0.11,9.08,-0.26,0.12,-0.33
346,-0.19,0.73,9.43,-0.26,0.12,-0.33
351,-1.27,1.00,8.46,-0.26,0.12,-0.33
355,-2.14,0.19,7.86,-0.26,0.12,-0.33
360,-2.14,0.19,7.86,-0.30,0.09,-0.38
366,-2.14,0.19,7.86,-0.27,0.09,-0.33
371,-2.14,0.19,7.86,-0.23,0.02,-0.22
376,0.30,-0.19,8.89,-0.23,0.02,-0.22
380,3.14,0.15,10.00,-0.23,0.02,-0.22
385,3.14,0.15,10.00,-0.22,-0.15,-0.21
391,3.14,0.15,10.00,-0.18,-0.16,-0.21
395,3.14,0.15,10.00,-0.18,-0.10,-0.20
401,3.14,0.15,10.00,-0.16,-0.03,-0.19
406,3.14,0.15,10.00,-0.14,0.08,-0.21
411,0.04,-0.54,9.58,-0.14,0.08,-0.21
416,-0.92,0.19,8.84,-0.14,0.08,-0.21
421,-0.92,0.19,8.84,-0.17,0.22,-0.21
426,-0.92,0.19,8.84,-0.22,0.20,-0.24
430,-0.92,0.19,8.84,-0.27,0.14,-0.30
435,-0.92,0.19,8.84,-0.28,0.09,-0.36
440,-1.07,0.19,8.20,-0.28,0.09,-0.36
446,-1.07,0.19,8.20,-0.28,0.04,-0.34
451,-1.07,0.19,8.20,-0.25,0.03,-0.29
456,-1.07,0.19,8.20,-0.22,0.03,-0.26
461,-1.30,-1.38,8.84,-0.22,0.03,-0.26
465,-1.11,-1.53,8.74,-0.22,0.03,-0.26
471,-1.11,-1.53,8.74,-0.17,-0.01,-0.23
476,-1.11,-1.53,8.74,-0.15,-0.03,-0.21
480,-1.11,-1.53,8.74,-0.13,-0.04,-0.20
486,-1.11,-1.53,8.74,-0.12,-0.04,-0.17
491,-1.11,-1.53,8.74,-0.12,-0.03,-0.16
496,-0.65,-0.73,10.65,-0.12,-0.03,-0.16
500,-0.69,-0.57,10.57,-0.12,-0.03,-0.16
506,-0.69,-0.57,10.57,-0.12,0.08,-0.22
511,-1.38,-1.00,9.50,-0.12,0.08,-0.22
515,-1.42,-1.27,9.04,-0.12,0.08,-0.22
521,-1.42,-1.27,9.04,-0.15,0.11,-0.20
526,-1.42,-1.27,9.04,-0.14,0.08,-0.18
531,-0.08,-0.50,9.08,-0.14,0.08,-0.18
535,0.46,-0.96,9.73,-0.14,0.08,-0.18
541,0.46,-0.96,9.73,-0.16,-0.02,-0.15
545,-1.38,-1.68,10.73,-0.16,-0.02,-0.15
550,-0.84,-1.91,10.46,-0.16,-0.02,-0.15
555,-0.88,-1.53,9.46,-0.16,-0.02,-0.15
561,-0.88,-1.53,9.46,-0.09,0.01,-0.04
565,-0.77,-1.57,9.46,-0.09,0.01,-0.04
570,-1.04,-2.22,10.00,-0.09,0.01,-0.04
576,-1.04,-2.22,10.00,-0.08,-0.01,-0.06
581,-0.08,-1.91,9.31,-0.08,-0.01,-0.06
585,-0.54,-2.11,9.61,-0.08,-0.01,-0.06
590,-0.54,-2.11,9.61,-0.06,-0.01,0.05
596,-0.69,-2.07,10.04,-0.06,-0.01,0.05
601,-0.69,-2.07,10.04,-0.05,0.02,0.03
606,-0.84,-2.03,9.81,-0.05,0.02,0.03
610,-1.34,-1.34,9.16,-0.05,0.02,0.03
615,-2.30,-1.46,8.66,-0.05,0.02,0.03
620,-2.30,-1.46,8.66,-0.01,0.06,0.13
626,-2.30,-1.46,8.66,-0.02,0.07,0.15
630,-1.23,-0.23,8.82,-0.02,0.07,0.15
635,-0.84,-0.23,8.46,-0.02,0.07,0.15
641,-0.84,-0.23,8.46,-0.06,-0.01,0.25
646,-0.84,-0.23,8.46,-0.07,-0.06,0.19
650,-0.34,-1.99,9.54,-0.07,-0.06,0.19
655,0.23,-2.64,9.20,-0.07,-0.06,0.19
661,0.23,-2.64,9.20,-0.02,-0.09,0.21
666,0.23,-2.64,9.20,-0.04,-0.07,0.23
671,-2.57,-1.15,8.46,-0.04,-0.07,0.23
676,-0.50,-0.15,9.23,-0.04,-0.07,0.23
680,-0.84,-0.80,9.50,-0.04,-0.07,0.23
685,0.34,-0.73,9.27,-0.04,-0.07,0.23
690,0.34,-0.73,9.27,-0.13,-0.01,0.06
696,0.34,-0.73,9.27,-0.14,-0.05,-0.00
700,0.65,-0.80,11.96,-0.14,-0.05,-0.00
705,0.46,-0.34,11.53,-0.14,-0.05,-0.00
710,0.46,-0.34,11.53,-0.09,0.04,-0.12
716,0.46,-0.34,11.53,-0.10,0.10,-0.09
721,0.46,-0.34,11.53,-0.11,0.16,-0.11
726,-0.46,2.45,8.08,-0.11,0.16,-0.11
730,0.15,2.80,8.46,-0.11,0.16,-0.11
735,0.50,1.95,8.77,-0.11,0.16,-0.11
740,0.50,1.95,8.77,-0.27,0.05,-0.33
746,0.50,1.95,8.77,-0.28,0.02,-0.36
751,0.50,1.95,8.77,-0.28,0.00,-0.37
755,0.00,2.14,10.54,-0.28,0.00,-0.37
760,0.19,2.07,10.96,-0.28,0.00,-0.37
766,0.19,2.07,10.96,-0.29,0.05,-0.48
770,0.69,2.11,9.96,-0.29,0.05,-0.48
775,0.23,1.76,9.65,-0.29,0.05,-0.48
781,0.23,1.76,9.65,-0.32,0.04,-0.61
786,0.23,1.76,9.65,-0.34,0.06,-0.64
790,-0.38,1.15,9.34,-0.34,0.06,-0.64
795,-0.08,2.03,8.77,-0.34,0.06,-0.64
801,-0.08,2.03,8.77,-0.37,0.11,-0.73
805,1.23,1.57,10.15,-0.37,0.11,-0.73
810,1.49,1.15,9.77,-0.37,0.11,-0.73
816,1.38,1.07,9.88,-0.37,0.11,-0.73
820,-0.34,0.54,9.23,-0.37,0.11,-0.73
825,-1.07,0.42,9.65,-0.37,0.11,-0.73
830,-1.19,-0.04,9.46,-0.37,0.11,-0.73
836,-1.38,-0.34,9.23,-0.37,0.11,-0.73
840,-0.77,1.15,9.77,-0.37,0.11,-0.73
845,-0.54,1.00,9.39,-0.37,0.11,-0.73
850,0.27,1.76,9.96,-0.37,0.11,-0.73
856,0.27,1.76,9.96,-0.37,0.09,-0.88
860,1.34,-0.08,10.15,-0.37,0.09,-0.88
865,0.65,-0.04,10.15,-0.37,0.09,-0.88
871,0.65,-0.04,10.15,-0.33,0.08,-0.92
875,0.34,-0.04,9.96,-0.33,0.08,-0.92
880,0.00,-0.80,9.93,-0.33,0.08,-0.92
886,-0.61,0.34,9.04,-0.33,0.08,-0.92
890,-0.88,0.23,10.00,-0.33,0.08,-0.92
895,-1.07,0.65,9.73,-0.33,0.08,-0.92
900,-1.30,0.50,9.31,-0.33,0.08,-0.92
906,-1.30,0.50,9.31,-0.27,0.20,-0.85
910,-1.49,0.61,8.16,-0.27,0.20,-0.85
915,-2.99,0.92,7.85,-0.27,0.20,-0.85
921,-3.37,0.15,7.55,-0.27,0.20,-0.85
925,-1.61,-1.00,8.12,-0.27,0.20,-0.85
930,-0.46,-0.50,8.16,-0.27,0.20,-0.85
935,-0.46,-0.50,8.16,-0.21,-0.08,-0.56
940,1.34,-0.84,11.19,-0.21,-0.08,-0.56
945,1.34,-0.84,11.19,-0.17,-0.12,-0.54
952,1.34,-0.84,11.19,-0.15,-0.11,-0.53
956,0.69,-2.03,11.99,-0.15,-0.11,-0.53
960,-1.61,-2.34,11.30,-0.15,-0.11,-0.53
965,-2.72,-2.30,10.23,-0.15,-0.11,-0.53
971,-1.91,-2.11,9.08,-0.15,-0.11,-0.53
975,-1.95,-1.95,7.66,-0.15,-0.11,-0.53
980,-2.57,-0.27,8.85,-0.15,-0.11,-0.53
985,-1.88,-1.68,9.00,-0.15,-0.11,-0.53
990,-1.88,-1.68,9.00,-0.12,0.24,-0.40
996,-1.88,-1.68,9.00,-0.11,0.17,-0.39
1001,-1.65,-3.95,10.15,-0.11,0.17,-0.39
1005,-2.07,-4.48,9.65,-0.11,0.17,-0.39
1010,-1.80,-4.64,8.92,-0.11,0.17,-0.39
1015,-1.34,-4.37,9.39,-0.11,0.17,-0.39
1020,-1.61,-4.29,8.88,-0.11,0.17,-0.39
1026,-1.61,-4.29,8.88,0.09,-0.01,-0.05
1030,-1.30,-3.45,8.96,0.09,-0.01,-0.05
1035,0.34,-3.68,8.89,0.09,-0.01,-0.05
1041,0.15,-3.07,9.96,0.09,-0.01,-0.05
1045,-1.11,-3.71,10.35,0.09,-0.01,-0.05
1050,-1.49,-3.41,9.80,0.09,-0.01,-0.05
1057,-1.38,-3.45,8.66,0.09,-0.01,-0.05
1060,-1.23,-3.10,9.27,0.09,-0.01,-0.05
1065,-1.61,-2.91,9.04,0.09,-0.01,-0.05
1070,-1.30,-2.87,9.20,0.09,-0.01,-0.05
1076,-0.65,-3.14,9.08,0.09,-0.01,-0.05
1081,-0.08,-2.80,9.12,0.09,-0.01,-0.05
1085,-0.08,-2.80,9.12,0.16,-0.02,0.30
1090,-0.88,-2.95,9.65,0.16,-0.02,0.30
1096,-0.61,-3.48,9.65,0.16,-0.02,0.30
1101,-0.73,-2.22,9.27,0.16,-0.02,0.30
1105,-0.73,-2.22,9.27,0.15,0.04,0.36
1110,-0.73,-2.22,9.27,0.15,0.03,0.35
1115,-0.19,-1.61,9.23,0.15,0.03,0.35
1120,0.00,-1.68,9.08,0.15,0.03,0.35
1126,-0.23,-0.73,9.50,0.15,0.03,0.35
1130,-0.46,-1.27,9.12,0.15,0.03,0.35
1135,-0.04,-1.53,10.15,0.15,0.03,0.35
1140,-0.42,-1.57,9.23,0.15,0.03,0.35
1146,-0.77,-0.88,9.43,0.15,0.03,0.35
1151,-0.80,-0.50,9.16,0.15,0.03,0.35
1155,-0.80,-0.50,9.16,0.06,0.03,0.28
1160,-1.04,0.69,7.89,0.06,0.03,0.28
1165,-1.15,0.88,8.50,0.06,0.03,0.28
1170,0.00,0.88,9.16,0.06,0.03,0.28
1175,0.27,0.57,8.96,0.06,0.03,0.28
1181,0.50,0.80,9.20,0.06,0.03,0.28
1187,0.50,0.27,9.04,0.06,0.03,0.28
1190,0.50,0.27,9.04,-0.13,-0.06,0.02
1195,-0.34,-0.15,8.78,-0.13,-0.06,0.02
1200,-1.34,0.50,8.70,-0.13,-0.06,0.02
1205,-1.11,-0.08,8.62,-0.13,-0.06,0.02
1210,-1.61,0.19,8.46,-0.13,-0.06,0.02
1216,-0.42,1.23,9.16,-0.13,-0.06,0.02
1221,1.49,1.99,10.19,-0.13,-0.06,0.02
1225,1.49,1.99,10.19,-0.23,0.02,-0.23
1230,1.49,1.99,10.19,-0.23,0.01,-0.28
1235,1.57,0.88,11.88,-0.23,0.01,-0.28
1240,0.65,1.15,11.42,-0.23,0.01,-0.28
1245,-0.57,1.65,10.27,-0.23,0.01,-0.28
1251,-0.11,1.80,9.50,-0.23,0.01,-0.28
1256,-0.84,1.38,8.46,-0.23,0.01,-0.28
1260,-0.84,1.38,8.46,-0.33,0.15,-0.36
1265,0.34,2.18,8.93,-0.33,0.15,-0.36
1270,0.19,1.53,9.04,-0.33,0.15,-0.36
1275,0.15,1.57,9.46,-0.33,0.15,-0.36
1282,0.23,0.46,10.00,-0.33,0.15,-0.36
1285,-0.08,-0.38,9.65,-0.33,0.15,-0.36
1290,-0.27,-0.57,10.42,-0.33,0.15,-0.36
1295,-0.08,-0.15,9.96,-0.33,0.15,-0.36
1301,0.08,0.00,10.15,-0.33,0.15,-0.36
1306,-0.65,0.46,9.39,-0.33,0.15,-0.36
1310,-0.65,0.46,9.39,-0.40,0.10,-0.73
1315,-0.08,0.54,9.42,-0.40,0.10,-0.73
1320,0.15,0.08,9.12,-0.40,0.10,-0.73
1325,-0.08,0.80,9.00,-0.40,0.10,-0.73
1332,0.65,0.38,9.85,-0.40,0.10,-0.73
1335,1.11,0.57,10.77,-0.40,0.10,-0.73
1340,1.11,0.61,10.61,-0.40,0.10,-0.73
1345,0.34,1.19,10.84,-0.40,0.10,-0.73
1350,-0.11,1.04,10.00,-0.40,0.10,-0.73
1356,-1.07,1.00,10.34,-0.40,0.10,-0.73
1362,-1.07,1.07,8.96,-0.40,0.10,-0.73
1365,-1.07,1.07,8.96,-0.44,0.23,-0.99
1370,-1.07,1.07,8.96,-0.44,0.21,-0.98
1375,-0.92,2.26,9.61,-0.44,0.21,-0.98
1380,-0.73,2.07,9.27,-0.44,0.21,-0.98
1386,0.15,1.57,10.39,-0.44,0.21,-0.98
1391,-0.04,1.07,10.65,-0.44,0.21,-0.98
1395,-0.04,1.07,10.65,-0.44,0.14,-1.10
1400,-0.04,1.07,10.65,-0.43,0.15,-1.08
1405,0.38,-0.54,9.73,-0.43,0.15,-1.08
1410,-0.15,0.04,9.58,-0.43,0.15,-1.08
1415,-0.15,-0.42,9.31,-0.43,0.15,-1.08
1422,-0.77,1.19,9.38,-0.43,0.15,-1.08
1426,-1.27,1.07,9.39,-0.43,0.15,-1.08
1430,-1.27,1.07,9.39,-0.40,0.23,-1.03
1435,-1.27,1.07,9.39,-0.40,0.27,-1.00
1440,-2.14,0.65,8.46,-0.40,0.27,-1.00
1446,-1.19,0.50,9.69,-0.40,0.27,-1.00
1450,-1.19,0.50,9.69,-0.38,0.16,-0.92
1455,-1.19,0.50,9.69,-0.36,0.08,-0.91
1460,1.61,-2.26,12.11,-0.36,0.08,-0.91
1467,1.61,-2.26,12.11,-0.34,0.04,-0.91
1472,2.34,-3.03,12.30,-0.34,0.04,-0.91
1475,-0.38,-2.11,11.41,-0.34,0.04,-0.91
1480,-1.61,-1.72,10.34,-0.34,0.04,-0.91
1486,-2.26,-1.15,9.54,-0.34,0.04,-0.91
1491,-2.26,-1.15,9.54,-0.26,0.38,-0.79
1497,-2.53,-0.57,8.16,-0.26,0.38,-0.79
1500,-2.53,-0.57,8.16,-0.29,0.37,-0.77
1505,-2.53,-0.57,8.16,-0.29,0.34,-0.78
1510,-0.96,-1.46,9.61,-0.29,0.34,-0.78
1517,0.50,-2.57,10.57,-0.29,0.34,-0.78
1520,0.50,-2.57,10.57,-0.17,0.14,-0.65
1525,-1.23,-3.41,10.38,-0.17,0.14,-0.65
1530,-1.61,-3.26,10.53,-0.17,0.14,-0.65
1537,-0.61,-2.76,10.54,-0.17,0.14,-0.65
1541,-0.61,-2.76,10.54,-0.06,0.09,-0.45
1545,0.61,-1.42,11.64,-0.06,0.09,-0.45
1552,1.23,-0.80,11.72,-0.06,0.09,-0.45
1555,1.23,-0.80,11.72,-0.08,0.15,-0.53
1560,-0.50,-0.92,9.35,-0.08,0.15,-0.53
1565,-1.23,-2.03,9.12,-0.08,0.15,-0.53
1570,-1.42,-1.34,8.81,-0.08,0.15,-0.53
1577,-1.88,-1.53,9.04,-0.08,0.15,-0.53
1582,-0.96,-1.27,8.84,-0.08,0.15,-0.53
1585,-0.96,-1.27,8.84,-0.15,0.21,-0.41
1590,-0.96,-1.27,8.84,-0.14,0.14,-0.46
1595,-0.80,-2.07,9.88,-0.14,0.14,-0.46
1602,0.46,-3.22,10.07,-0.14,0.14,-0.46
1605,0.46,-3.22,10.07,-0.02,0.13,-0.34
1611,0.46,-3.22,10.07,0.00,0.14,-0.25
1617,0.61,-1.49,9.27,0.00,0.14,-0.25
1620,0.61,-1.49,9.27,0.01,0.14,-0.25
1625,0.61,-1.49,9.27,-0.02,0.13,-0.28
1630,0.61,-1.49,9.27,-0.03,0.12,-0.28
1637,0.57,-1.00,9.88,-0.03,0.12,-0.28
1640,0.57,-1.00,9.88,-0.03,0.14,-0.26
1645,1.38,-1.91,10.34,-0.03,0.14,-0.26
1650,1.76,-1.34,10.11,-0.03,0.14,-0.26
1657,0.54,-0.84,9.54,-0.03,0.14,-0.26
1661,0.54,-0.84,9.54,-0.09,0.22,-0.40
1665,-0.08,-0.54,9.12,-0.09,0.22,-0.40
1670,0.08,-0.50,9.80,-0.09,0.22,-0.40
1677,-0.38,0.50,9.96,-0.09,0.22,-0.40
1681,1.04,0.19,10.54,-0.09,0.22,-0.40
1686,1.38,0.46,9.61,-0.09,0.22,-0.40
1690,1.38,0.46,9.61,-0.14,0.16,-0.52
1695,1.38,0.46,9.61,-0.13,0.16,-0.51
1700,-0.61,-0.54,7.93,-0.13,0.16,-0.51
1707,-0.84,-0.54,7.55,-0.13,0.16,-0.51
1710,-0.84,-0.54,7.55,-0.16,0.15,-0.50
1716,0.27,-0.30,10.50,-0.16,0.15,-0.50
1722,1.30,0.08,11.57,-0.16,0.15,-0.50
1725,1.30,0.08,11.57,-0.14,0.09,-0.58
1731,1.30,0.08,11.57,-0.11,0.12,-0.63
1737,-0.15,0.27,11.15,-0.11,0.12,-0.63
1740,-0.15,0.27,11.15,-0.13,0.29,-0.71
1745,-0.15,0.27,11.15,-0.17,0.35,-0.69
1750,-0.15,0.27,11.15,-0.21,0.35,-0.67
1755,-0.84,0.23,8.46,-0.21,0.35,-0.67
1760,-0.84,0.23,8.46,-0.28,0.22,-0.75
1766,0.04,0.77,8.73,-0.28,0.22,-0.75
1772,-1.23,0.65,10.45,-0.28,0.22,-0.75
1775,-1.23,0.65,10.45,-0.24,0.26,-0.84
1780,-1.23,0.65,10.45,-0.20,0.27,-0.79
1785,-1.95,-0.34,9.73,-0.20,0.27,-0.79
1792,-2.61,0.65,8.92,-0.20,0.27,-0.79
1795,-2.61,0.65,8.92,-0.21,0.23,-0.82
1801,-2.18,0.69,9.16,-0.21,0.23,-0.82
1807,-1.95,0.30,8.81,-0.21,0.23,-0.82
1810,-1.95,0.30,8.81,-0.23,0.15,-0.75
1815,-1.95,0.30,8.81,-0.23,0.14,-0.74
1820,-0.15,0.80,10.15,-0.23,0.14,-0.74
1827,0.11,1.00,10.41,-0.23,0.14,-0.74
1830,0.11,1.00,10.41,-0.24,0.13,-0.81
1836,-0.69,0.30,10.19,-0.24,0.13,-0.81
1842,-1.84,-0.23,10.31,-0.24,0.13,-0.81
1845,-1.84,-0.23,10.31,-0.26,0.25,-0.84
1850,-1.84,-0.23,10.31,-0.24,0.29,-0.79
1855,-1.38,0.77,10.34,-0.24,0.29,-0.79
1862,-1.30,0.65,10.88,-0.24,0.29,-0.79
1865,-1.30,0.65,10.88,-0.25,0.29,-0.82
1871,-1.30,0.65,10.88,-0.25,0.26,-0.82
1877,-0.34,-0.96,9.89,-0.25,0.26,-0.82
1880,-0.34,-0.96,9.89,-0.22,0.18,-0.78
1885,-0.34,-0.96,9.89,-0.21,0.17,-0.77
1891,-0.34,-0.96,9.89,-0.19,0.17,-0.77
1897,0.04,-2.68,9.42,-0.19,0.17,-0.77
1900,0.04,-2.68,9.42,-0.19,0.20,-0.77
1905,-2.53,-1.76,10.46,-0.19,0.20,-0.77
1910,-3.60,-2.03,9.23,-0.19,0.20,-0.77
1917,-1.68,-2.34,9.16,-0.19,0.20,-0.77
1921,-1.68,-2.34,9.16,-0.17,0.32,-0.70
1925,-0.77,-1.19,12.34,-0.17,0.32,-0.70
1932,0.23,-1.88,12.02,-0.17,0.32,-0.70
1935,0.23,-1.88,12.02,-0.11,0.19,-0.73
1941,3.03,-3.07,12.38,-0.11,0.19,-0.73
1946,2.14,-3.18,12.34,-0.11,0.19,-0.73
1950,2.14,-3.18,12.34,-0.05,0.19,-0.77
1956,2.14,-3.18,12.34,-0.05,0.29,-0.78
1962,-1.95,-1.07,7.21,-0.05,0.29,-0.78
1965,-1.95,-1.07,7.21,-0.10,0.42,-0.68
1970,-1.95,-1.07,7.21,-0.11,0.43,-0.66
1976,-1.27,0.69,7.82,-0.11,0.43,-0.66
1982,-1.00,0.46,9.00,-0.11,0.43,-0.66
1985,-1.00,0.46,9.00,-0.11,0.27,-0.74
1990,-1.00,0.46,9.00,-0.06,0.18,-0.70
1995,1.07,-2.91,11.07,-0.06,0.18,-0.70
2000,1.07,-2.91,11.07,-0.03,0.14,-0.66
2007,1.07,-2.91,11.07,0.01,0.12,-0.64
2012,1.07,-2.91,11.07,0.05,0.16,-0.62
2015,1.07,-2.91,11.07,0.04,0.21,-0.63
2020,1.07,-2.91,11.07,0.02,0.25,-0.65
2025,1.07,-2.91,11.07,-0.03,0.28,-0.71
2030,0.80,1.34,11.26,-0.03,0.28,-0.71
2037,2.26,0.15,10.84,-0.03,0.28,-0.71
2041,2.26,0.15,10.84,-0.13,0.42,-0.91
2046,-0.96,-1.11,9.31,-0.13,0.42,-0.91
2052,0.77,-1.53,9.65,-0.13,0.42,-0.91
2056,0.77,-1.53,9.65,-0.12,0.39,-0.86
2061,0.77,-1.53,9.65,-0.12,0.34,-0.88
2067,0.08,-0.73,9.16,-0.12,0.34,-0.88
2070,0.08,-0.73,9.16,-0.08,0.27,-0.93
2075,0.08,-0.73,9.16,-0.06,0.25,-0.88
2081,0.57,-1.34,10.46,-0.06,0.25,-0.88
2086,0.34,-0.50,10.61,-0.06,0.25,-0.88
2090,0.34,-0.50,10.61,-0.05,0.25,-0.84
2096,0.34,-0.50,10.61,-0.05,0.28,-0.87
2102,1.27,-1.15,10.57,-0.05,0.28,-0.87
2105,1.27,-1.15,10.57,-0.05,0.33,-0.87
2111,1.27,-1.15,10.57,-0.05,0.36,-0.86
2117,0.57,-0.77,10.00,-0.05,0.36,-0.86
2120,0.57,-0.77,10.00,-0.03,0.41,-0.82
2125,0.57,-0.77,10.00,-0.04,0.45,-0.83
2131,0.57,-0.77,10.00,-0.05,0.44,-0.81
2137,-1.30,-1.38,9.43,-0.05,0.44,-0.81
2141,-1.30,-1.38,9.43,-0.02,0.40,-0.79
2145,-1.30,-1.38,9.43,-0.01,0.36,-0.75
2151,-1.30,-1.38,9.43,0.03,0.32,-0.69
2157,-1.34,-1.65,7.51,0.03,0.32,-0.69
2161,-1.34,-1.65,7.51,0.04,0.30,-0.62
2166,-1.34,-1.65,7.51,0.04,0.29,-0.57
2172,-3.33,-1.07,6.47,0.04,0.29,-0.57
2176,-3.33,-1.07,6.47,0.05,0.24,-0.44
2181,-3.33,-1.07,6.47,0.07,0.19,-0.37
2187,0.77,-2.91,11.03,0.07,0.19,-0.37
2191,0.77,-2.91,11.03,0.12,0.01,-0.28
2195,0.77,-2.91,11.03,0.21,-0.04,-0.28
2201,5.82,-4.71,19.88,0.21,-0.04,-0.28
2207,5.09,-5.29,18.73,0.21,-0.04,-0.28
2211,5.09,-5.29,18.73,0.30,0.22,-0.46
2216,5.09,-5.29,18.73,0.29,0.42,-0.51
2222,-4.64,-2.84,7.55,0.29,0.42,-0.51
2225,-4.64,-2.84,7.55,0.20,0.80,-0.47
2230,-4.64,-2.84,7.55,0.13,0.88,-0.37
2235,-4.64,-2.84,7.55,0.04,0.86,-0.31
2240,-4.33,2.84,7.70,0.04,0.86,-0.31
2247,-2.64,2.11,9.04,0.04,0.86,-0.31
2251,-2.64,2.11,9.04,0.01,0.46,-0.48
2257,-2.41,-5.25,11.19,0.01,0.46,-0.48
2261,-2.41,-5.25,11.19,0.21,0.21,-0.46
2265,-2.41,-5.25,11.19,0.25,0.12,-0.29
2271,-2.41,-5.25,11.19,0.29,0.07,-0.11
2277,-2.30,-0.84,9.00,0.29,0.07,-0.11
2281,-2.30,-0.84,9.00,0.23,-0.03,0.06
2285,-2.30,-0.84,9.00,0.13,-0.05,-0.02
2290,-2.30,-0.84,9.00,0.04,-0.01,-0.17
2297,-1.46,2.38,11.22,0.04,-0.01,-0.17
2301,-1.46,2.38,11.22,-0.01,0.12,-0.40
2306,1.00,0.77,12.14,-0.01,0.12,-0.40
2312,0.08,-1.15,11.11,-0.01,0.12,-0.40
2316,0.08,-1.15,11.11,-0.04,0.27,-0.47
2321,0.08,-1.15,11.11,-0.04,0.32,-0.57
2327,0.42,1.49,10.03,-0.04,0.32,-0.57
2331,0.42,1.49,10.03,-0.10,0.39,-0.66
2336,0.42,1.49,10.03,-0.11,0.39,-0.69
2342,2.95,-0.19,9.93,-0.11,0.39,-0.69
2345,2.95,-0.19,9.93,-0.11,0.25,-0.77
2351,2.95,-0.19,9.93,-0.12,0.18,-0.82
2356,2.95,-0.19,9.93,-0.12,0.17,-0.90
2362,3.45,-1.42,13.06,-0.12,0.17,-0.90
2365,3.45,-1.42,13.06,-0.13,0.31,-1.10
2371,3.45,-1.42,13.06,-0.11,0.41,-1.13
2377,1.84,-1.65,12.91,-0.11,0.41,-1.13
2381,1.84,-1.65,12.91,-0.14,0.59,-1.14
2385,1.84,-1.65,12.91,-0.11,0.64,-1.19
2391,1.84,-1.65,12.91,-0.15,0.65,-1.26
2397,2.72,0.88,10.31,-0.15,0.65,-1.26
2401,2.72,0.88,10.31,-0.19,0.77,-1.50
2405,2.72,0.88,10.31,-0.19,0.89,-1.53
2411,2.72,0.88,10.31,-0.14,0.96,-1.45
2417,-9.23,-0.04,9.96,-0.14,0.96,-1.45
2421,-9.23,-0.04,9.96,-0.09,1.01,-1.22
2426,-9.23,-0.04,9.96,-0.05,0.90,-1.12
2432,-0.54,2.11,12.64,-0.05,0.90,-1.12
2435,-0.54,2.11,12.64,-0.03,0.52,-1.14
2441,-0.54,2.11,12.64,0.00,0.31,-1.18
2446,4.48,-2.26,14.33,0.00,0.31,-1.18
2450,4.48,-2.26,14.33,0.05,0.03,-1.12
2455,5.21,-3.79,14.29,0.05,0.03,-1.12
2462,5.21,-3.79,14.29,0.05,0.01,-1.07
2467,0.88,-1.42,13.06,0.05,0.01,-1.07
2470,0.88,-1.42,13.06,0.03,0.49,-1.11
2476,0.88,-1.42,13.06,-0.04,0.72,-1.13
2482,-3.60,2.64,8.85,-0.04,0.72,-1.13
2485,-3.60,2.64,8.85,-0.11,1.02,-1.13
2491,-3.60,2.64,8.85,-0.10,1.02,-1.12
2496,-2.72,0.23,7.32,-0.10,1.02,-1.12
2502,-1.53,-1.19,6.66,-0.10,1.02,-1.12
2505,-1.53,-1.19,6.66,0.06,0.71,-0.97
2511,-1.53,-1.19,6.66,0.15,0.54,-0.81
2517,-0.88,-2.49,10.00,0.15,0.54,-0.81
2521,-0.88,-2.49,10.00,0.24,0.28,-0.57
2525,-0.88,-2.49,10.00,0.27,0.25,-0.56
2531,-0.88,-2.49,10.00,0.28,0.29,-0.57
2537,-1.34,0.42,11.26,0.28,0.29,-0.57
2540,-1.34,0.42,11.26,0.27,0.34,-0.43
2546,-1.65,1.30,9.85,0.27,0.34,-0.43
2552,-1.65,1.30,9.85,0.16,0.41,-0.45
2556,-1.65,1.30,9.85,0.14,0.45,-0.51
2561,-1.65,1.30,9.85,0.12,0.52,-0.52
2566,-6.78,-2.22,10.04,0.12,0.52,-0.52
2572,-7.43,-2.99,9.73,0.12,0.52,-0.52
2575,-7.43,-2.99,9.73,0.21,0.76,-0.37
2581,-7.89,-1.76,10.30,0.21,0.76,-0.37
2587,-6.17,-1.42,10.07,0.21,0.76,-0.37
2591,-6.17,-1.42,10.07,0.32,0.57,-0.19
2596,-6.17,-1.42,10.07,0.30,0.34,-0.14
2602,-0.23,-3.33,6.93,0.30,0.34,-0.14
2605,-0.23,-3.33,6.93,0.27,-0.02,-0.19
2611,-0.23,-3.33,6.93,0.24,-0.14,-0.18
2616,-0.23,-3.33,6.93,0.27,-0.18,-0.15
2621,-2.64,-4.41,11.07,0.27,-0.18,-0.15
2626,-2.64,-4.41,11.07,0.28,0.03,-0.14
2631,-2.64,-4.41,11.07,0.30,0.13,-0.15
2637,-2.11,-0.11,12.10,0.30,0.13,-0.15
2641,-2.11,-0.11,12.10,0.24,0.45,-0.32
2646,-2.11,-0.11,12.10,0.24,0.53,-0.38
2651,-2.11,-0.11,12.10,0.21,0.50,-0.38
2657,-1.65,-3.22,8.46,0.21,0.50,-0.38
2661,-1.65,-3.22,8.46,0.25,0.38,-0.40
2665,-1.65,-3.22,8.46,0.27,0.26,-0.37
2672,-1.65,-3.22,8.46,0.28,0.18,-0.34
2676,-1.65,-3.22,8.46,0.29,0.11,-0.32
2681,-1.65,-3.22,8.46,0.30,0.01,-0.31
2686,1.72,-1.30,10.19,0.30,0.01,-0.31
2692,1.27,-0.73,10.19,0.30,0.01,-0.31
2696,1.27,-0.73,10.19,0.23,-0.12,-0.52
2701,1.27,-0.73,10.19,0.23,-0.11,-0.55
2706,4.79,-1.72,9.20,0.23,-0.11,-0.55
2710,4.79,-1.72,9.20,0.18,-0.07,-0.56
2716,1.99,-2.34,10.00,0.18,-0.07,-0.56
2721,1.99,-2.34,10.00,0.17,0.02,-0.63
2727,1.65,-0.88,10.19,0.17,0.02,-0.63
2731,1.65,-0.88,10.19,0.18,0.28,-0.73
2736,1.65,-0.88,10.19,0.17,0.32,-0.79
2742,0.00,0.54,11.68,0.17,0.32,-0.79
2746,0.00,0.54,11.68,0.17,0.38,-0.94
2751,0.00,0.54,11.68,0.18,0.37,-0.92
2757,0.00,0.54,11.68,0.20,0.31,-0.87
2761,0.00,0.54,11.68,0.20,0.24,-0.80
2766,0.00,0.54,11.68,0.21,0.17,-0.76
2771,0.00,0.54,11.68,0.19,0.09,-0.76
2777,-1.27,0.42,8.28,0.19,0.09,-0.76
2781,-1.27,0.42,8.28,0.15,0.03,-0.79
2785,-1.27,0.42,8.28,0.14,0.05,-0.79
2790,-1.27,0.42,8.28,0.14,0.09,-0.79
2797,-1.72,0.27,7.97,0.14,0.09,-0.79
2802,-1.72,0.27,7.97,0.17,0.18,-0.68
2806,-1.72,0.27,7.97,0.21,0.20,-0.61
2812,1.27,-1.49,14.02,0.21,0.20,-0.61
2816,1.27,-1.49,14.02,0.27,0.14,-0.57
2821,1.27,-1.49,14.02,0.31,0.12,-0.62
2827,0.80,-2.87,11.60,0.31,0.12,-0.62
2831,0.80,-2.87,11.60,0.34,0.20,-0.62
2836,0.80,-2.87,11.60,0.34,0.29,-0.55
2841,-2.26,-0.46,6.36,0.34,0.29,-0.55
2846,-3.60,-0.19,6.51,0.34,0.29,-0.55
2851,-3.60,-0.19,6.51,0.19,0.34,-0.45
2856,-3.60,-0.19,6.51,0.16,0.28,-0.50
2862,-1.57,-2.45,6.97,0.16,0.28,-0.50
2865,-1.57,-2.45,6.97,0.19,0.16,-0.55
2871,-1.57,-2.45,6.97,0.26,0.13,-0.50
2876,-1.57,-2.45,6.97,0.36,0.09,-0.38
2882,0.84,-4.60,12.34,0.36,0.09,-0.38
2886,0.84,-4.60,12.34,0.45,0.10,-0.25
2891,0.84,-4.60,12.34,0.46,0.11,-0.26
2897,-2.45,-2.61,11.61,0.46,0.11,-0.26
2901,-2.45,-2.61,11.61,0.44,0.25,-0.29
2906,-2.45,-2.61,11.61,0.41,0.29,-0.21
2911,-2.45,-2.61,11.61,0.37,0.32,-0.15
2916,-0.46,1.95,8.54,0.37,0.32,-0.15
2921,-0.46,1.95,8.54,0.30,0.32,-0.16
2926,-0.46,1.95,8.54,0.27,0.30,-0.20
2932,0.11,-1.61,8.66,0.27,0.30,-0.20
2935,0.11,-1.61,8.66,0.30,0.21,-0.12
2941,0.11,-1.61,8.66,0.32,0.19,-0.03
2945,-3.03,-2.80,8.73,0.32,0.19,-0.03
2951,-2.30,-1.88,9.20,0.32,0.19,-0.03
2956,-2.30,-1.88,9.20,0.37,0.12,0.21
2961,-2.30,-1.88,9.20,0.36,0.09,0.19
2967,-1.91,-0.69,8.31,0.36,0.09,0.19
2971,-1.91,-0.69,8.31,0.36,0.04,0.22
2976,-1.91,-0.69,8.31,0.38,0.04,0.29
2981,-1.91,-0.69,8.31,0.38,0.07,0.33
2986,-1.91,-0.69,8.31,0.38,0.07,0.37
2991,-1.91,-0.69,8.31,0.38,0.08,0.37
2996,-1.91,-0.69,8.31,0.36,0.13,0.34
3001,-2.22,-1.76,7.39,0.36,0.13,0.34
3006,-2.22,-1.76,7.39,0.30,0.10,0.35
3011,-2.22,-1.76,7.39,0.28,0.07,0.35
3017,-2.22,-1.76,7.39,0.24,0.08,0.30
3021,-2.22,-1.76,7.39,0.22,0.04,0.32
3026,-2.22,-1.76,7.39,0.23,-0.02,0.39
3031,-2.22,-1.76,7.39,0.22,-0.02,0.41
3037,-0.42,-1.23,7.35,0.22,-0.02,0.41
3041,-0.42,-1.23,7.35,0.15,-0.05,0.39
3046,-0.42,-1.23,7.35,0.14,-0.03,0.38
3052,-0.42,-1.23,7.35,0.14,0.00,0.32
3056,-0.42,-1.23,7.35,0.13,-0.01,0.31
3061,-0.42,-1.23,7.35,0.15,0.00,0.31
3066,-0.42,-1.23,7.35,0.14,0.03,0.24
3071,0.50,1.04,8.58,0.14,0.03,0.24
3076,0.50,1.04,8.58,0.07,0.04,0.11
3081,0.50,1.04,8.58,0.03,0.07,0.04
3087,0.50,1.04,8.58,-0.04,0.09,-0.05
3091,0.50,1.04,8.58,-0.09,0.07,-0.13
3096,0.50,1.04,8.58,-0.13,0.05,-0.22
3101,0.50,1.04,8.58,-0.16,0.04,-0.32
3106,0.50,1.04,8.58,-0.18,0.04,-0.41
3111,0.50,1.04,8.58,-0.19,0.04,-0.48
3116,0.50,1.04,8.58,-0.19,0.03,-0.56
3121,0.50,1.04,8.58,-0.21,0.07,-0.67
3126,0.50,1.04,8.58,-0.24,0.12,-0.77
3131,0.50,1.04,8.58,-0.25,0.15,-0.83
3136,0.50,1.04,8.58,-0.27,0.12,-0.86
3141,0.50,1.04,8.58,-0.31,0.06,-0.90
3146,0.50,1.04,8.58,-0.34,0.02,-0.97
3151,0.50,1.04,8.58,-0.37,0.01,-1.06
3157,2.30,2.11,10.77,-0.37,0.01,-1.06
3161,2.30,2.11,10.77,-0.38,0.09,-1.17
3166,2.30,2.11,10.77,-0.37,0.16,-1.21
3172,2.30,2.11,10.77,-0.34,0.23,-1.22
3176,2.30,2.11,10.77,-0.33,0.25,-1.23
3181,2.30,2.11,10.77,-0.33,0.25,-1.24
3185,2.30,2.11,10.77,-0.34,0.24,-1.28
3190,2.30,2.11,10.77,-0.36,0.23,-1.35
3195,2.22,2.14,11.50,-0.36,0.23,-1.35
3202,2.22,2.14,11.50,-0.35,0.22,-1.39
3205,2.22,2.14,11.50,-0.33,0.19,-1.40
3211,0.96,1.34,10.69,-0.33,0.19,-1.40
3216,0.96,1.34,10.69,-0.33,0.18,-1.42
3221,0.96,1.34,10.69,-0.35,0.17,-1.45
3226,-0.30,1.46,9.46,-0.35,0.17,-1.45
3231,-0.30,1.46,9.46,-0.38,0.21,-1.55
3236,-0.30,1.46,9.46,-0.39,0.23,-1.56
3241,-0.30,1.46,9.46,-0.40,0.24,-1.57
3246,-0.30,1.46,9.46,-0.38,0.26,-1.54
3251,-0.30,1.46,9.46,-0.35,0.26,-1.51
3256,-0.30,1.46,9.46,-0.30,0.26,-1.46
3262,1.11,-0.27,14.48,-0.30,0.26,-1.46
3266,1.11,-0.27,14.48,-0.25,0.27,-1.46
3271,1.11,-0.27,14.48,-0.20,0.29,-1.46
3276,1.11,-0.27,14.48,-0.18,0.31,-1.44
3281,1.11,-0.27,14.48,-0.19,0.35,-1.36
3286,1.11,-0.27,14.48,-0.17,0.40,-1.27
3291,1.11,-0.27,14.48,-0.16,0.40,-1.18
3296,-1.38,1.57,8.54,-0.16,0.40,-1.18
3301,-1.38,1.57,8.54,-0.21,0.35,-1.05
3306,-1.38,1.57,8.54,-0.18,0.34,-1.06
3311,-1.38,1.57,8.54,-0.12,0.34,-1.04
3316,-1.38,1.57,8.54,-0.05,0.35,-0.97
3321,-1.38,1.57,8.54,0.03,0.35,-0.82
3326,-1.38,1.57,8.54,0.09,0.34,-0.67
3331,-0.38,-2.18,10.27,0.09,0.34,-0.67
3336,-0.38,-2.18,10.27,0.16,0.27,-0.47
3341,-0.38,-2.18,10.27,0.16,0.23,-0.45
3346,-0.38,-2.18,10.27,0.18,0.23,-0.45
3351,-0.38,-2.18,10.27,0.14,0.22,-0.41
3356,-0.38,-2.18,10.27,0.16,0.21,-0.33
3360,-0.38,-2.18,10.27,0.19,0.23,-0.29
3366,-0.57,-3.87,9.58,0.19,0.23,-0.29
3370,-0.57,-3.87,9.58,0.21,0.21,-0.21
3376,-1.34,-4.33,10.53,0.21,0.21,-0.21
3382,-1.34,-4.33,10.53,0.25,0.23,-0.27
3386,-1.34,-4.33,10.53,0.26,0.21,-0.26
3391,-1.34,-4.33,10.53,0.27,0.21,-0.25
3396,-1.34,-4.33,10.53,0.30,0.23,-0.25
3401,-1.34,-4.33,10.53,0.31,0.22,-0.23
3406,-1.34,-4.33,10.53,0.35,0.18,-0.20
3411,-1.34,-4.33,10.53,0.34,0.21,-0.23
3417,0.23,-4.29,11.61,0.34,0.21,-0.23
3421,0.23,-4.29,11.61,0.39,0.29,-0.30
3426,0.23,-4.29,11.61,0.38,0.27,-0.33
3431,0.23,-4.29,11.61,0.37,0.28,-0.40
3436,0.23,-4.29,11.61,0.36,0.26,-0.42
3441,0.23,-4.29,11.61,0.37,0.23,-0.39
3446,0.23,-4.29,11.61,0.35,0.23,-0.37
3452,-0.77,-1.07,8.92,0.35,0.23,-0.37
3456,-0.77,-1.07,8.92,0.32,0.23,-0.44
3461,-0.77,-1.07,8.92,0.32,0.22,-0.48
3466,-0.77,-1.07,8.92,0.31,0.21,-0.50
3471,-0.77,-1.07,8.92,0.30,0.17,-0.48
3476,-0.77,-1.07,8.92,0.30,0.12,-0.47
3481,-0.77,-1.07,8.92,0.29,0.08,-0.50
3486,2.45,-1.57,9.96,0.29,0.08,-0.50
3491,2.45,-1.57,9.96,0.31,0.03,-0.50
3496,2.45,-1.57,9.96,0.32,0.02,-0.54
3501,2.45,-1.57,9.96,0.33,0.06,-0.59
3506,2.45,-1.57,9.96,0.34,0.14,-0.64
3511,2.45,-1.57,9.96,0.31,0.21,-0.66
3515,2.45,-1.57,9.96,0.29,0.26,-0.65
3521,-1.07,0.65,8.70,0.29,0.26,-0.65
3526,-1.07,0.65,8.70,0.24,0.26,-0.68
3531,-1.07,0.65,8.70,0.22,0.21,-0.71
3536,-1.07,0.65,8.70,0.23,0.16,-0.74
3541,-1.07,0.65,8.70,0.23,0.12,-0.76
3546,-1.07,0.65,8.70,0.23,0.09,-0.78
3550,-1.07,0.65,8.70,0.26,0.10,-0.80
3556,-0.15,-1.61,10.80,0.26,0.10,-0.80
3561,-0.15,-1.61,10.80,0.28,0.20,-0.83
3566,-0.15,-1.61,10.80,0.29,0.24,-0.80
3571,-0.15,-1.61,10.80,0.30,0.25,-0.80
3576,-0.15,-1.61,10.80,0.29,0.24,-0.83
3581,-0.15,-1.61,10.80,0.28,0.22,-0.85
3585,-0.15,-1.61,10.80,0.29,0.22,-0.88
3591,1.76,-0.34,10.30,0.29,0.22,-0.88
3596,1.76,-0.34,10.30,0.29,0.21,-0.89
3601,1.76,-0.34,10.30,0.29,0.22,-0.90
3606,1.76,-0.34,10.30,0.31,0.23,-0.89
3611,1.76,-0.34,10.30,0.33,0.24,-0.86
3616,1.76,-0.34,10.30,0.35,0.23,-0.82
3620,1.76,-0.34,10.30,0.36,0.23,-0.80
3626,0.19,0.27,10.11,0.36,0.23,-0.80
3630,0.19,0.27,10.11,0.35,0.23,-0.81
3635,-0.61,-0.61,10.27,0.35,0.23,-0.81
3641,-0.61,-0.61,10.27,0.39,0.25,-0.77
3646,-0.57,-1.76,10.23,0.39,0.25,-0.77
3651,-0.57,-1.76,10.23,0.44,0.22,-0.67
3655,-0.57,-1.76,10.23,0.45,0.20,-0.65
3661,-0.80,-1.72,8.50,0.45,0.20,-0.65
3666,-0.80,-1.72,8.50,0.45,0.18,-0.61
3671,-0.80,-1.72,8.50,0.46,0.17,-0.57
3676,-2.45,-2.45,7.23,0.46,0.17,-0.57
3681,-2.45,-2.45,7.23,0.47,0.19,-0.53
3686,-2.45,-2.45,7.23,0.52,0.20,-0.48
3690,-2.45,-2.45,7.23,0.55,0.18,-0.41
3696,0.50,-2.95,13.06,0.55,0.18,-0.41
3701,0.50,-2.95,13.06,0.62,0.13,-0.38
3705,0.50,-2.95,13.06,0.65,0.12,-0.41
3711,-0.23,-3.71,9.96,0.65,0.12,-0.41
3716,-0.23,-3.71,9.96,0.66,0.21,-0.40
3721,-0.23,-3.71,9.96,0.66,0.27,-0.35
3725,-0.23,-3.71,9.96,0.65,0.30,-0.28
3731,-2.76,0.15,7.12,0.65,0.30,-0.28
3736,-2.76,0.15,7.12,0.55,0.24,-0.21
3740,-2.76,0.15,7.12,0.55,0.18,-0.24
3746,-0.80,-2.34,9.58,0.55,0.18,-0.24
3751,-0.80,-2.34,9.58,0.59,0.11,-0.26
3756,-0.80,-2.34,9.58,0.65,0.11,-0.18
3761,-0.80,-2.34,9.58,0.70,0.12,-0.05
3766,-1.72,-2.76,8.36,0.70,0.12,-0.05
3771,-1.72,-2.76,8.36,0.78,0.11,0.19
3775,-1.72,-2.76,8.36,0.78,0.09,0.26
3781,-3.10,-0.54,8.73,0.78,0.09,0.26
3786,-3.10,-0.54,8.73,0.74,0.05,0.32
3791,-3.10,-0.54,8.73,0.73,0.03,0.39
3796,-3.10,-0.54,8.73,0.72,0.00,0.47
3801,-2.57,-1.46,8.92,0.72,0.00,0.47
3806,-2.57,-1.46,8.92,0.72,-0.02,0.56
3810,-2.57,-1.46,8.92,0.70,-0.05,0.60
3816,-3.41,-2.99,9.73,0.70,-0.05,0.60
3821,-3.41,-2.99,9.73,0.72,0.00,0.67
3826,-3.41,-2.99,9.73,0.73,-0.01,0.74
3831,-3.41,-2.99,9.73,0.72,-0.05,0.82
3836,-1.49,-3.98,8.54,0.72,-0.05,0.82
3841,-1.49,-3.98,8.54,0.70,-0.09,0.81
3845,-1.49,-3.98,8.54,0.69,-0.12,0.79
3851,-0.27,-3.98,9.65,0.69,-0.12,0.79
3856,-0.27,-3.98,9.65,0.70,-0.11,0.80
3861,-0.27,-3.98,9.65,0.71,-0.08,0.82
3865,-0.27,-3.98,9.65,0.74,-0.06,0.83
3870,0.38,-3.87,8.39,0.74,-0.06,0.83
3875,-1.00,-4.10,7.62,0.74,-0.06,0.83
3881,-1.00,-4.10,7.62,0.72,-0.05,0.80
3886,-1.11,-2.64,7.70,0.72,-0.05,0.80
3891,-1.11,-2.64,7.70,0.65,-0.04,0.78
3895,-1.11,-2.64,7.70,0.63,-0.09,0.77
3901,-1.11,-2.64,7.70,0.62,-0.12,0.73
3906,-1.11,-2.64,7.70,0.60,-0.15,0.69
3911,-1.11,-2.64,7.70,0.58,-0.13,0.68
3915,-1.11,-2.64,7.70,0.58,-0.13,0.72
3921,1.04,-1.34,8.85,0.58,-0.13,0.72
3926,1.04,-1.34,8.85,0.56,-0.17,0.73
3930,1.04,-1.34,8.85,0.53,-0.17,0.66
3936,0.04,-0.04,10.00,0.53,-0.17,0.66
3941,0.04,-0.04,10.00,0.51,-0.11,0.60
3946,0.04,-0.04,10.00,0.50,-0.08,0.62
3951,0.04,-0.04,10.00,0.47,-0.03,0.62
3956,2.87,0.42,10.11,0.47,-0.03,0.62
3961,2.87,0.42,10.11,0.43,0.02,0.54
3965,2.87,0.42,10.11,0.40,0.02,0.50
3971,0.69,-0.04,9.27,0.40,0.02,0.50
3976,0.69,-0.04,9.27,0.34,-0.02,0.44
3981,0.69,-0.04,9.27,0.33,-0.07,0.43
3986,0.69,-0.04,9.27,0.31,-0.10,0.43
3991,0.54,0.19,8.12,0.31,-0.10,0.43
3996,0.54,0.19,8.12,0.26,-0.15,0.36
4000,0.54,0.19,8.12,0.24,-0.14,0.32
4006,-0.42,0.50,9.38,0.24,-0.14,0.32
4011,-0.42,0.50,9.38,0.23,-0.10,0.29
4016,-0.42,0.50,9.38,0.21,-0.07,0.29
4021,-0.42,0.50,9.38,0.22,-0.07,0.30
4026,-1.00,-0.23,8.54,0.22,-0.07,0.30
4031,-1.00,-0.23,8.54,0.22,-0.05,0.27
4035,-1.00,-0.23,8.54,0.20,-0.04,0.29
4041,0.34,0.77,10.15,0.20,-0.04,0.29
4046,0.34,0.77,10.15,0.20,-0.06,0.33
4050,0.34,0.77,10.15,0.17,-0.05,0.29
4056,0.34,0.77,10.15,0.17,-0.05,0.25
4061,-0.19,-0.04,9.77,0.17,-0.05,0.25
4066,-0.19,-0.04,9.77,0.16,-0.01,0.28
4070,-0.19,-0.04,9.77,0.14,0.02,0.28
4076,-1.23,0.57,8.77,0.14,0.02,0.28
4081,-1.23,0.57,8.77,0.11,0.01,0.27
4085,-1.23,0.57,8.77,0.10,0.01,0.23
4091,-1.23,0.57,8.77,0.09,0.01,0.20
4096,-1.23,0.57,8.77,0.09,-0.02,0.21
4101,-1.23,0.57,8.77,0.08,-0.06,0.21
4105,-1.23,0.57,8.77,0.08,-0.06,0.18
4111,-1.00,-1.07,8.43,0.08,-0.06,0.18
4116,-1.00,-1.07,8.43,0.06,-0.07,0.17
4120,-1.00,-1.07,8.43,0.07,-0.07,0.16
4126,-1.00,-1.07,8.43,0.04,-0.05,0.13
4131,-2.34,-0.08,5.60,0.04,-0.05,0.13
4136,-2.34,-0.08,5.60,0.01,-0.05,0.13
4140,-2.34,-0.08,5.60,0.01,-0.04,0.12
4146,-1.84,-0.30,11.15,0.01,-0.04,0.12
4151,-1.84,-0.30,11.15,0.03,-0.07,0.13
4155,-1.84,-0.30,11.15,0.05,-0.12,0.15
4161,-1.84,-0.30,11.15,0.06,-0.14,0.08
4166,-1.84,-0.30,11.15,0.06,-0.13,0.01
4171,-1.84,-0.30,11.15,0.08,-0.08,-0.00
4176,-1.84,-0.30,11.15,0.11,-0.03,0.03
4181,-2.80,-0.11,8.81,0.11,-0.03,0.03
4186,-2.80,-0.11,8.81,0.06,0.10,-0.02
4190,-2.80,-0.11,8.81,0.02,0.11,-0.06
4196,-0.11,0.34,9.20,0.02,0.11,-0.06
4200,-0.11,0.34,9.20,-0.03,0.04,-0.17
4206,-0.11,0.34,9.20,-0.06,0.03,-0.24
4211,-0.11,0.34,9.20,-0.08,0.02,-0.23
4216,-1.65,1.30,7.77,-0.08,0.02,-0.23
4221,-1.65,1.30,7.77,-0.07,-0.00,-0.09
4226,-1.65,1.30,7.77,-0.05,-0.02,-0.05
4231,-1.65,1.30,7.77,-0.06,-0.04,-0.03
4236,-1.65,1.30,7.77,-0.05,-0.08,0.01
4241,-1.65,1.30,7.77,-0.03,-0.11,0.04
4246,-1.65,1.30,7.77,-0.03,-0.13,0.04
4251,-0.73,0.19,10.50,-0.03,-0.13,0.04
4256,-0.73,0.19,10.50,-0.01,-0.13,0.04
4260,-0.73,0.19,10.50,0.00,-0.11,0.06
4266,-0.27,0.08,9.89,0.00,-0.11,0.06
4271,-0.27,0.08,9.89,-0.03,-0.04,0.02
4275,-0.27,0.08,9.89,-0.04,-0.01,-0.03
4281,-0.27,0.08,9.89,-0.07,0.01,-0.07
4287,0.46,-0.04,9.80,-0.07,0.01,-0.07
4291,0.46,-0.04,9.80,-0.12,0.00,-0.15
4296,0.46,-0.04,9.80,-0.12,-0.02,-0.18
4301,0.69,-0.88,10.73,-0.12,-0.02,-0.18
4306,0.69,-0.88,10.73,-0.11,0.02,-0.22
4310,0.69,-0.88,10.73,-0.10,0.05,-0.22
4316,0.69,-0.88,10.73,-0.09,0.08,-0.22
4321,-0.88,-0.77,9.81,-0.09,0.08,-0.22
4326,-0.88,-0.77,9.81,-0.07,0.09,-0.23
4331,-0.88,-0.77,9.81,-0.06,0.08,-0.23
4336,-1.15,-0.19,8.50,-0.06,0.08,-0.23
4341,-1.15,-0.19,8.50,-0.06,0.00,-0.18
4345,-1.15,-0.19,8.50,-0.06,-0.04,-0.18
4351,-1.15,-0.19,8.50,-0.06,-0.08,-0.20
4356,-1.15,-0.19,8.50,-0.07,-0.09,-0.23
4361,-1.15,-0.19,8.50,-0.07,-0.08,-0.24
4365,-1.15,-0.19,8.50,-0.06,-0.05,-0.21
4371,-1.15,-0.19,8.50,-0.06,-0.02,-0.19
4376,-1.15,-0.19,8.50,-0.08,-0.03,-0.19
4380,-1.15,-0.19,8.50,-0.08,-0.04,-0.22
4386,0.30,-1.68,9.04,-0.08,-0.04,-0.22
4391,0.27,-1.57,9.69,-0.08,-0.04,-0.22
4396,0.27,-1.57,9.69,-0.05,-0.03,-0.23
4401,0.27,-1.57,9.69,-0.03,-0.00,-0.23
4406,-0.46,-0.15,10.73,-0.03,-0.00,-0.23
4411,-0.46,-0.15,10.73,0.01,0.09,-0.24
4415,-0.46,-0.15,10.73,0.02,0.15,-0.24
4421,-1.95,-0.42,8.46,0.02,0.15,-0.24
4426,-1.95,-0.42,8.46,0.03,0.15,-0.22
4431,-1.95,-0.42,8.46,0.02,0.09,-0.22
4436,-1.95,-0.42,8.46,0.02,0.02,-0.22
4441,1.19,0.54,9.46,0.02,0.02,-0.22
4446,1.19,0.54,9.46,0.01,-0.09,-0.20
4450,1.19,0.54,9.46,0.01,-0.08,-0.20
4456,-1.23,1.72,9.50,0.01,-0.08,-0.20
4461,-1.23,1.72,9.50,0.00,0.03,-0.20
4466,-1.23,1.72,9.50,0.00,0.07,-0.19
4471,-1.23,1.72,9.50,-0.00,0.07,-0.17
4476,-1.38,0.84,9.00,-0.00,0.07,-0.17
4481,-1.38,0.84,9.00,-0.01,0.02,-0.14
4485,-1.38,0.84,9.00,-0.01,-0.02,-0.13
4491,-1.38,0.84,9.00,-0.01,-0.05,-0.12
4496,-1.38,0.84,9.00,-0.02,-0.06,-0.09
4501,-1.38,0.84,9.00,-0.02,-0.06,-0.07
4506,-1.38,0.84,9.00,-0.02,-0.05,-0.05
4511,-1.27,0.92,9.27,-0.02,-0.05,-0.05
4516,-1.27,0.92,9.27,-0.02,-0.00,-0.03
4521,-1.27,0.92,9.27,-0.02,0.03,-0.02
4526,-1.65,0.50,9.96,-0.02,0.03,-0.02
4531,-1.65,0.50,9.96,-0.03,0.02,-0.03
4536,-1.65,0.50,9.96,-0.03,-0.01,-0.03
4541,-1.65,0.50,9.96,-0.03,-0.02,-0.02
4546,-1.65,0.50,9.96,-0.03,-0.03,-0.01
4551,-1.65,0.50,9.96,-0.02,-0.05,0.01
4556,-1.65,0.50,9.96,-0.02,-0.05,0.00
4561,-1.49,-0.73,9.58,-0.02,-0.05,0.00
4566,-1.49,-0.73,9.58,-0.04,-0.02,-0.01
4570,-1.49,-0.73,9.58,-0.03,0.02,-0.01
4576,-2.14,-0.30,8.54,-0.03,0.02,-0.01
4580,-2.14,-0.30,8.54,-0.04,0.07,-0.05
4585,-2.14,-0.30,8.54,-0.04,0.08,-0.05
4591,-2.14,-0.30,8.54,-0.04,0.06,-0.07
4596,-1.30,0.27,11.42,-0.04,0.06,-0.07
4601,-1.30,0.27,11.42,-0.05,-0.02,-0.10
4605,-1.30,0.27,11.42,-0.04,-0.06,-0.11
4611,-1.30,0.27,11.42,-0.04,-0.07,-0.12
4616,-1.30,0.27,11.42,-0.02,-0.05,-0.13
4621,-1.30,0.27,11.42,0.00,0.01,-0.13
4626,-1.30,0.27,11.42,0.00,0.06,-0.12
4631,-1.30,0.27,11.42,-0.01,0.08,-0.10
4636,-1.30,0.27,11.42,-0.03,0.07,-0.11
4640,-1.30,0.27,11.42,-0.05,0.05,-0.14
4646,0.38,0.23,9.20,-0.05,0.05,-0.14
4651,0.42,-0.30,8.85,-0.05,0.05,-0.14
4655,0.42,-0.30,8.85,-0.12,0.01,-0.26
4661,0.42,-0.30,8.85,-0.12,0.03,-0.26
4666,-1.80,-0.30,7.97,-0.12,0.03,-0.26
4671,-1.80,-0.30,7.97,-0.09,0.06,-0.19
4675,-1.80,-0.30,7.97,-0.09,0.03,-0.16
4681,0.73,0.61,10.41,-0.09,0.03,-0.16
4686,0.73,0.61,10.41,-0.08,-0.10,-0.20
4690,0.73,0.61,10.41,-0.07,-0.13,-0.20
4696,0.73,0.61,10.41,-0.05,-0.12,-0.17
4701,1.65,-0.19,10.07,-0.05,-0.12,-0.17
4706,1.65,-0.19,10.07,0.00,-0.05,-0.09
4710,1.65,-0.19,10.07,0.01,-0.02,-0.07
4716,0.84,-1.27,10.88,0.01,-0.02,-0.07
4720,0.84,-1.27,10.88,0.00,0.03,-0.10
4725,0.84,-1.27,10.88,0.01,0.04,-0.11
4731,0.84,-1.27,10.88,0.00,0.08,-0.10
4736,0.84,-1.27,10.88,0.01,0.11,-0.11
4741,0.84,-1.27,10.88,0.00,0.11,-0.10
4745,0.84,-1.27,10.88,-0.01,0.10,-0.10
4751,0.84,-1.27,10.88,-0.01,0.07,-0.11
4756,0.84,-1.27,10.88,-0.01,0.02,-0.10
4760,0.84,-1.27,10.88,0.01,-0.02,-0.07
4766,0.84,-1.27,10.88,0.01,-0.04,-0.05
4771,-0.34,-1.19,10.30,0.01,-0.04,-0.05
4776,-0.34,-1.19,10.30,0.04,0.02,-0.02
4780,-0.34,-1.19,10.30,0.06,0.06,-0.01
4786,-1.30,-0.11,9.12,0.06,0.06,-0.01
4791,-1.30,-0.11,9.12,0.07,0.11,0.03
4795,-1.30,-0.11,9.12,0.07,0.10,0.03
4801,-1.30,-0.11,9.12,0.05,0.07,0.02
4806,-1.30,-0.11,9.12,0.04,0.03,0.00
4811,-1.30,-0.11,9.12,0.03,0.01,-0.02
4816,-1.30,-0.11,9.12,0.02,-0.01,-0.02
4821,-0.19,-1.61,7.51,0.02,-0.01,-0.02
4826,-0.19,-1.61,7.51,-0.00,-0.12,-0.02
4831,-0.19,-1.61,7.51,-0.02,-0.16,-0.04
4836,-0.19,-1.61,7.51,-0.01,-0.17,-0.08
4841,-0.19,-1.61,7.51,-0.01,-0.14,-0.11
4846,-0.19,-1.61,7.51,0.01,-0.09,-0.12
4851,-0.19,-1.61,7.51,0.04,-0.02,-0.12
4855,-0.19,-1.61,7.51,0.06,0.07,-0.13
4861,-0.19,-1.61,7.51,0.06,0.13,-0.14
4866,-0.19,-1.61,7.51,0.05,0.17,-0.18
4871,-0.19,-1.61,7.51,0.05,0.19,-0.20
4875,-0.19,-1.61,7.51,0.04,0.19,-0.21
4880,-0.19,-1.61,7.51,0.04,0.17,-0.22
4885,-0.19,-1.61,7.51,0.05,0.12,-0.22
4891,-0.19,-1.61,7.51,0.03,0.07,-0.22
4895,-0.19,-1.61,7.51,0.03,0.01,-0.22
4901,-0.19,-1.61,7.51,0.03,-0.02,-0.24
4906,-2.38,-0.84,8.96,0.03,-0.02,-0.24
4910,-2.38,-0.84,8.96,0.04,-0.01,-0.26
4915,-2.38,-0.84,8.96,0.07,-0.00,-0.23
4921,-2.38,-0.84,8.96,0.08,-0.00,-0.21
4826,-0.19,-1.61,7.51,-0.00,-0.12,-0.02
4831,-0.19,-1.61,7.51,-0.02,-0.16,-0.04
4836,-0.19,-1.61,7.51,-0.01,-0.17,-0.08
4841,-0.19,-1.61,7.51,-0.01,-0.14,-0.11
4846,-0.19,-1.61,7.51,0.01,-0.09,-0.12
4851,-0.19,-1.61,7.51,0.04,-0.02,-0.12
4855,-0.19,-1.61,7.51,0.06,0.07,-0.13
4861,-0.19,-1.61,7.51,0.06,0.13,-0.14
4866,-0.19,-1.61,7.51,0.05,0.17,-0.18
4871,-0.19,-1.61,7.51,0.05,0.19,-0.20
4875,-0.19,-1.61,7.51,0.04,0.19,-0.21
4880,-0.19,-1.61,7.51,0.04,0.17,-0.22
4885,-0.19,-1.61,7.51,0.05,0.12,-0.22
4891,-0.19,-1.61,7.51,0.03,0.07,-0.22
4895,-0.19,-1.61,7.51,0.03,0.01,-0.22
4901,-0.19,-1.61,7.51,0.03,-0.02,-0.24
