timestamp,accX,accY,accZ,gyroX,gyroY,gyroZ
Right
7,-0.50,-1.30,10.11,0.19,-0.19,0.58
19,-0.50,-1.30,10.11,0.21,-0.10,0.66
22,-4.33,0.54,6.82,0.21,-0.10,0.66
23,0.96,2.11,5.79,0.21,-0.10,0.66
26,0.96,2.11,5.79,-0.10,0.12,-0.40
31,1.42,1.80,5.55,-0.10,0.12,-0.40
37,2.34,1.00,3.91,-0.10,0.12,-0.40
41,2.34,1.00,3.91,-0.13,-0.12,-0.50
46,2.34,1.00,3.91,-0.14,-0.08,-0.52
52,-3.79,0.84,7.74,-0.14,-0.08,-0.52
56,-3.79,0.84,7.74,-0.09,0.12,-0.39
61,-3.79,0.84,7.74,-0.10,0.15,-0.34
66,-3.79,0.84,7.74,-0.09,0.10,-0.34
72,1.19,-0.69,15.13,-0.09,0.10,-0.34
76,1.19,-0.69,15.13,-0.05,-0.06,-0.46
81,1.19,-0.69,15.13,-0.01,-0.09,-0.49
87,1.19,-0.69,15.13,-0.01,-0.02,-0.48
91,1.19,-0.69,15.13,-0.00,0.11,-0.45
96,1.19,-0.69,15.13,-0.02,0.21,-0.42
101,-1.84,0.00,11.53,-0.02,0.21,-0.42
107,-2.45,0.15,12.38,-0.02,0.21,-0.42
111,-2.45,0.15,12.38,-0.06,0.20,-0.43
116,-2.45,0.15,12.38,-0.08,0.14,-0.46
122,0.23,0.34,10.61,-0.08,0.14,-0.46
126,0.23,0.34,10.61,-0.04,0.13,-0.47
131,0.23,0.34,10.61,-0.03,0.14,-0.42
136,-2.11,1.65,7.24,-0.03,0.14,-0.42
142,-0.19,-0.04,9.34,-0.03,0.14,-0.42
146,-0.19,-0.04,9.34,0.04,0.07,-0.25
151,-0.19,-0.04,9.34,-0.03,0.01,-0.23
156,-0.50,-0.27,6.02,-0.03,0.01,-0.23
161,-0.50,-0.27,6.02,-0.05,-0.12,-0.28
166,-0.50,-0.27,6.02,-0.02,-0.10,-0.27
172,-1.04,0.15,6.93,-0.02,-0.10,-0.27
176,-1.04,0.15,6.93,0.04,-0.07,-0.13
181,-1.04,0.15,6.93,0.01,-0.11,-0.11
186,-1.04,0.15,6.93,0.01,-0.14,-0.14
192,-1.99,-1.11,8.20,0.01,-0.14,-0.14
196,-1.99,-1.11,8.20,0.07,-0.07,-0.20
201,-1.99,-1.11,8.20,0.09,0.01,-0.15
207,-1.99,-1.11,8.20,0.09,0.10,-0.11
211,-1.99,-1.11,8.20,0.12,0.11,-0.11
216,-1.99,-1.11,8.20,0.08,0.03,-0.11
221,-1.99,-1.11,8.20,0.09,-0.10,-0.11
227,3.14,-2.30,8.39,0.09,-0.10,-0.11
231,3.14,-2.30,8.39,0.13,-0.21,-0.08
236,3.14,-2.30,8.39,0.14,-0.14,-0.07
242,3.14,-2.30,8.39,0.13,-0.10,-0.03
247,3.14,-2.30,8.39,0.14,-0.03,-0.03
251,3.14,-2.30,8.39,0.12,0.01,-0.04
256,3.14,-2.30,8.39,0.11,-0.02,-0.06
262,0.04,-1.95,8.62,0.11,-0.02,-0.06
266,0.04,-1.95,8.62,0.15,-0.05,-0.06
271,0.04,-1.95,8.62,0.17,0.00,-0.05
276,0.04,-1.95,8.62,0.20,0.04,-0.02
281,0.04,-1.95,8.62,0.22,0.09,0.00
286,0.04,-1.95,8.62,0.24,0.17,0.00
291,0.04,-1.95,8.62,0.22,0.21,0.02
296,-4.60,0.38,9.00,0.22,0.21,0.02
301,-4.60,0.38,9.00,0.19,0.14,0.02
306,-4.60,0.38,9.00,0.15,-0.02,0.05
312,-4.60,0.38,9.00,0.11,-0.21,0.08
316,-4.60,0.38,9.00,0.08,-0.34,0.07
321,-4.60,0.38,9.00,0.08,-0.39,0.04
326,-4.60,0.38,9.00,0.06,-0.44,0.03
332,1.76,-1.30,11.92,0.06,-0.44,0.03
336,1.76,-1.30,11.92,0.11,-0.43,0.11
341,1.76,-1.30,11.92,0.10,-0.42,0.16
347,1.76,-1.30,11.92,0.08,-0.38,0.15
351,1.76,-1.30,11.92,0.15,-0.29,0.06
356,1.76,-1.30,11.92,0.22,-0.08,-0.01
361,1.76,-1.30,11.92,0.28,0.17,-0.04
367,-8.88,-1.68,4.79,0.28,0.17,-0.04
371,-8.88,-1.68,4.79,0.35,0.70,-0.02
376,-8.88,-1.68,4.79,0.26,0.73,-0.01
382,1.07,0.08,2.22,0.26,0.73,-0.01
386,1.07,0.08,2.22,0.06,0.31,-0.03
391,1.07,0.08,2.22,-0.01,-0.01,-0.09
396,1.07,0.08,2.22,-0.04,-0.29,-0.15
401,1.07,0.08,2.22,-0.01,-0.40,-0.19
406,1.07,0.08,2.22,0.07,-0.35,-0.17
411,1.07,0.08,2.22,0.18,-0.17,-0.09
416,-0.61,-1.65,11.11,0.18,-0.17,-0.09
421,-0.61,-1.65,11.11,0.28,0.10,0.10
426,-0.61,-1.65,11.11,0.28,0.14,0.12
432,-0.61,-1.65,11.11,0.27,0.13,0.08
436,-0.61,-1.65,11.11,0.22,0.05,0.04
441,-0.61,-1.65,11.11,0.18,-0.10,0.02
446,-0.61,-1.65,11.11,0.13,-0.19,0.01
452,-6.09,-0.04,4.56,0.13,-0.19,0.01
456,-6.09,-0.04,4.56,0.10,-0.17,-0.06
461,-6.09,-0.04,4.56,0.11,-0.15,-0.06
467,-6.09,-0.04,4.56,0.11,-0.08,-0.05
471,-6.09,-0.04,4.56,0.12,-0.06,-0.01
476,-6.09,-0.04,4.56,0.15,-0.09,0.02
481,-6.09,-0.04,4.56,0.16,-0.21,0.09
487,-6.09,-0.04,4.56,0.17,-0.41,0.18
491,-6.09,-0.04,4.56,0.21,-0.60,0.27
496,-6.09,-0.04,4.56,0.19,-0.68,0.31
502,-6.09,-0.04,4.56,0.21,-0.65,0.28
506,-6.09,-0.04,4.56,0.27,-0.47,0.19
511,-6.09,-0.04,4.56,0.33,-0.17,0.09
516,-6.09,-0.04,4.56,0.39,0.16,0.05
522,-8.85,-2.30,7.89,0.39,0.16,0.05
526,-8.85,-2.30,7.89,0.44,0.64,0.16
531,-8.85,-2.30,7.89,0.38,0.63,0.21
536,-8.85,-2.30,7.89,0.33,0.45,0.22
541,-8.85,-2.30,7.89,0.20,0.18,0.15
546,-8.85,-2.30,7.89,0.22,-0.09,0.05
551,-8.85,-2.30,7.89,0.26,-0.21,-0.01
557,-3.48,-1.04,19.50,0.26,-0.21,-0.01
561,-3.48,-1.04,19.50,0.28,-0.14,0.03
566,-3.48,-1.04,19.50,0.31,-0.08,0.06
572,-3.48,-1.04,19.50,0.39,-0.04,0.08
576,-3.48,-1.04,19.50,0.50,0.01,0.10
581,-3.48,-1.04,19.50,0.51,-0.01,0.13
586,-3.48,-1.04,19.50,0.41,-0.09,0.13
592,5.28,-2.18,3.91,0.41,-0.09,0.13
596,5.28,-2.18,3.91,0.22,-0.28,-0.02
601,5.28,-2.18,3.91,0.20,-0.27,-0.06
606,5.28,-2.18,3.91,0.27,-0.17,-0.04
611,5.28,-2.18,3.91,0.33,-0.03,0.08
616,5.28,-2.18,3.91,0.38,0.13,0.25
621,5.28,-2.18,3.91,0.38,0.29,0.34
627,-0.34,0.50,17.51,0.38,0.29,0.34
631,-0.34,0.50,17.51,0.41,0.35,0.28
636,-0.34,0.50,17.51,0.44,0.26,0.24
641,-0.34,0.50,17.51,0.45,0.15,0.25
646,-0.34,0.50,17.51,0.48,0.06,0.33
651,-0.34,0.50,17.51,0.43,0.00,0.44
656,-0.34,0.50,17.51,0.39,-0.08,0.52
661,-0.34,0.50,17.51,0.31,-0.19,0.55
666,-0.34,0.50,17.51,0.28,-0.27,0.52
671,-0.34,0.50,17.51,0.27,-0.30,0.44
677,3.91,-1.72,13.87,0.27,-0.30,0.44
681,3.91,-1.72,13.87,0.30,-0.32,0.34
686,3.91,-1.72,13.87,0.33,-0.23,0.33
691,3.91,-1.72,13.87,0.34,-0.09,0.34
696,3.91,-1.72,13.87,0.40,0.04,0.39
701,3.91,-1.72,13.87,0.45,0.18,0.45
705,3.91,-1.72,13.87,0.45,0.35,0.43
710,-11.22,-2.26,10.57,0.45,0.35,0.43
716,-11.22,-2.26,10.57,0.51,0.86,0.35
722,-12.68,-0.96,11.95,0.51,0.86,0.35
726,-12.68,-0.96,11.95,0.51,0.99,0.51
731,-12.68,-0.96,11.95,0.45,0.76,0.59
736,-12.68,-0.96,11.95,0.45,0.36,0.61
741,-12.68,-0.96,11.95,0.37,0.01,0.54
747,10.57,-4.29,5.29,0.37,0.01,0.54
751,10.57,-4.29,5.29,0.39,-0.58,0.66
756,10.57,-4.29,5.29,0.32,-0.54,0.67
761,10.57,-4.29,5.29,0.20,-0.45,0.66
766,10.57,-4.29,5.29,0.30,-0.36,0.70
771,10.57,-4.29,5.29,0.39,-0.18,0.78
776,10.57,-4.29,5.29,0.41,-0.03,0.87
782,-8.01,1.95,6.86,0.41,-0.03,0.87
786,-8.01,1.95,6.86,0.38,0.39,0.88
791,-8.01,1.95,6.86,0.42,0.62,0.84
796,-8.01,1.95,6.86,0.41,0.78,0.91
801,-8.01,1.95,6.86,0.39,0.87,1.06
806,-8.01,1.95,6.86,0.32,0.71,1.29
811,-8.01,1.95,6.86,0.31,0.26,1.53
817,11.15,0.11,10.30,0.31,0.26,1.53
821,11.15,0.11,10.30,0.17,-0.90,1.57
826,11.15,0.11,10.30,0.13,-1.26,1.39
831,11.15,0.11,10.30,0.24,-1.37,1.19
836,11.15,0.11,10.30,0.29,-1.13,0.99
841,11.15,0.11,10.30,0.34,-0.59,0.86
846,11.15,0.11,10.30,0.26,0.08,0.88
852,0.57,-2.57,15.36,0.26,0.08,0.88
856,0.57,-2.57,15.36,0.19,0.47,0.95
861,0.57,-2.57,15.36,0.04,0.42,0.88
867,0.57,-2.57,15.36,-0.13,0.24,0.71
871,0.57,-2.57,15.36,-0.02,0.06,0.51
876,0.57,-2.57,15.36,0.00,0.00,0.31
881,0.57,-2.57,15.36,0.01,0.07,0.21
887,-2.18,0.15,12.79,0.01,0.07,0.21
891,-2.18,0.15,12.79,0.08,0.37,0.42
896,-2.18,0.15,12.79,0.05,0.43,0.57
901,-2.18,0.15,12.79,0.10,0.39,0.62
906,-2.18,0.15,12.79,0.06,0.31,0.52
911,-2.18,0.15,12.79,0.03,0.21,0.33
916,-2.18,0.15,12.79,-0.02,0.07,0.18
921,-2.18,0.15,12.79,-0.06,-0.06,0.15
926,-2.18,0.15,12.79,-0.14,-0.12,0.24
931,-2.18,0.15,12.79,-0.20,-0.08,0.32
937,-4.71,2.45,10.27,-0.20,-0.08,0.32
941,-4.71,2.45,10.27,-0.26,-0.01,0.32
946,-4.71,2.45,10.27,-0.27,-0.01,0.27
951,-4.71,2.45,10.27,-0.19,-0.10,0.20
957,4.60,0.15,11.30,-0.19,-0.10,0.20
961,4.60,0.15,11.30,-0.09,-0.30,0.06
966,4.60,0.15,11.30,-0.08,-0.29,0.01
972,0.11,4.02,7.47,-0.08,-0.29,0.01
976,0.11,4.02,7.47,-0.17,-0.01,0.02
981,0.11,4.02,7.47,-0.26,0.24,-0.01
986,0.11,4.02,7.47,-0.36,0.41,-0.03
992,-5.06,2.45,3.71,-0.36,0.41,-0.03
996,-5.06,2.45,3.71,-0.39,0.33,-0.06
1001,-5.06,2.45,3.71,-0.36,0.10,-0.08
1007,6.51,-0.38,10.88,-0.36,0.10,-0.08
1011,6.51,-0.38,10.88,-0.24,-0.30,-0.18
1016,6.51,-0.38,10.88,-0.19,-0.33,-0.19
1021,6.51,-0.38,10.88,-0.12,-0.21,-0.14
1027,-2.99,0.30,6.25,-0.12,-0.21,-0.14
1031,-2.99,0.30,6.25,-0.10,0.24,0.01
1036,-2.99,0.30,6.25,-0.12,0.45,0.09
1042,-4.71,5.60,2.38,-0.12,0.45,0.09
1046,-4.71,5.60,2.38,-0.26,0.57,0.18
1051,-4.71,5.60,2.38,-0.30,0.45,0.15
1056,-4.71,5.60,2.38,-0.29,0.22,0.11
1062,-0.19,0.23,9.85,-0.29,0.22,0.11
1066,-0.19,0.23,9.85,-0.19,-0.20,0.13
1071,-0.19,0.23,9.85,-0.15,-0.23,0.24
1077,-2.34,-0.34,15.75,-0.15,-0.23,0.24
1081,-2.34,-0.34,15.75,-0.06,-0.07,0.46
1086,-2.34,-0.34,15.75,-0.03,0.05,0.49
1091,-2.34,-0.34,15.75,-0.03,0.15,0.48
1097,-0.38,1.42,5.32,-0.03,0.15,0.48
1101,-0.38,1.42,5.32,-0.27,0.07,0.44
1105,-0.38,1.42,5.32,-0.30,-0.09,0.36
1110,6.82,-2.18,11.19,-0.30,-0.09,0.36
1116,6.82,-2.18,11.19,-0.34,-0.26,0.26
1121,6.82,-2.18,11.19,-0.18,-0.27,0.07
1127,6.82,-2.18,11.19,-0.14,-0.08,0.06
1131,6.82,-2.18,11.19,-0.09,0.23,0.11
1136,6.82,-2.18,11.19,-0.08,0.52,0.18
1141,6.82,-2.18,11.19,-0.03,0.67,0.24
1147,5.02,-3.03,16.93,-0.03,0.67,0.24
1151,5.02,-3.03,16.93,0.01,0.59,0.14
1156,5.02,-3.03,16.93,-0.03,0.48,0.02
1162,5.02,-3.03,16.93,0.00,0.35,-0.03
1166,5.02,-3.03,16.93,-0.08,0.23,0.01
1171,5.02,-3.03,16.93,-0.13,0.15,0.08
1176,5.02,-3.03,16.93,-0.23,0.15,0.13
1182,-6.70,-2.14,5.21,-0.23,0.15,0.13
1186,-6.70,-2.14,5.21,-0.30,0.11,0.20
1191,-6.70,-2.14,5.21,-0.27,-0.06,0.25
1197,-6.70,-2.14,5.21,-0.21,-0.27,0.28
1201,-6.70,-2.14,5.21,-0.21,-0.43,0.25
1206,-6.70,-2.14,5.21,-0.16,-0.50,0.26
1211,-6.70,-2.14,5.21,-0.13,-0.47,0.30
1217,-2.11,0.30,9.38,-0.13,-0.47,0.30
1221,-2.11,0.30,9.38,-0.16,-0.12,0.39
1226,-2.11,0.30,9.38,-0.10,0.07,0.45
1232,-7.27,1.30,6.28,-0.10,0.07,0.45
1236,-7.27,1.30,6.28,-0.11,0.38,0.51
1241,-7.27,1.30,6.28,-0.19,0.38,0.56
1246,-7.27,1.30,6.28,-0.24,0.31,0.54
1252,-1.19,1.23,4.83,-0.24,0.31,0.54
1256,-1.19,1.23,4.83,-0.32,-0.07,0.34
1261,-1.19,1.23,4.83,-0.24,-0.25,0.28
1267,4.75,-2.57,14.21,-0.24,-0.25,0.28
1271,4.75,-2.57,14.21,-0.14,-0.36,0.38
1276,4.75,-2.57,14.21,-0.10,-0.19,0.40
1281,4.75,-2.57,14.21,-0.16,0.07,0.35
1287,-3.33,-0.69,13.71,-0.16,0.07,0.35
1291,-3.33,-0.69,13.71,-0.12,0.49,0.10
1296,-3.33,-0.69,13.71,-0.14,0.66,0.03
1302,-7.66,6.17,0.54,-0.14,0.66,0.03
1306,-7.66,6.17,0.54,-0.29,0.72,0.10
1311,-7.66,6.17,0.54,-0.51,0.64,0.13
1316,-7.66,6.17,0.54,-0.57,0.37,0.16
1322,13.37,-2.84,13.63,-0.57,0.37,0.16
1326,13.37,-2.84,13.63,-0.38,-0.48,0.16
1331,13.37,-2.84,13.63,-0.22,-0.68,0.08
1336,-1.11,-2.61,18.43,-0.22,-0.68,0.08
1341,-1.11,-2.61,18.43,-0.08,-0.17,-0.05
1346,-1.11,-2.61,18.43,-0.07,0.34,-0.02
1351,-1.11,-2.61,18.43,-0.16,0.71,0.10
1356,0.00,3.60,6.44,-0.16,0.71,0.10
1361,0.00,3.60,6.44,-0.30,0.69,0.46
1366,0.00,3.60,6.44,-0.48,0.40,0.45
1372,9.69,0.42,10.15,-0.48,0.40,0.45
1376,9.69,0.42,10.15,-0.57,-0.22,0.06
1381,9.69,0.42,10.15,-0.42,-0.34,-0.17
1387,9.69,0.42,10.15,-0.37,-0.23,-0.29
1391,9.69,0.42,10.15,-0.22,-0.06,-0.20
1396,9.69,0.42,10.15,-0.21,0.14,0.00
1401,9.69,0.42,10.15,-0.28,0.27,0.26
1407,1.88,6.12,4.94,-0.28,0.27,0.26
1411,1.88,6.12,4.94,-0.49,0.20,0.47
1416,1.88,6.12,4.94,-0.70,0.07,0.32
1421,1.88,6.12,4.94,-0.73,-0.10,0.11
1427,6.63,-1.53,11.46,-0.73,-0.10,0.11
1431,6.63,-1.53,11.46,-0.61,-0.39,-0.13
1436,6.63,-1.53,11.46,-0.53,-0.32,-0.10
1442,2.64,-0.19,15.97,-0.53,-0.32,-0.10
1446,2.64,-0.19,15.97,-0.47,-0.04,0.19
1451,2.64,-0.19,15.97,-0.54,0.11,0.20
1456,2.64,-0.19,15.97,-0.59,0.25,0.06
1461,2.64,-0.19,15.97,-0.61,0.34,-0.15
1466,2.64,-0.19,15.97,-0.62,0.33,-0.32
1471,2.64,-0.19,15.97,-0.61,0.23,-0.36
1476,2.45,0.08,7.78,-0.61,0.23,-0.36
1481,2.45,0.08,7.78,-0.62,0.11,-0.33
1486,2.45,0.08,7.78,-0.64,0.21,-0.39
1492,-9.77,1.27,4.94,-0.64,0.21,-0.39
1496,-9.77,1.27,4.94,-0.62,0.47,-0.46
1501,-9.77,1.27,4.94,-0.62,0.44,-0.36
1506,-9.77,1.27,4.94,-0.63,0.29,-0.30
1512,5.98,-0.30,8.12,-0.63,0.29,-0.30
1516,5.98,-0.30,8.12,-0.68,-0.31,-0.41
1521,5.98,-0.30,8.12,-0.61,-0.45,-0.60
1527,-1.38,-1.07,16.51,-0.61,-0.45,-0.60
1531,-1.38,-1.07,16.51,-0.48,-0.27,-0.66
1536,-1.38,-1.07,16.51,-0.50,-0.10,-0.53
1541,-1.38,-1.07,16.51,-0.66,0.15,-0.52
1545,-2.68,2.57,8.81,-0.66,0.15,-0.52
1551,-2.68,2.57,8.81,-0.74,0.34,-0.64
1556,-2.68,2.57,8.81,-0.72,0.53,-0.93
1562,11.61,-0.23,13.83,-0.72,0.53,-0.93
1566,11.61,-0.23,13.83,-0.59,0.07,-0.79
1571,11.61,-0.23,13.83,-0.62,-0.10,-0.86
1576,11.61,-0.23,13.83,-0.63,-0.08,-1.05
1582,2.57,-0.84,11.64,-0.63,-0.08,-1.05
1586,2.57,-0.84,11.64,-0.52,0.32,-1.13
1591,2.57,-0.84,11.64,-0.55,0.68,-1.00
1597,-12.38,4.86,4.37,-0.55,0.68,-1.00
1601,-12.38,4.86,4.37,-0.58,1.02,-0.61
1606,-12.38,4.86,4.37,-0.68,0.94,-0.51
1612,-12.38,4.86,4.37,-0.68,0.57,-0.47
1616,-12.38,4.86,4.37,-0.68,0.05,-0.51
1621,-12.38,4.86,4.37,-0.66,-0.42,-0.64
1626,-12.38,4.86,4.37,-0.63,-0.81,-0.71
1632,2.84,-5.17,6.09,-0.63,-0.81,-0.71
1636,2.84,-5.17,6.09,-0.60,-0.85,-0.62
1641,2.84,-5.17,6.09,-0.53,-0.55,-0.49
1647,2.84,-5.17,6.09,-0.48,-0.25,-0.34
1651,2.84,-5.17,6.09,-0.47,0.04,-0.21
1656,2.84,-5.17,6.09,-0.50,0.19,-0.12
1661,2.84,-5.17,6.09,-0.47,0.16,-0.14
1667,2.84,-5.17,6.09,-0.51,0.11,-0.27
1671,2.84,-5.17,6.09,-0.53,0.04,-0.45
1676,2.84,-5.17,6.09,-0.50,-0.08,-0.59
1681,2.30,-5.67,11.26,-0.50,-0.08,-0.59
1687,1.88,-5.55,11.98,-0.50,-0.08,-0.59
1691,1.88,-5.55,11.98,-0.46,0.09,-0.62
1696,1.88,-5.55,11.98,-0.40,0.26,-0.55
1702,-4.18,0.19,12.76,-0.40,0.26,-0.55
1706,-4.18,0.19,12.76,-0.45,0.46,-0.51
1711,-4.18,0.19,12.76,-0.44,0.35,-0.53
1717,3.29,3.14,7.55,-0.44,0.35,-0.53
1721,3.29,3.14,7.55,-0.56,0.13,-0.78
1726,3.29,3.14,7.55,-0.53,-0.01,-0.79
1731,3.29,3.14,7.55,-0.57,0.04,-0.76
1736,-3.56,-4.67,9.23,-0.57,0.04,-0.76
1741,-3.56,-4.67,9.23,-0.36,0.19,-0.34
1746,-3.56,-4.67,9.23,-0.28,0.18,-0.07
1752,0.88,1.95,16.01,-0.28,0.18,-0.07
1756,0.88,1.95,16.01,-0.26,0.09,0.08
1761,0.88,1.95,16.01,-0.33,-0.05,-0.03
1765,0.88,1.95,16.01,-0.41,-0.11,-0.24
1770,5.94,-2.53,10.88,-0.41,-0.11,-0.24
1776,5.94,-2.53,10.88,-0.41,-0.13,-0.45
1782,5.94,-2.53,10.88,-0.41,-0.08,-0.57
1787,-0.04,-5.17,14.98,-0.41,-0.08,-0.57
1791,-4.86,0.54,12.53,-0.41,-0.08,-0.57
1796,-4.86,0.54,12.53,-0.36,0.48,-0.35
1801,-4.86,0.54,12.53,-0.42,0.63,-0.47
1807,-5.75,0.46,7.05,-0.42,0.63,-0.47
1811,-5.75,0.46,7.05,-0.41,0.67,-0.67
1816,-5.75,0.46,7.05,-0.40,0.55,-0.65
1822,4.14,-4.45,1.19,-0.40,0.55,-0.65
1826,4.14,-4.45,1.19,-0.29,-0.13,-0.29
1831,4.14,-4.45,1.19,-0.26,-0.38,-0.18
1837,1.95,-1.57,9.27,-0.26,-0.38,-0.18
1841,1.95,-1.57,9.27,-0.31,-0.52,-0.19
1846,1.95,-1.57,9.27,-0.32,-0.43,-0.24
1851,1.95,-1.57,9.27,-0.35,-0.26,-0.31
1856,1.84,-0.69,14.56,-0.35,-0.26,-0.31
1861,1.84,-0.69,14.56,-0.32,0.07,-0.45
1866,1.84,-0.69,14.56,-0.36,0.21,-0.49
1872,1.38,2.49,5.74,-0.36,0.21,-0.49
1876,1.38,2.49,5.74,-0.41,0.42,-0.57
1881,1.38,2.49,5.74,-0.48,0.46,-0.60
1886,1.38,2.49,5.74,-0.50,0.49,-0.61
1892,-2.72,-1.00,2.41,-0.50,0.49,-0.61
1896,-2.72,-1.00,2.41,-0.43,0.38,-0.54
1901,-2.72,-1.00,2.41,-0.40,0.32,-0.51
1907,-2.72,-1.00,2.41,-0.34,0.20,-0.48
1911,-2.72,-1.00,2.41,-0.31,0.11,-0.49
1916,-2.72,-1.00,2.41,-0.31,0.07,-0.55
1921,-2.72,-1.00,2.41,-0.31,0.06,-0.57
1926,-2.72,-1.00,2.41,-0.32,0.04,-0.57
1931,-2.72,-1.00,2.41,-0.39,0.05,-0.61
1936,-2.72,-1.00,2.41,-0.46,0.09,-0.68
1941,3.33,1.15,11.38,-0.46,0.09,-0.68
1946,3.33,1.15,11.38,-0.58,0.15,-0.81
1951,3.33,1.15,11.38,-0.65,0.20,-0.89
1956,3.33,1.15,11.38,-0.70,0.25,-0.98
1961,3.95,1.72,7.97,-0.70,0.25,-0.98
1966,3.95,1.72,7.97,-0.61,0.34,-1.08
1971,3.95,1.72,7.97,-0.55,0.55,-1.12
1976,-8.54,-1.49,10.27,-0.55,0.55,-1.12
1981,-8.54,-1.49,10.27,-0.37,0.77,-0.86
1986,-8.54,-1.49,10.27,-0.33,0.69,-0.72
1991,-8.54,-1.49,10.27,-0.32,0.50,-0.69
1996,7.85,0.88,12.07,-0.32,0.50,-0.69
2001,7.85,0.88,12.07,-0.40,-0.05,-0.97
2006,7.85,0.88,12.07,-0.46,-0.22,-1.18
2011,-3.45,-2.07,10.84,-0.46,-0.22,-1.18
2016,-3.45,-2.07,10.84,-0.54,-0.12,-1.28
2021,-3.45,-2.07,10.84,-0.54,-0.12,-1.09
2025,-3.45,-2.07,10.84,-0.63,-0.10,-0.98
2030,5.02,-0.15,8.16,-0.63,-0.10,-0.98
2036,5.02,-0.15,8.16,-0.61,-0.10,-1.04
2042,5.02,-0.15,8.16,-0.56,0.11,-1.40
2046,5.02,-0.15,8.16,-0.46,0.25,-1.42
2051,-1.88,-2.99,5.60,-0.46,0.25,-1.42
2056,-1.88,-2.99,5.60,-0.37,0.24,-1.05
2061,-1.88,-2.99,5.60,-0.33,0.09,-0.92
2066,5.09,-0.88,15.62,-0.33,0.09,-0.92
2071,5.09,-0.88,15.62,-0.27,-0.31,-1.04
2076,5.09,-0.88,15.62,-0.30,-0.38,-1.24
2081,-0.69,1.07,9.96,-0.30,-0.38,-1.24
2086,-0.69,1.07,9.96,-0.49,-0.04,-1.63
2091,-0.69,1.07,9.96,-0.65,0.19,-1.72
2096,4.02,3.45,9.65,-0.65,0.19,-1.72
2101,4.02,3.45,9.65,-0.61,0.33,-1.57
2106,4.02,3.45,9.65,-0.66,0.27,-1.53
2111,4.02,3.45,9.65,-0.67,0.17,-1.58
2116,9.61,-0.15,18.73,-0.67,0.17,-1.58
2121,9.61,-0.15,18.73,-0.56,0.21,-1.98
2126,9.61,-0.15,18.73,-0.37,0.48,-2.11
2131,-2.80,-1.72,14.10,-0.37,0.48,-2.11
2136,-2.80,-1.72,14.10,0.02,1.01,-1.80
2141,-2.80,-1.72,14.10,-0.08,1.16,-1.53
2146,-2.80,-1.72,14.10,-0.17,1.11,-1.25
2151,-2.80,-1.72,14.10,-0.16,0.85,-1.08
2156,-2.80,-1.72,14.10,-0.27,0.52,-1.12
2161,-2.80,-1.72,14.10,-0.20,0.21,-1.28
2166,-2.80,-1.72,14.10,-0.08,-0.01,-1.45
2171,0.88,-11.95,10.30,-0.08,-0.01,-1.45
2176,0.88,-11.95,10.30,-0.18,-0.07,-1.61
2182,0.88,-11.95,10.30,-0.01,0.17,-1.60
2186,0.88,-11.95,10.30,-0.01,0.33,-1.41
2190,-0.42,-0.96,7.20,-0.01,0.33,-1.41
2196,-0.42,-0.96,7.20,-0.04,0.48,-0.94
2201,1.27,-4.10,11.30,-0.04,0.48,-0.94
2206,1.27,-4.10,11.30,-0.15,0.28,-1.04
2211,1.27,-4.10,11.30,-0.01,0.19,-1.21
2216,1.27,-4.10,11.30,0.20,0.11,-1.27
2221,1.27,-4.10,11.30,0.29,0.16,-1.18
2226,1.27,-4.10,11.30,0.51,0.24,-0.94
2231,1.27,-4.10,11.30,0.47,0.34,-0.69
2236,-1.72,0.69,8.12,0.47,0.34,-0.69
2241,-1.72,0.69,8.12,0.29,0.52,-0.52
2246,-1.72,0.69,8.12,0.25,0.60,-0.55
2251,-1.72,0.69,8.12,0.17,0.55,-0.51
2256,-1.72,0.69,8.12,0.24,0.39,-0.34
2261,-1.72,0.69,8.12,0.35,0.19,-0.17
2266,-1.72,0.69,8.12,0.38,0.03,-0.14
2271,13.33,-5.21,16.28,0.38,0.03,-0.14
2276,13.33,-5.21,16.28,0.53,0.01,-0.33
2281,13.33,-5.21,16.28,0.55,0.29,-0.45
2286,13.33,-5.21,16.28,0.52,0.76,-0.46
2291,13.33,-5.21,16.28,0.58,1.13,-0.30
2296,13.33,-5.21,16.28,0.46,1.35,-0.06
2301,13.33,-5.21,16.28,0.40,1.45,0.18
2306,13.33,-5.21,16.28,0.33,1.35,0.36
2311,13.33,-5.21,16.28,0.33,0.94,0.45
2316,13.33,-5.21,16.28,0.31,0.38,0.42
2321,13.33,-5.21,16.28,0.31,-0.13,0.29
2326,3.26,-7.32,8.04,0.31,-0.13,0.29
2331,3.26,-7.32,8.04,0.49,-0.44,-0.01
2336,3.26,-7.32,8.04,0.51,-0.23,0.00
2341,3.26,-7.32,8.04,0.61,0.09,0.16
2346,3.26,-7.32,8.04,0.60,0.34,0.41
2351,3.26,-7.32,8.04,0.49,0.37,0.63
2356,6.59,4.60,13.57,0.49,0.37,0.63
2361,6.59,4.60,13.57,0.17,0.12,0.52
2366,6.59,4.60,13.57,0.14,0.01,0.25
2371,6.59,4.60,13.57,0.18,-0.07,-0.05
2376,6.59,4.60,13.57,0.21,-0.06,-0.32
2381,6.59,4.60,13.57,0.21,0.01,-0.42
2386,6.59,4.60,13.57,0.29,0.18,-0.37
2391,6.59,4.60,13.57,0.28,0.35,-0.23
2396,6.59,4.60,13.57,0.29,0.41,-0.07
2401,6.59,4.60,13.57,0.25,0.42,-0.01
2406,6.59,4.60,13.57,0.24,0.44,-0.14
2411,6.59,4.60,13.57,0.20,0.40,-0.36
2416,6.59,4.60,13.57,0.23,0.29,-0.51
2421,6.59,4.60,13.57,0.20,0.11,-0.54
2426,6.59,4.60,13.57,0.13,-0.01,-0.49
2431,6.59,4.60,13.57,0.11,0.03,-0.45
2436,6.59,4.60,13.57,0.10,0.12,-0.40
2441,6.59,4.60,13.57,0.05,0.25,-0.34
2446,6.59,4.60,13.57,0.03,0.38,-0.33
2450,-3.33,2.87,9.80,0.03,0.38,-0.33
2456,-3.33,2.87,9.80,0.01,0.34,-0.44
2462,-3.33,2.87,9.80,0.02,0.23,-0.50
2466,-3.33,2.87,9.80,0.04,0.04,-0.49
2470,0.11,-0.46,2.26,0.04,0.04,-0.49
2476,0.11,-0.46,2.26,-0.01,-0.25,-0.38
2481,0.11,-0.46,2.26,-0.02,-0.27,-0.34
2485,-5.71,-0.80,11.88,-0.02,-0.27,-0.34
2491,-5.71,-0.80,11.88,-0.01,-0.21,-0.25
2497,-3.14,-1.68,17.05,-0.01,-0.21,-0.25
2501,-3.14,-1.68,17.05,0.07,0.04,-0.35
2505,0.57,0.57,11.64,0.07,0.04,-0.35
2511,0.57,0.57,11.64,0.03,0.18,-0.60
2516,0.57,0.57,11.64,0.06,0.18,-0.68
2521,0.57,0.57,11.64,0.05,0.15,-0.63
2526,0.57,0.57,11.64,0.00,0.10,-0.52
2531,0.57,0.57,11.64,-0.04,-0.01,-0.39
2536,0.57,0.57,11.64,-0.05,-0.08,-0.37
2541,0.57,0.57,11.64,-0.06,-0.04,-0.46
2546,0.57,0.57,11.64,-0.02,0.05,-0.56
2551,0.57,0.57,11.64,0.06,0.16,-0.60
2556,0.57,0.57,11.64,0.10,0.27,-0.58
2561,0.57,0.57,11.64,0.13,0.31,-0.51
2566,0.57,0.57,11.64,0.17,0.29,-0.44
2571,-0.27,0.42,6.74,0.17,0.29,-0.44
2576,-1.88,1.99,8.43,0.17,0.29,-0.44
2581,-1.88,1.99,8.43,0.09,0.16,-0.31
2586,-1.88,1.99,8.43,0.03,0.18,-0.26
2591,-1.88,1.99,8.43,0.04,0.17,-0.19
2596,-1.88,1.99,8.43,0.08,0.06,-0.08
2601,-1.88,1.99,8.43,0.07,-0.08,-0.05
2606,-1.88,1.99,8.43,0.04,-0.12,-0.13
2611,-1.88,1.99,8.43,0.02,-0.15,-0.24
2616,-1.88,1.99,8.43,0.05,-0.20,-0.27
2621,1.99,-4.79,5.94,0.05,-0.20,-0.27
2625,2.80,-6.47,5.71,0.05,-0.20,-0.27
2631,2.80,-6.47,5.71,0.02,-0.25,-0.16
2636,2.80,-6.47,5.71,0.01,-0.22,-0.14
2640,0.54,-3.64,11.88,0.01,-0.22,-0.14
2646,0.54,-3.64,11.88,0.03,-0.03,-0.23
2652,0.61,-2.57,14.14,0.03,-0.03,-0.23
2656,1.49,-3.71,12.87,0.03,-0.03,-0.23
2660,1.84,-2.49,13.11,0.03,-0.03,-0.23
2666,1.84,-2.49,13.11,0.13,0.18,-0.38
2671,1.84,-2.49,13.11,0.10,0.18,-0.38
2676,-1.34,-1.11,6.51,0.10,0.18,-0.38
2681,-3.03,0.00,7.55,0.10,0.18,-0.38
2686,-3.03,0.00,7.55,-0.04,0.25,-0.42
2691,-3.03,0.00,7.55,-0.06,0.21,-0.43
2696,-1.04,-0.04,9.00,-0.06,0.21,-0.43
2701,-2.18,-0.04,10.07,-0.06,0.21,-0.43
2706,1.11,-0.88,10.04,-0.06,0.21,-0.43
2711,1.11,-0.88,10.04,-0.00,-0.06,-0.42
2716,-5.94,1.27,11.64,-0.00,-0.06,-0.42
2721,-6.93,0.30,8.74,-0.00,-0.06,-0.42
2726,-2.91,1.46,9.12,-0.00,-0.06,-0.42
2731,-2.91,1.46,9.12,0.04,0.38,-0.27
2736,-2.91,1.46,9.12,0.01,0.35,-0.15
2741,-2.91,1.46,9.12,-0.06,0.29,-0.14
2746,3.07,3.48,8.74,-0.06,0.29,-0.14
2751,2.38,1.68,7.55,-0.06,0.29,-0.14
2756,2.38,1.68,7.55,-0.22,-0.19,-0.47
2761,0.42,-2.95,7.55,-0.22,-0.19,-0.47
2765,-2.07,-2.34,7.24,-0.22,-0.19,-0.47
2771,-2.07,-2.34,7.24,-0.21,-0.19,-0.53
2776,-2.07,-2.34,7.24,-0.19,-0.11,-0.46
2781,-1.65,2.41,13.25,-0.19,-0.11,-0.46
2786,0.04,2.64,13.83,-0.19,-0.11,-0.46
2791,0.04,2.64,13.83,-0.16,0.23,-0.62
2796,0.04,2.64,13.83,-0.17,0.31,-0.76
2801,0.04,2.64,13.83,-0.21,0.38,-0.89
2806,0.04,2.64,13.83,-0.23,0.37,-0.94
2811,0.04,2.64,13.83,-0.22,0.29,-0.89
2816,2.95,-0.73,8.46,-0.22,0.29,-0.89
2821,3.56,-0.08,9.50,-0.22,0.29,-0.89
2826,3.56,-0.08,9.50,-0.29,-0.07,-0.84
2831,3.56,-0.08,9.50,-0.33,-0.08,-1.00
2836,1.42,1.76,11.91,-0.33,-0.08,-1.00
2841,1.11,1.04,12.30,-0.33,-0.08,-1.00
2846,1.11,1.04,12.30,-0.31,0.27,-1.24
2850,1.11,1.04,12.30,-0.31,0.38,-1.20
2856,1.11,1.04,12.30,-0.30,0.46,-1.18
2862,2.38,2.26,9.81,-0.30,0.46,-1.18
2866,2.49,0.84,9.77,-0.30,0.46,-1.18
2871,2.14,1.15,10.11,-0.30,0.46,-1.18
2876,2.14,1.15,10.11,-0.29,0.30,-1.28
2881,-1.23,0.80,10.50,-0.29,0.30,-1.28
2885,-1.27,0.69,9.30,-0.29,0.30,-1.28
2891,-1.27,0.69,9.30,-0.26,0.29,-1.15
2896,-1.27,0.69,9.30,-0.28,0.28,-1.12
2901,0.08,1.15,10.31,-0.28,0.28,-1.12
2906,0.54,1.00,10.39,-0.28,0.28,-1.12
2911,0.54,1.00,10.39,-0.28,0.20,-1.18
2916,0.27,-1.72,10.23,-0.28,0.20,-1.18
2921,0.96,-2.80,9.85,-0.28,0.20,-1.18
2926,2.38,-2.99,11.60,-0.28,0.20,-1.18
2931,2.38,-2.99,11.60,-0.23,0.11,-1.05
2936,2.38,-2.99,11.60,-0.19,0.08,-1.03
2941,2.38,-2.99,11.60,-0.16,0.08,-1.08
2946,2.38,-2.99,11.60,-0.13,0.14,-1.18
2951,1.95,-3.79,14.78,-0.13,0.14,-1.18
2955,-0.46,-3.18,11.72,-0.13,0.14,-1.18
2961,-0.46,-3.18,11.72,-0.08,0.64,-1.34
2966,-1.84,-2.80,8.12,-0.08,0.64,-1.34
2971,-1.84,-2.80,8.12,-0.06,0.83,-1.11
2976,-1.15,-1.42,6.66,-0.06,0.83,-1.11
2981,-0.65,-1.72,9.46,-0.06,0.83,-1.11
2985,-0.30,-2.26,9.69,-0.06,0.83,-1.11
2991,-0.30,-2.26,9.69,-0.03,0.43,-1.04
2996,-0.30,-2.26,9.69,0.03,0.33,-1.01
3001,-3.95,-3.83,8.39,0.03,0.33,-1.01
3005,-4.98,-3.18,6.51,0.03,0.33,-1.01
3011,-4.98,-3.18,6.51,0.17,0.32,-0.59
3016,-4.98,-3.18,6.51,0.17,0.30,-0.42
3021,-3.98,0.15,5.86,0.17,0.30,-0.42
3025,-3.98,0.15,5.86,0.11,0.17,-0.28
3030,-2.30,0.42,7.55,0.11,0.17,-0.28
3035,0.08,-1.19,11.15,0.11,0.17,-0.28
3041,0.08,-1.19,11.15,0.14,0.03,-0.27
3046,1.07,-3.29,13.83,0.14,0.03,-0.27
3051,0.96,-3.91,13.49,0.14,0.03,-0.27
3055,0.54,-3.71,13.59,0.14,0.03,-0.27
3061,0.54,-3.71,13.59,0.25,0.14,-0.21
3066,0.54,-3.71,13.59,0.27,0.31,-0.21
3071,-0.38,-0.69,9.04,0.27,0.31,-0.21
3075,-1.30,-0.73,8.58,0.27,0.31,-0.21
3081,-1.30,-0.73,8.58,0.19,0.60,-0.22
3086,-1.38,-1.11,7.24,0.19,0.60,-0.22
3091,-3.14,-1.84,7.17,0.19,0.60,-0.22
3096,-3.68,-2.34,6.36,0.19,0.60,-0.22
3101,-3.68,-2.34,6.36,0.15,0.49,-0.29
3106,-3.68,-2.34,6.36,0.15,0.41,-0.22
3111,-3.68,-2.34,6.36,0.14,0.34,-0.17
3116,-3.91,-0.96,5.32,0.14,0.34,-0.17
3121,-3.37,-0.23,8.28,0.14,0.34,-0.17
3125,-3.10,-0.42,8.78,0.14,0.34,-0.17
3132,-3.10,-0.42,8.78,0.13,0.19,-0.13
3136,-3.10,-0.42,8.78,0.14,0.22,-0.10
3141,-3.71,1.65,11.91,0.14,0.22,-0.10
3146,-1.99,1.30,11.57,0.14,0.22,-0.10
3151,-3.14,1.65,10.50,0.14,0.22,-0.10
3156,0.08,1.19,9.73,0.14,0.22,-0.10
3160,2.49,0.30,9.65,0.14,0.22,-0.10
3167,2.49,0.30,9.65,0.06,0.06,-0.15
3171,2.49,0.30,9.65,0.00,0.01,-0.15
3176,0.88,-0.46,9.92,0.00,0.01,-0.15
3181,1.19,-0.42,9.73,0.00,0.01,-0.15
3186,2.45,-1.04,10.80,0.00,0.01,-0.15
3191,3.64,-2.41,12.02,0.00,0.01,-0.15
3196,2.38,-2.34,11.76,0.00,0.01,-0.15
3201,4.21,-2.68,12.18,0.00,0.01,-0.15
3206,3.48,-2.84,10.92,0.00,0.01,-0.15
3211,2.99,-2.72,9.35,0.00,0.01,-0.15
3216,2.07,-1.38,8.62,0.00,0.01,-0.15
3221,0.38,-1.38,6.29,0.00,0.01,-0.15
3226,0.38,-1.38,6.29,-0.10,0.31,-0.64
3231,0.73,-0.50,8.46,-0.10,0.31,-0.64
3236,0.57,0.69,9.23,-0.10,0.31,-0.64
3241,0.57,0.69,9.23,-0.12,0.24,-0.68
3246,0.84,-0.30,11.26,-0.12,0.24,-0.68
3251,1.07,-0.38,10.61,-0.12,0.24,-0.68
3256,1.23,-0.54,9.73,-0.12,0.24,-0.68
3261,3.14,-1.65,10.38,-0.12,0.24,-0.68
3266,2.49,-1.23,10.80,-0.12,0.24,-0.68
3271,3.18,-0.84,9.61,-0.12,0.24,-0.68
3276,3.18,-0.84,9.61,-0.11,0.11,-0.94
3281,3.18,-0.84,9.61,-0.13,0.16,-1.01
3287,-0.54,0.96,10.35,-0.13,0.16,-1.01
3291,-1.72,2.76,8.27,-0.13,0.16,-1.01
3296,-0.08,2.49,9.38,-0.13,0.16,-1.01
3301,0.15,2.11,8.16,-0.13,0.16,-1.01
3306,1.61,2.68,8.70,-0.13,0.16,-1.01
3311,3.03,1.76,9.12,-0.13,0.16,-1.01
3316,4.25,0.69,11.64,-0.13,0.16,-1.01
3321,5.21,0.27,12.53,-0.13,0.16,-1.01
3326,3.52,0.23,12.26,-0.13,0.16,-1.01
3331,0.23,-1.46,12.07,-0.13,0.16,-1.01
3336,-0.77,-0.23,12.22,-0.13,0.16,-1.01
3341,-1.49,-0.27,10.07,-0.13,0.16,-1.01
3346,-5.13,1.53,7.85,-0.13,0.16,-1.01
3351,-3.14,2.84,8.20,-0.13,0.16,-1.01
3356,-1.65,3.07,8.82,-0.13,0.16,-1.01
3361,-1.65,3.07,8.82,-0.12,0.49,-0.96
3365,4.60,-0.77,15.02,-0.12,0.49,-0.96
3370,4.60,-0.77,15.02,-0.04,0.11,-1.12
3376,4.37,-1.07,15.55,-0.04,0.11,-1.12
3381,4.37,-1.07,15.55,-0.04,0.09,-1.16
3386,-1.23,-4.94,11.88,-0.04,0.09,-1.16
3391,-4.10,-2.22,8.16,-0.04,0.09,-1.16
3396,-4.71,-0.19,6.82,-0.04,0.09,-1.16
3401,-2.30,1.04,7.05,-0.04,0.09,-1.16
3406,-1.65,1.91,6.71,-0.04,0.09,-1.16
3411,-0.57,1.07,8.35,-0.04,0.09,-1.16
3416,0.23,-1.34,10.07,-0.04,0.09,-1.16
3421,0.23,-1.34,10.07,0.02,0.18,-0.93
3425,-1.27,-5.25,11.57,0.02,0.18,-0.93
3431,-1.27,-5.25,11.57,0.09,0.16,-0.85
3437,-1.30,-4.90,12.02,0.09,0.16,-0.85
3441,-1.30,-4.90,12.02,0.23,0.25,-0.46
3446,1.23,-2.49,12.64,0.23,0.25,-0.46
3451,2.38,-0.38,13.63,0.23,0.25,-0.46
3456,1.19,-0.46,13.10,0.23,0.25,-0.46
3461,-0.42,-1.49,12.91,0.23,0.25,-0.46
3466,-0.34,-3.48,12.03,0.23,0.25,-0.46
3471,-2.18,-3.26,12.18,0.23,0.25,-0.46
3476,-2.18,-3.26,12.18,0.21,0.63,-0.54
3480,-3.48,-3.37,8.77,0.21,0.63,-0.54
3486,-3.48,-3.37,8.77,0.22,0.72,-0.47
3491,-1.15,-0.57,8.89,0.22,0.72,-0.47
3496,-0.73,-1.27,8.04,0.22,0.72,-0.47
3501,0.23,-1.57,8.08,0.22,0.72,-0.47
3506,0.04,-2.49,7.89,0.22,0.72,-0.47
3511,-2.22,-2.49,7.66,0.22,0.72,-0.47
3516,-3.52,-3.52,7.32,0.22,0.72,-0.47
3521,-3.07,-3.03,5.98,0.22,0.72,-0.47
3526,-3.07,-3.03,5.98,0.23,0.20,-0.15
3531,-2.91,1.07,7.97,0.23,0.20,-0.15
3536,-0.38,1.34,9.77,0.23,0.20,-0.15
3541,1.53,0.57,11.19,0.23,0.20,-0.15
3546,4.10,-0.46,13.33,0.23,0.20,-0.15
3551,5.13,-1.57,14.02,0.23,0.20,-0.15
3557,4.10,-4.06,13.53,0.23,0.20,-0.15
3561,4.10,-4.06,13.53,0.22,0.12,-0.60
3566,-2.87,-1.91,7.47,0.22,0.12,-0.60
3571,-4.83,-0.84,5.98,0.22,0.12,-0.60
3576,-5.29,0.61,4.33,0.22,0.12,-0.60
3581,-5.09,2.76,3.03,0.22,0.12,-0.60
3586,-5.56,4.06,2.87,0.22,0.12,-0.60
3591,-1.61,4.21,4.10,0.22,0.12,-0.60
3596,-1.61,4.21,4.10,0.01,0.27,-0.62
3601,-1.61,4.21,4.10,0.02,-0.01,-0.68
3606,5.40,-3.22,10.88,0.02,-0.01,-0.68
3611,5.63,-4.14,12.14,0.02,-0.01,-0.68
3616,6.63,-4.60,14.18,0.02,-0.01,-0.68
3620,5.52,-3.41,17.12,0.02,-0.01,-0.68
3626,5.52,-3.41,17.12,0.19,-0.40,-0.57
3631,5.52,-3.41,17.12,0.18,-0.01,-0.74
3635,-0.77,1.99,14.14,0.18,-0.01,-0.74
3641,-0.77,1.99,14.14,0.15,0.28,-0.87
3647,-2.18,1.76,10.65,0.15,0.28,-0.87
3651,-1.15,2.07,8.82,0.15,0.28,-0.87
3656,-1.19,2.22,7.09,0.15,0.28,-0.87
3661,-0.96,1.46,6.13,0.15,0.28,-0.87
3667,-2.11,1.23,5.48,0.15,0.28,-0.87
3671,1.53,-1.80,9.16,0.15,0.28,-0.87
3676,3.41,-1.15,10.11,0.15,0.28,-0.87
3681,3.60,-2.53,11.41,0.15,0.28,-0.87
3686,3.83,-1.84,12.52,0.15,0.28,-0.87
3691,3.83,-1.99,12.06,0.15,0.28,-0.87
3696,2.49,-1.19,12.83,0.15,0.28,-0.87
3702,0.23,-0.77,11.88,0.15,0.28,-0.87
3706,-0.46,-0.73,10.95,0.15,0.28,-0.87
3711,-1.27,-0.77,9.50,0.15,0.28,-0.87
3716,-0.04,0.54,9.80,0.15,0.28,-0.87
3721,0.04,1.04,10.03,0.15,0.28,-0.87
3726,2.14,1.42,10.92,0.15,0.28,-0.87
3731,2.14,1.42,10.92,0.06,0.29,-1.00
3736,2.14,1.42,10.92,0.06,0.29,-1.08
3741,-0.69,-4.10,9.80,0.06,0.29,-1.08
3747,-1.88,-5.55,9.12,0.06,0.29,-1.08
3751,-1.88,-5.55,9.12,0.22,0.38,-0.95
3756,-7.23,-1.95,2.91,0.22,0.38,-0.95
3761,-11.68,0.73,-0.46,0.22,0.38,-0.95
3767,-11.26,0.65,-1.30,0.22,0.38,-0.95
3771,-11.26,0.65,-1.30,0.21,0.40,-0.49
3776,7.43,1.00,19.08,0.21,0.40,-0.49
3782,11.64,-1.80,24.44,0.21,0.40,-0.49
3786,11.64,-1.80,24.44,0.38,-0.52,-0.38
3791,8.85,-7.62,22.75,0.38,-0.52,-0.38
3796,3.26,-7.20,18.70,0.38,-0.52,-0.38
3801,1.30,-7.82,15.82,0.38,-0.52,-0.38
3806,-2.57,-3.64,10.45,0.38,-0.52,-0.38
3811,-6.25,3.22,4.45,0.38,-0.52,-0.38
3817,-7.39,7.16,3.91,0.38,-0.52,-0.38
3821,-7.39,7.16,3.91,0.18,1.39,-0.42
3826,-8.70,6.44,9.50,0.18,1.39,-0.42
3831,-10.77,2.45,11.42,0.18,1.39,-0.42
3836,-7.85,-1.00,12.07,0.18,1.39,-0.42
3840,-7.85,-1.00,12.07,0.39,0.72,-0.61
3845,-6.13,-7.66,7.59,0.39,0.72,-0.61
3850,-6.13,-7.66,7.59,0.54,0.54,-0.41
3856,-6.13,-7.66,7.59,0.63,0.38,-0.11
3862,-6.13,-7.66,7.59,0.61,0.17,0.21
3866,0.23,1.00,6.97,0.61,0.17,0.21
3871,0.23,1.00,6.97,0.34,-0.33,0.26
3876,0.23,-0.96,11.30,0.34,-0.33,0.26
3881,-0.80,-1.84,12.02,0.34,-0.33,0.26
3887,-2.26,-1.27,14.36,0.34,-0.33,0.26
3891,-2.26,-1.27,14.36,0.29,-0.07,-0.11
3896,1.53,-1.76,14.59,0.29,-0.07,-0.11
3901,0.04,-1.84,12.60,0.29,-0.07,-0.11
3907,0.42,-1.15,12.30,0.29,-0.07,-0.11
3911,3.56,-2.64,8.20,0.29,-0.07,-0.11
3916,2.95,-1.91,7.35,0.29,-0.07,-0.11
3921,1.11,-3.26,6.82,0.29,-0.07,-0.11
3927,0.27,-2.45,6.16,0.29,-0.07,-0.11
3931,-2.34,-2.34,2.03,0.29,-0.07,-0.11
3937,-3.68,-1.65,3.26,0.29,-0.07,-0.11
3941,-3.68,-1.65,3.26,0.19,0.40,-0.32
3946,3.03,-1.57,7.89,0.19,0.40,-0.32
3952,5.44,-2.68,10.88,0.19,0.40,-0.32
3956,5.44,-2.68,10.88,0.27,-0.21,-0.37
3961,5.44,-2.68,10.88,0.30,-0.37,-0.38
3966,11.99,-5.17,14.21,0.30,-0.37,-0.38
3972,10.00,-5.40,12.98,0.30,-0.37,-0.38
3976,10.00,-5.40,12.98,0.54,0.12,-0.56
3981,10.00,-5.40,12.98,0.40,0.88,-0.56
3987,-14.86,2.30,8.16,0.40,0.88,-0.56
3991,-14.86,2.30,8.16,0.41,1.57,-0.63
3996,-14.86,2.30,8.16,0.33,1.65,-0.58
4001,-3.10,4.60,12.99,0.33,1.65,-0.58
4007,2.45,1.68,14.29,0.33,1.65,-0.58
4011,2.45,1.68,14.29,0.29,0.19,-0.01
4016,11.84,-3.22,10.11,0.29,0.19,-0.01
4021,11.46,-3.75,6.86,0.29,0.19,-0.01
4027,6.21,-6.47,4.90,0.29,0.19,-0.01
4031,6.21,-6.47,4.90,0.33,-0.44,-0.47
4036,-4.33,-5.32,6.05,0.33,-0.44,-0.47
4041,-8.58,-1.23,9.30,0.33,-0.44,-0.47
4047,-15.16,1.76,12.26,0.33,-0.44,-0.47
4051,7.39,4.64,15.94,0.33,-0.44,-0.47
4056,13.37,4.37,14.05,0.33,-0.44,-0.47
4061,13.37,4.37,14.05,0.08,-0.40,-0.12
4066,13.37,4.37,14.05,0.09,-0.50,-0.36
4072,5.44,-6.51,4.29,0.09,-0.50,-0.36
4076,5.44,-6.51,4.29,0.29,-0.20,-0.75
4081,5.44,-6.51,4.29,0.44,0.15,-0.70
4086,-5.25,-2.45,8.01,0.44,0.15,-0.70
4092,-4.52,-0.88,9.85,0.44,0.15,-0.70
4096,-4.52,-0.88,9.85,0.36,0.51,-0.01
4101,-4.52,-0.88,9.85,0.29,0.41,0.06
4107,0.38,1.34,14.10,0.29,0.41,0.06
4111,0.38,1.34,14.10,0.23,0.10,-0.22
4116,0.38,1.34,14.10,0.34,-0.01,-0.38
4121,0.38,1.34,14.10,0.38,-0.13,-0.39
4127,-4.10,-7.85,5.79,0.38,-0.13,-0.39
4131,-4.10,-7.85,5.79,0.46,-0.10,-0.01
4136,-3.18,-1.95,7.66,0.46,-0.10,-0.01
4141,-4.18,1.49,10.11,0.46,-0.10,-0.01
4147,-0.92,3.03,10.27,0.46,-0.10,-0.01
4151,-0.92,3.03,10.27,0.26,-0.01,0.11
4156,-0.50,-1.42,9.30,0.26,-0.01,0.11
4162,-2.91,-1.57,9.04,0.26,-0.01,0.11
4166,-2.91,-1.57,9.04,0.34,0.13,-0.21
4171,-10.15,-1.23,3.71,0.34,0.13,-0.21
4176,-8.32,-1.57,6.78,0.34,0.13,-0.21
4181,-8.32,-1.57,6.78,0.39,0.39,0.37
4186,-8.32,-1.57,6.78,0.39,0.26,0.53
4191,2.41,-0.80,14.14,0.39,0.26,0.53
4197,4.67,-0.96,14.48,0.39,0.26,0.53
4201,4.67,-0.96,14.48,0.36,-0.30,0.19
4206,-0.77,-5.32,11.41,0.36,-0.30,0.19
4212,-2.57,-4.94,8.77,0.36,-0.30,0.19
4216,-2.57,-4.94,8.77,0.39,-0.11,-0.06
4221,-2.57,-4.94,8.77,0.37,0.02,0.07
4227,-5.40,1.46,9.58,0.37,0.02,0.07
4231,-5.40,1.46,9.58,0.23,0.21,0.20
4236,-5.40,1.46,9.58,0.19,0.13,0.10
4241,-5.40,1.46,9.58,0.13,-0.00,-0.09
4247,5.02,-0.69,14.09,0.13,-0.00,-0.09
4251,5.02,-0.69,14.09,0.16,-0.06,-0.52
4256,-2.45,-5.29,8.54,0.16,-0.06,-0.52
4261,-4.02,-5.09,6.29,0.16,-0.06,-0.52
4267,-3.95,-2.61,6.20,0.16,-0.06,-0.52
4271,-3.95,-2.61,6.20,0.27,0.28,-0.16
4276,1.76,2.57,9.30,0.27,0.28,-0.16
4282,3.48,3.14,10.19,0.27,0.28,-0.16
4286,3.48,3.14,10.19,0.11,-0.06,-0.25
4291,1.27,-1.00,9.69,0.11,-0.06,-0.25
4297,1.49,-2.38,9.42,0.11,-0.06,-0.25
4301,1.49,-2.38,9.42,0.21,-0.13,-0.54
4306,1.49,-2.38,9.42,0.24,-0.04,-0.39
4311,-1.46,0.46,7.86,0.24,-0.04,-0.39
4316,-2.76,2.64,8.66,0.24,-0.04,-0.39
4320,-2.76,2.64,8.66,0.16,0.12,-0.04
4326,-2.76,2.64,8.66,0.11,0.08,-0.12
4330,2.38,1.65,9.50,0.11,0.08,-0.12
4336,2.38,1.65,9.50,0.10,-0.02,-0.23
4342,2.38,1.65,9.50,0.10,-0.09,-0.33
4347,-2.95,-1.84,7.63,0.10,-0.09,-0.33
4351,-2.95,-1.84,7.63,0.17,0.06,-0.19
4356,-2.95,-1.84,7.63,0.17,0.14,-0.08
4361,-2.95,-1.84,7.63,0.17,0.14,0.00
4367,-0.42,2.22,7.74,0.17,0.14,0.00
4371,-0.42,2.22,7.74,0.08,-0.02,-0.11
4376,-0.42,2.22,7.74,0.07,-0.16,-0.22
4381,-0.42,2.22,7.74,0.10,-0.26,-0.30
4387,4.14,-4.71,14.09,0.10,-0.26,-0.30
4391,4.14,-4.71,14.09,0.12,-0.25,-0.30
4396,4.14,-4.71,14.09,0.16,-0.13,-0.24
4402,-4.71,-2.26,9.04,0.16,-0.13,-0.24
4406,-4.71,-2.26,9.04,0.17,0.30,-0.14
4411,-4.71,-2.26,9.04,0.15,0.46,-0.10
4417,-2.87,1.38,8.23,0.15,0.46,-0.10
4421,-2.87,1.38,8.23,0.12,0.38,-0.14
4426,-2.87,1.38,8.23,0.07,0.16,-0.20
4431,1.76,-2.64,9.16,0.07,0.16,-0.20
4437,0.69,-3.18,8.84,0.07,0.16,-0.20
4441,0.69,-3.18,8.84,0.14,-0.22,-0.18
4446,0.69,-3.18,8.84,0.18,-0.17,-0.08
4452,-2.57,0.00,9.27,0.18,-0.17,-0.08
4456,-2.57,0.00,9.27,0.21,-0.00,0.07
4461,-2.57,0.00,9.27,0.18,0.02,0.06
4466,-2.57,0.73,10.35,0.18,0.02,0.06
4472,1.23,-0.73,11.26,0.18,0.02,0.06
4476,1.23,-0.73,11.26,0.10,-0.11,-0.13
4481,1.23,-0.73,11.26,0.10,-0.18,-0.12
4487,1.80,-1.11,11.45,0.10,-0.18,-0.12
4491,1.80,-1.11,11.45,0.11,-0.10,-0.07
4496,1.80,-1.11,11.45,0.11,0.01,-0.06
4501,1.80,-1.11,11.45,0.10,0.11,-0.07
4507,-0.19,-0.50,9.88,0.10,0.11,-0.07
4511,-0.19,-0.50,9.88,0.08,0.14,-0.10
4516,-0.19,-0.50,9.88,0.07,0.10,-0.10
4522,-0.42,-0.27,9.54,0.07,0.10,-0.10
4526,-0.42,-0.27,9.54,0.05,0.04,-0.11
4531,-0.42,-0.27,9.54,0.04,0.08,-0.12
4536,-1.42,0.57,9.34,0.04,0.08,-0.12
4542,-2.84,0.84,9.38,0.04,0.08,-0.12
4546,-2.84,0.84,9.38,0.01,0.08,-0.09
4551,-2.84,0.84,9.38,0.02,0.04,-0.10
4557,-2.68,1.38,9.85,0.02,0.04,-0.10
4561,-2.68,1.38,9.85,0.01,0.05,-0.14
4566,-2.68,1.38,9.85,0.02,0.07,-0.14
4572,-1.19,0.77,8.39,0.02,0.07,-0.14
4576,-1.19,0.77,8.39,-0.01,0.07,-0.18
4581,-1.19,0.77,8.39,-0.02,0.07,-0.20
4586,-1.19,0.77,8.39,-0.05,0.07,-0.21
4592,-2.30,1.76,10.41,-0.05,0.07,-0.21
4596,-2.30,1.76,10.41,-0.03,0.14,-0.23
4601,-2.30,1.76,10.41,-0.05,0.17,-0.25
4607,-1.53,-0.11,9.54,-0.05,0.17,-0.25
4611,-1.53,-0.11,9.54,-0.06,0.12,-0.31
4616,-1.53,-0.11,9.54,-0.07,0.06,-0.33
4621,-1.53,-0.11,9.54,-0.05,0.01,-0.33
4627,0.61,1.38,6.59,-0.05,0.01,-0.33
4631,0.61,1.38,6.59,-0.06,-0.08,-0.31
4636,0.61,1.38,6.59,-0.09,-0.09,-0.33
4641,0.61,1.38,6.59,-0.10,-0.09,-0.36
4647,-1.30,1.00,7.81,-0.10,-0.09,-0.36
4651,-1.30,1.00,7.81,-0.10,0.02,-0.43
4656,-1.30,1.00,7.81,-0.09,0.06,-0.44
4663,0.27,-0.50,9.00,-0.09,0.06,-0.44
4666,0.27,-0.50,9.00,-0.08,0.01,-0.40
4671,0.27,-0.50,9.00,-0.08,-0.06,-0.43
4677,3.71,-0.73,13.59,-0.08,-0.06,-0.43
4681,3.71,-0.73,13.59,-0.07,-0.08,-0.54
4686,3.71,-0.73,13.59,-0.06,0.01,-0.58
4691,-1.57,-1.46,10.30,-0.06,0.01,-0.58
4697,-1.19,-0.73,10.88,-0.06,0.01,-0.58
4701,-1.19,-0.73,10.88,-0.04,0.33,-0.46
4706,-1.19,-0.73,10.88,-0.04,0.31,-0.46
4712,2.30,0.34,14.02,-0.04,0.31,-0.46
4716,2.30,0.34,14.02,-0.07,0.18,-0.59
4721,2.30,0.34,14.02,-0.07,0.14,-0.63
4727,3.33,-0.61,11.34,-0.07,0.14,-0.63
4732,-2.68,-0.80,6.97,-0.07,0.14,-0.63
4736,-2.68,-0.80,6.97,0.03,0.27,-0.45
4741,-2.68,-0.80,6.97,0.04,0.27,-0.38
4747,0.69,0.69,8.42,0.04,0.27,-0.38
4751,0.69,0.69,8.42,-0.01,0.08,-0.41
4756,0.69,0.69,8.42,-0.01,-0.04,-0.48
4761,0.69,0.69,8.42,-0.02,-0.12,-0.50
4767,-4.02,-0.42,7.24,-0.02,-0.12,-0.50
4771,-4.02,-0.42,7.24,0.02,-0.04,-0.43
4776,-4.02,-0.42,7.24,0.04,0.01,-0.38
4782,-1.11,-0.80,6.05,0.04,0.01,-0.38
4786,-1.11,-0.80,6.05,0.01,-0.01,-0.43
4791,-1.11,-0.80,6.05,0.01,-0.07,-0.45
4796,1.11,-0.04,8.50,0.01,-0.07,-0.45
4803,2.14,-0.88,10.00,0.01,-0.07,-0.45
4806,2.14,-0.88,10.00,-0.02,-0.29,-0.46
4811,2.72,-0.34,13.68,-0.02,-0.29,-0.46
4817,2.45,-0.19,13.98,-0.02,-0.29,-0.46
4821,2.45,-0.19,13.98,0.01,-0.09,-0.47
4826,2.45,-0.19,13.98,0.04,0.09,-0.46
4832,-1.91,-1.68,5.82,0.04,0.09,-0.46
4836,-1.91,-1.68,5.82,0.06,0.26,-0.42
4841,-1.91,-1.68,5.82,0.07,0.22,-0.37
4846,-1.91,-1.68,5.82,0.05,0.14,-0.34
4852,0.00,-0.38,10.41,0.05,0.14,-0.34
4856,0.00,-0.38,10.41,0.04,-0.03,-0.36
4861,0.00,-0.38,10.41,0.05,-0.04,-0.38
4867,1.80,-2.99,12.56,0.05,-0.04,-0.38
4871,1.80,-2.99,12.56,0.15,0.02,-0.26
4876,1.80,-2.99,12.56,0.18,0.12,-0.18
4881,1.80,-2.99,12.56,0.21,0.19,-0.15
4887,-8.20,-0.34,5.44,0.21,0.19,-0.15
4891,-8.20,-0.34,5.44,0.19,0.27,-0.22
4896,-8.20,-0.34,5.44,0.18,0.20,-0.24
4901,-8.20,-0.34,5.44,0.19,0.06,-0.24
4907,1.68,-2.84,12.14,0.19,0.06,-0.24
4912,1.68,-2.84,12.14,0.16,-0.20,-0.17
4916,0.50,-1.80,12.72,0.16,-0.20,-0.17
4922,-2.38,-1.84,12.11,0.16,-0.20,-0.17
4926,-2.38,-1.84,12.11,0.20,-0.00,-0.33
4931,-2.38,-1.84,12.11,0.21,0.12,-0.35
4937,0.65,-4.29,10.07,0.21,0.12,-0.35
4941,0.65,-4.29,10.07,0.23,0.06,-0.24
4946,0.65,-4.29,10.07,0.25,-0.02,-0.22
4852,0.00,-0.38,10.41,0.05,0.14,-0.34
4856,0.00,-0.38,10.41,0.04,-0.03,-0.36
4861,0.00,-0.38,10.41,0.05,-0.04,-0.38
4867,1.80,-2.99,12.56,0.05,-0.04,-0.38
4871,1.80,-2.99,12.56,0.15,0.02,-0.26
4876,1.80,-2.99,12.56,0.18,0.12,-0.18
4881,1.80,-2.99,12.56,0.21,0.19,-0.15
4887,-8.20,-0.34,5.44,0.21,0.19,-0.15
4891,-8.20,-0.34,5.44,0.19,0.27,-0.22
4896,-8.20,-0.34,5.44,0.18,0.20,-0.24
4901,-8.20,-0.34,5.44,0.19,0.06,-0.24
