timestamp,accX,accY,accZ,gyroX,gyroY,gyroZ
Right
6,3.22,2.99,8.42,0.00,0.00,0.00
19,3.22,2.99,8.42,0.00,0.00,0.00
21,3.22,2.99,8.42,-0.14,-0.16,-0.17
23,0.19,-0.42,11.72,-0.14,-0.16,-0.17
26,0.19,-0.42,11.72,-0.12,0.21,-0.06
31,1.76,-0.77,11.84,-0.12,0.21,-0.06
37,1.76,-0.77,11.84,-0.14,0.14,-0.09
43,3.98,-0.08,11.15,-0.14,0.14,-0.09
47,3.98,-0.08,11.15,-0.13,-0.06,-0.19
52,3.98,-0.08,11.15,-0.11,-0.05,-0.15
57,3.98,-0.08,11.15,-0.10,0.04,-0.08
62,3.98,-0.08,11.15,-0.12,0.19,-0.03
67,3.98,-0.08,11.15,-0.13,0.32,-0.03
72,3.98,-0.08,11.15,-0.15,0.34,-0.03
78,-0.27,0.65,10.69,-0.15,0.34,-0.03
82,-0.27,0.65,10.69,-0.18,0.05,-0.04
87,-0.27,0.65,10.69,-0.16,-0.15,-0.06
92,-0.27,0.65,10.69,-0.16,-0.30,-0.05
97,-0.27,0.65,10.69,-0.15,-0.37,-0.03
102,-0.27,0.65,10.69,-0.13,-0.34,0.00
106,-0.27,0.65,10.69,-0.12,-0.27,0.04
112,-0.30,-1.80,8.66,-0.12,-0.27,0.04
117,-0.30,-1.80,8.66,-0.09,-0.08,0.08
122,-0.30,-1.80,8.66,-0.09,-0.01,0.07
127,-0.30,-1.80,8.66,-0.11,0.07,0.04
132,-0.30,-1.80,8.66,-0.10,0.13,-0.01
137,-0.30,-1.80,8.66,-0.10,0.17,-0.03
141,-0.30,-1.80,8.66,-0.10,0.20,-0.02
147,-0.96,-1.65,9.27,-0.10,0.20,-0.02
152,-0.96,-1.65,9.27,-0.05,0.22,0.05
157,-0.96,-1.65,9.27,-0.04,0.22,0.07
162,-0.96,-1.65,9.27,-0.04,0.22,0.06
167,-0.96,-1.65,9.27,-0.04,0.24,0.04
172,-0.96,-1.65,9.27,-0.06,0.25,0.03
176,-0.96,-1.65,9.27,-0.09,0.19,0.04
182,3.45,-1.04,10.45,-0.09,0.19,0.04
187,3.45,-1.04,10.45,-0.10,-0.30,0.08
192,3.45,-1.04,10.45,-0.14,-0.56,0.10
197,3.45,-1.04,10.45,-0.12,-0.72,0.07
202,3.45,-1.04,10.45,-0.08,-0.72,0.03
207,3.45,-1.04,10.45,0.08,-0.33,-0.01
211,3.45,-1.04,10.45,0.03,0.41,0.00
217,-7.93,-1.68,14.09,0.03,0.41,0.00
222,-7.93,-1.68,14.09,0.03,0.91,-0.05
227,-7.93,-1.68,14.09,-0.03,0.81,-0.02
232,-7.93,-1.68,14.09,-0.11,0.56,-0.00
237,-7.93,-1.68,14.09,-0.18,0.25,-0.07
242,-7.93,-1.68,14.09,-0.16,-0.07,-0.17
247,-7.93,-1.68,14.09,-0.18,-0.24,-0.23
252,-7.93,-1.68,14.09,-0.17,-0.27,-0.25
257,-7.93,-1.68,14.09,-0.19,-0.17,-0.22
262,-7.93,-1.68,14.09,-0.17,-0.02,-0.20
267,-7.09,0.50,8.46,-0.17,-0.02,-0.20
272,-7.09,0.50,8.46,-0.12,0.17,-0.10
277,-7.09,0.50,8.46,-0.11,0.10,-0.06
282,-7.09,0.50,8.46,-0.13,-0.06,-0.07
287,-7.09,0.50,8.46,-0.13,-0.26,-0.11
292,-7.09,0.50,8.46,-0.12,-0.43,-0.14
296,-7.09,0.50,8.46,-0.09,-0.48,-0.18
302,1.80,0.15,14.71,-0.09,-0.48,-0.18
307,1.80,0.15,14.71,-0.07,-0.23,-0.21
312,1.80,0.15,14.71,-0.09,-0.04,-0.20
317,1.80,0.15,14.71,-0.12,0.16,-0.19
322,1.80,0.15,14.71,-0.16,0.32,-0.21
327,1.80,0.15,14.71,-0.21,0.41,-0.25
331,1.80,0.15,14.71,-0.26,0.42,-0.29
337,-0.96,0.77,5.32,-0.26,0.42,-0.29
342,-0.96,0.77,5.32,-0.30,0.36,-0.28
347,-0.96,0.77,5.32,-0.31,0.34,-0.24
352,-0.96,0.77,5.32,-0.29,0.29,-0.17
357,-0.96,0.77,5.32,-0.28,0.17,-0.09
362,-0.96,0.77,5.32,-0.27,0.02,-0.09
366,-0.96,0.77,5.32,-0.18,-0.13,-0.07
372,5.55,-5.52,11.03,-0.18,-0.13,-0.07
377,5.55,-5.52,11.03,-0.02,-0.57,0.40
382,5.55,-5.52,11.03,-0.04,-0.55,0.38
387,5.55,-5.52,11.03,-0.10,-0.56,0.26
392,5.55,-5.52,11.03,-0.07,-0.42,0.16
397,5.55,-5.52,11.03,-0.02,-0.17,0.15
401,5.55,-5.52,11.03,-0.07,0.02,0.29
407,-3.07,-2.14,9.27,-0.07,0.02,0.29
412,-3.07,-2.14,9.27,-0.12,0.25,0.40
417,-3.07,-2.14,9.27,-0.15,0.21,0.32
422,-3.07,-2.14,9.27,-0.17,0.17,0.21
427,-3.07,-2.14,9.27,-0.20,0.10,0.18
432,-3.07,-2.14,9.27,-0.21,-0.04,0.22
436,-3.07,-2.14,9.27,-0.17,-0.10,0.24
442,7.47,-4.86,12.11,-0.17,-0.10,0.24
447,7.47,-4.86,12.11,-0.12,-0.15,0.21
452,7.47,-4.86,12.11,-0.05,-0.02,0.19
457,7.47,-4.86,12.11,-0.06,0.25,0.17
462,7.47,-4.86,12.11,-0.07,0.40,0.26
467,7.47,-4.86,12.11,-0.01,0.55,0.36
471,7.47,-4.86,12.11,-0.04,0.63,0.41
477,5.55,0.04,8.50,-0.04,0.63,0.41
482,5.55,0.04,8.50,-0.10,0.09,0.49
487,5.55,0.04,8.50,-0.13,-0.26,0.38
492,5.55,0.04,8.50,-0.15,-0.52,0.20
497,5.55,0.04,8.50,-0.12,-0.64,0.13
502,5.55,0.04,8.50,-0.08,-0.50,0.15
506,5.55,0.04,8.50,-0.12,-0.20,0.23
512,-4.33,1.76,12.38,-0.12,-0.20,0.23
517,-4.33,1.76,12.38,-0.19,0.33,0.32
521,-4.33,1.76,12.38,-0.24,0.48,0.25
527,-4.33,1.76,12.38,-0.32,0.50,0.15
532,-4.33,1.76,12.38,-0.38,0.43,0.05
537,-4.33,1.76,12.38,-0.40,0.25,-0.03
541,-4.33,1.76,12.38,-0.38,0.05,-0.07
547,-1.04,-0.69,5.64,-0.38,0.05,-0.07
551,-1.04,-0.69,5.64,-0.36,-0.19,-0.05
556,-1.04,-0.69,5.64,-0.32,-0.21,-0.00
561,-3.60,0.84,13.68,-0.32,-0.21,-0.00
567,-3.60,0.84,13.68,-0.31,-0.16,0.01
572,-3.60,0.84,13.68,-0.32,-0.09,-0.05
577,-3.60,0.84,13.68,-0.38,0.08,-0.30
582,-3.60,0.84,13.68,-0.41,0.15,-0.39
587,-3.60,0.84,13.68,-0.45,0.18,-0.42
591,-3.60,0.84,13.68,-0.54,0.17,-0.42
597,-1.49,2.95,3.53,-0.54,0.17,-0.42
602,-1.49,2.95,3.53,-0.63,0.06,-0.55
607,-1.49,2.95,3.53,-0.63,-0.04,-0.59
611,-1.49,2.95,3.53,-0.61,-0.15,-0.54
617,2.41,4.25,9.16,-0.61,-0.15,-0.54
622,2.41,4.25,9.16,-0.61,-0.21,-0.54
626,2.41,4.25,9.16,-0.59,-0.15,-0.62
632,1.00,0.23,12.95,-0.59,-0.15,-0.62
637,1.00,0.23,12.95,-0.50,0.08,-0.60
641,1.00,0.23,12.95,-0.48,0.18,-0.50
647,1.00,0.23,12.95,-0.46,0.23,-0.41
652,2.64,2.34,13.14,-0.46,0.23,-0.41
657,2.64,2.34,13.14,-0.53,0.21,-0.47
661,2.64,2.34,13.14,-0.60,0.18,-0.60
667,2.61,-2.49,9.96,-0.60,0.18,-0.60
672,2.61,-2.49,9.96,-0.62,0.10,-0.77
676,2.61,-2.49,9.96,-0.59,0.10,-0.75
682,2.61,-2.49,9.96,-0.58,0.17,-0.72
687,-1.65,-1.34,5.28,-0.58,0.17,-0.72
692,-1.65,-1.34,5.28,-0.60,0.29,-0.69
696,-1.65,-1.34,5.28,-0.63,0.32,-0.71
702,-2.41,-0.23,4.41,-0.63,0.32,-0.71
707,-2.41,-0.23,4.41,-0.52,0.19,-0.66
711,-2.41,-0.23,4.41,-0.56,0.12,-0.61
717,-2.41,-0.23,4.41,-0.54,-0.03,-0.53
722,-2.41,-0.23,4.41,-0.46,-0.27,-0.43
727,-2.41,-0.23,4.41,-0.45,-0.48,-0.44
731,-2.41,-0.23,4.41,-0.40,-0.62,-0.52
737,9.35,-1.91,19.54,-0.40,-0.62,-0.52
742,9.35,-1.91,19.54,-0.30,-0.53,-0.71
746,9.35,-1.91,19.54,-0.30,0.02,-0.80
752,9.35,-1.91,19.54,-0.47,0.56,-0.85
757,9.35,-1.91,19.54,-0.51,0.81,-0.93
762,9.35,-1.91,19.54,-0.61,0.96,-1.02
766,9.35,-1.91,19.54,-0.72,0.96,-1.05
772,-2.53,2.61,4.21,-0.72,0.96,-1.05
777,-2.53,2.61,4.21,-0.70,0.49,-0.98
781,-2.53,2.61,4.21,-0.70,0.15,-0.98
787,-2.53,2.61,4.21,-0.59,-0.20,-0.97
791,-2.53,2.61,4.21,-0.51,-0.45,-0.91
796,-2.53,2.61,4.21,-0.45,-0.58,-0.83
801,-2.53,2.61,4.21,-0.40,-0.60,-0.73
806,0.08,-0.42,11.98,-0.40,-0.60,-0.73
812,0.08,-0.42,11.98,-0.33,-0.51,-0.64
817,0.08,-0.42,11.98,-0.39,-0.17,-0.59
822,0.08,-0.42,11.98,-0.40,-0.08,-0.59
826,0.08,-0.42,11.98,-0.49,-0.03,-0.64
831,0.08,-0.42,11.98,-0.53,0.03,-0.77
837,0.08,-0.42,11.98,-0.64,0.10,-0.94
842,2.64,-1.19,7.70,-0.64,0.10,-0.94
847,2.64,-1.19,7.70,-0.69,0.28,-1.12
851,2.64,-1.19,7.70,-0.60,0.32,-1.08
857,-2.14,-5.44,5.40,-0.60,0.32,-1.08
862,-2.14,-5.44,5.40,-0.48,0.32,-0.83
867,-2.14,-5.44,5.40,-0.41,0.22,-0.71
872,-2.14,-5.44,5.40,-0.39,0.11,-0.73
877,2.11,-0.57,11.42,-0.39,0.11,-0.73
882,2.11,-0.57,11.42,-0.37,0.03,-0.97
886,2.11,-0.57,11.42,-0.33,0.09,-0.98
892,-1.72,-1.88,10.11,-0.33,0.09,-0.98
897,-1.72,-1.88,10.11,-0.38,0.28,-0.86
901,-1.72,-1.88,10.11,-0.37,0.33,-0.83
907,-1.72,-1.88,10.11,-0.45,0.44,-0.88
912,-5.17,-1.19,6.40,-0.45,0.44,-0.88
917,-5.17,-1.19,6.40,-0.45,0.34,-0.84
921,-5.17,-1.19,6.40,-0.36,0.11,-0.77
927,2.64,-1.27,18.08,-0.36,0.11,-0.77
932,2.64,-1.27,18.08,-0.33,-0.31,-0.98
936,2.64,-1.27,18.08,-0.24,-0.44,-1.12
942,2.64,-1.27,18.08,-0.24,-0.33,-1.28
947,1.88,-1.46,10.11,-0.24,-0.33,-1.28
952,1.88,-1.46,10.11,-0.29,0.21,-1.28
957,1.88,-1.46,10.11,-0.42,0.43,-1.14
962,0.92,3.56,4.03,-0.42,0.43,-1.14
967,0.92,3.56,4.03,-0.65,0.59,-1.31
971,0.92,3.56,4.03,-0.68,0.47,-1.48
976,0.92,3.56,4.03,-0.67,0.32,-1.65
981,-7.55,2.45,15.32,-0.67,0.32,-1.65
986,-7.70,-1.23,18.04,-0.67,0.32,-1.65
993,-7.70,-1.23,18.04,-0.51,0.51,-1.81
998,-5.90,0.08,13.63,-0.51,0.51,-1.81
1001,3.75,3.22,14.29,-0.51,0.51,-1.81
1006,3.75,3.22,14.29,-0.27,0.56,-1.15
1012,3.75,3.22,14.29,-0.25,0.29,-1.17
1017,6.17,3.18,7.89,-0.25,0.29,-1.17
1021,6.17,3.18,7.89,-0.45,-0.13,-1.42
1027,6.17,3.18,7.89,-0.51,-0.28,-1.47
1032,1.65,1.00,10.42,-0.51,-0.28,-1.47
1037,1.65,1.00,10.42,-0.58,-0.12,-1.45
1041,1.65,1.00,10.42,-0.54,0.10,-1.39
1047,-3.95,0.42,13.17,-0.54,0.10,-1.39
1052,-3.95,0.42,13.17,-0.49,0.51,-1.23
1056,-3.95,0.42,13.17,-0.42,0.63,-1.22
1062,-3.95,0.42,13.17,-0.35,0.64,-1.21
1067,4.25,-2.38,8.08,-0.35,0.64,-1.21
1072,4.25,-2.38,8.08,-0.23,0.35,-1.13
1076,4.25,-2.38,8.08,-0.14,0.19,-1.09
1082,0.04,-7.97,7.39,-0.14,0.19,-1.09
1086,0.04,-7.97,7.39,-0.08,0.16,-0.96
1091,0.04,-7.97,7.39,-0.09,0.24,-0.84
1097,0.04,-7.97,7.39,-0.04,0.29,-0.76
1102,-3.45,-0.42,12.34,-0.04,0.29,-0.76
1107,-3.45,-0.42,12.34,-0.21,0.50,-0.95
1111,-3.45,-0.42,12.34,-0.20,0.55,-1.05
1117,-3.45,-0.42,12.34,-0.17,0.60,-1.07
1122,-3.45,-0.42,12.34,-0.14,0.64,-0.97
1126,-3.45,-0.42,12.34,-0.08,0.61,-0.79
1132,-3.45,-0.42,12.34,0.02,0.51,-0.58
1137,-1.61,-4.67,8.04,0.02,0.51,-0.58
1142,-1.61,-4.67,8.04,0.12,0.21,-0.35
1146,-1.61,-4.67,8.04,0.17,0.05,-0.33
1152,1.46,-0.11,11.99,0.17,0.05,-0.33
1156,1.46,-0.11,11.99,0.12,0.03,-0.46
1161,1.46,-0.11,11.99,0.12,0.06,-0.45
1166,1.46,-0.11,11.99,0.11,0.09,-0.39
1172,-0.46,-2.99,10.57,0.11,0.09,-0.39
1177,-0.46,-2.99,10.57,0.03,0.60,-0.40
1182,-0.46,-2.99,10.57,0.05,0.77,-0.36
1187,-12.34,-2.11,9.65,0.05,0.77,-0.36
1192,-12.34,-2.11,9.65,0.10,1.04,-0.35
1196,-12.34,-2.11,9.65,0.16,0.98,-0.23
1202,-1.72,0.69,10.19,0.16,0.98,-0.23
1206,-1.72,0.69,10.19,0.25,0.55,-0.05
1211,-1.72,0.69,10.19,0.21,0.26,-0.09
1217,-1.72,0.69,10.19,0.22,-0.01,-0.18
1222,2.57,-3.22,8.12,0.22,-0.01,-0.18
1227,2.57,-3.22,8.12,0.11,-0.22,-0.22
1231,2.57,-3.22,8.12,0.11,-0.20,-0.15
1237,2.57,-3.22,8.12,0.06,-0.03,-0.12
1242,2.57,-3.22,8.12,0.04,0.16,-0.13
1246,2.57,-3.22,8.12,0.04,0.30,-0.16
1252,2.57,-3.22,8.12,0.02,0.44,-0.25
1257,2.57,-3.22,8.12,-0.05,0.54,-0.39
1262,2.57,-3.22,8.12,-0.10,0.57,-0.50
1266,2.57,-3.22,8.12,-0.11,0.48,-0.52
1272,0.23,-3.98,3.79,-0.11,0.48,-0.52
1277,0.23,-3.98,3.79,-0.02,0.14,-0.34
1281,0.23,-3.98,3.79,0.03,0.00,-0.22
1287,0.23,-3.98,3.79,0.00,-0.10,-0.17
1292,3.37,1.07,12.03,0.00,-0.10,-0.17
1297,3.37,1.07,12.03,-0.01,-0.19,-0.30
1301,3.37,1.07,12.03,-0.10,-0.08,-0.47
1307,5.71,0.84,12.79,-0.10,-0.08,-0.47
1312,5.71,0.84,12.79,-0.07,0.06,-0.54
1316,5.71,0.84,12.79,-0.15,0.17,-0.55
1322,5.71,0.84,12.79,-0.18,0.27,-0.57
1327,1.57,-0.61,6.40,-0.18,0.27,-0.57
1332,1.57,-0.61,6.40,-0.22,0.38,-0.61
1337,1.57,-0.61,6.40,-0.23,0.42,-0.64
1342,5.05,-3.22,16.97,-0.23,0.42,-0.64
1347,5.05,-3.22,16.97,-0.11,0.21,-0.60
1351,5.05,-3.22,16.97,-0.08,0.05,-0.67
1357,5.05,-3.22,16.97,-0.02,0.02,-0.87
1362,12.98,-1.99,20.88,-0.02,0.02,-0.87
1367,12.98,-1.99,20.88,0.02,0.33,-1.20
1372,12.98,-1.99,20.88,-0.12,0.77,-1.26
1377,12.98,-1.99,20.88,-0.11,1.04,-1.22
1382,12.98,-1.99,20.88,-0.18,1.15,-1.06
1386,12.98,-1.99,20.88,-0.31,1.17,-0.96
1392,12.98,-1.99,20.88,-0.38,1.07,-1.01
1397,-2.87,1.27,4.07,-0.38,1.07,-1.01
1401,-2.87,1.27,4.07,-0.31,0.60,-1.30
1407,-2.87,1.27,4.07,-0.21,0.31,-1.35
1412,-2.11,-2.38,9.61,-0.21,0.31,-1.35
1416,-2.11,-2.38,9.61,-0.02,0.02,-1.13
1421,-2.11,-2.38,9.61,0.02,0.02,-0.95
1427,-1.61,-1.27,11.22,0.02,0.02,-0.95
1431,-1.61,-1.27,11.22,0.00,0.08,-0.70
1436,-1.61,-1.27,11.22,-0.03,0.08,-0.69
1441,-1.61,-1.27,11.22,-0.06,0.07,-0.77
1446,1.72,2.91,15.40,-0.06,0.07,-0.77
1452,1.72,2.91,15.40,-0.10,0.04,-0.86
1457,1.72,2.91,15.40,-0.14,0.14,-1.01
1461,1.72,2.91,15.40,-0.21,0.26,-1.03
1466,1.72,2.91,15.40,-0.23,0.44,-1.02
1471,1.72,2.91,15.40,-0.22,0.57,-0.95
1476,1.72,2.91,15.40,-0.17,0.62,-0.86
1482,-1.76,-0.46,6.51,-0.17,0.62,-0.86
1486,-1.76,-0.46,6.51,-0.13,0.55,-0.75
1491,-1.76,-0.46,6.51,-0.09,0.39,-0.71
1497,-1.76,-0.46,6.51,-0.06,0.26,-0.71
1501,-1.76,-0.46,6.51,-0.05,0.19,-0.72
1506,-1.76,-0.46,6.51,-0.03,0.17,-0.69
1512,-1.76,-0.46,6.51,0.00,0.20,-0.61
1517,-1.76,-0.46,6.51,-0.01,0.26,-0.55
1521,-1.76,-0.46,6.51,-0.04,0.28,-0.53
1526,-1.76,-0.46,6.51,-0.05,0.29,-0.54
1532,1.57,-1.68,11.07,-0.05,0.29,-0.54
1536,1.57,-1.68,11.07,-0.08,0.28,-0.58
1541,1.57,-1.68,11.07,-0.06,0.23,-0.57
1546,1.57,-1.68,11.07,-0.05,0.26,-0.62
1552,0.19,-3.91,10.34,-0.05,0.26,-0.62
1556,0.19,-3.91,10.34,0.00,0.50,-0.64
1561,0.19,-3.91,10.34,0.03,0.65,-0.53
1567,-3.91,-2.99,8.12,0.03,0.65,-0.53
1571,-3.91,-2.99,8.12,0.09,0.66,-0.28
1576,-3.91,-2.99,8.12,0.09,0.50,-0.21
1582,-3.91,-2.99,8.12,0.05,0.29,-0.25
1586,-3.91,-2.99,8.12,0.04,0.10,-0.36
1591,-3.91,-2.99,8.12,0.03,-0.04,-0.45
1597,-3.91,-2.99,8.12,0.02,-0.11,-0.48
1602,-5.21,-4.83,12.03,0.02,-0.11,-0.48
1606,-5.21,-4.83,12.03,0.05,0.20,-0.45
1611,-5.21,-4.83,12.03,0.05,0.43,-0.36
1617,-5.21,-4.83,12.03,0.10,0.59,-0.23
1621,-5.21,-4.83,12.03,0.09,0.71,-0.19
1626,-5.21,-4.83,12.03,0.04,0.69,-0.23
1632,-5.21,-4.83,12.03,0.01,0.45,-0.30
1637,-5.21,-4.83,12.03,-0.03,0.13,-0.44
1641,-5.21,-4.83,12.03,-0.11,-0.09,-0.64
1646,-5.21,-4.83,12.03,-0.10,-0.23,-0.78
1651,-5.21,-4.83,12.03,-0.08,-0.22,-0.80
1657,-4.14,-3.98,6.78,-0.08,-0.22,-0.80
1661,-4.14,-3.98,6.78,-0.07,0.13,-0.56
1666,-4.14,-3.98,6.78,-0.08,0.32,-0.48
1672,-3.22,5.79,11.64,-0.08,0.32,-0.48
1676,-3.22,5.79,11.64,-0.16,0.54,-0.67
1681,-3.22,5.79,11.64,-0.17,0.51,-0.88
1687,0.34,-0.46,8.35,-0.17,0.51,-0.88
1691,0.34,-0.46,8.35,-0.19,0.29,-1.21
1696,0.34,-0.46,8.35,-0.19,0.17,-1.19
1701,0.34,-0.46,8.35,-0.13,0.09,-1.06
1707,-1.61,0.38,8.96,-0.13,0.09,-1.06
1712,-1.61,0.38,8.96,-0.15,0.09,-0.80
1716,-1.61,0.38,8.96,-0.21,0.14,-0.85
1721,-1.61,0.38,8.96,-0.30,0.20,-0.99
1726,-1.38,5.94,9.46,-0.30,0.20,-0.99
1732,-1.38,5.94,9.46,-0.37,0.29,-1.28
1737,-1.38,5.94,9.46,-0.36,0.32,-1.26
1741,-1.38,5.94,9.46,-0.30,0.31,-1.10
1746,-1.38,5.94,9.46,-0.28,0.21,-0.87
1752,-1.38,5.94,9.46,-0.24,0.01,-0.67
1757,-1.38,5.94,9.46,-0.25,-0.17,-0.65
1761,-1.38,5.94,9.46,-0.26,-0.30,-0.79
1766,-1.38,5.94,9.46,-0.22,-0.31,-1.00
1771,-1.38,5.94,9.46,-0.09,-0.01,-1.19
1777,-1.38,5.94,9.46,-0.14,0.51,-1.22
1781,-1.38,5.94,9.46,-0.13,0.82,-1.18
1786,-1.38,5.94,9.46,-0.19,0.93,-1.10
1792,-0.30,0.65,3.67,-0.19,0.93,-1.10
1796,-0.30,0.65,3.67,-0.38,0.72,-1.02
1802,-0.30,0.65,3.67,-0.43,0.49,-1.13
1807,-0.30,0.65,3.67,-0.41,0.26,-1.31
1811,-0.30,0.65,3.67,-0.34,0.09,-1.42
1816,-0.30,0.65,3.67,-0.24,0.01,-1.40
1821,-0.30,0.65,3.67,-0.16,0.07,-1.31
1827,-0.77,-5.29,10.50,-0.16,0.07,-1.31
1831,-0.77,-5.29,10.50,-0.02,0.26,-1.01
1837,-0.77,-5.29,10.50,-0.02,0.32,-0.92
1842,-0.77,-5.29,10.50,-0.06,0.33,-0.92
1846,-0.77,-5.29,10.50,-0.10,0.30,-0.96
1851,-0.77,-5.29,10.50,-0.14,0.29,-1.02
1856,-0.77,-5.29,10.50,-0.16,0.31,-1.04
1862,-3.56,-2.80,9.77,-0.16,0.31,-1.04
1866,-3.56,-2.80,9.77,-0.10,0.39,-0.87
1871,-3.56,-2.80,9.77,-0.05,0.38,-0.73
1877,-3.56,-2.80,9.77,0.00,0.33,-0.63
1881,-3.56,-2.80,9.77,0.01,0.26,-0.60
1886,-3.56,-2.80,9.77,0.04,0.18,-0.61
1891,-3.56,-2.80,9.77,0.04,0.10,-0.61
1897,-3.56,-2.80,9.77,0.04,0.07,-0.58
1901,-3.56,-2.80,9.77,0.04,0.07,-0.52
1906,-3.56,-2.80,9.77,0.06,0.10,-0.45
1911,-3.56,-2.80,9.77,0.03,0.17,-0.42
1917,0.80,-2.41,10.91,0.03,0.17,-0.42
1921,0.80,-2.41,10.91,0.01,0.26,-0.46
1927,0.80,-2.41,10.91,-0.01,0.28,-0.49
1931,0.80,-2.41,10.91,-0.00,0.29,-0.54
1936,0.80,-2.41,10.91,-0.01,0.31,-0.59
1941,0.80,-2.41,10.91,-0.01,0.33,-0.61
1946,0.80,-2.41,10.91,0.00,0.35,-0.58
1952,2.84,-4.18,7.78,0.00,0.35,-0.58
1956,2.84,-4.18,7.78,0.02,0.30,-0.55
1962,2.84,-4.18,7.78,-0.02,0.29,-0.60
1967,2.84,-4.18,7.78,-0.03,0.32,-0.65
1971,2.84,-4.18,7.78,-0.03,0.41,-0.70
1976,2.84,-4.18,7.78,-0.03,0.53,-0.69
1982,-8.93,-0.92,10.42,-0.03,0.53,-0.69
1986,-8.93,-0.92,10.42,0.03,0.70,-0.59
1991,-8.93,-0.92,10.42,0.04,0.71,-0.54
1997,-8.93,-0.92,10.42,0.05,0.58,-0.46
2001,-8.93,-0.92,10.42,0.06,0.34,-0.43
2007,-8.93,-0.92,10.42,0.03,0.08,-0.51
2011,-8.93,-0.92,10.42,0.01,-0.15,-0.64
2017,-8.93,-0.92,10.42,0.02,-0.29,-0.69
2021,-8.93,-0.92,10.42,0.03,-0.32,-0.67
2026,-8.93,-0.92,10.42,-0.01,-0.20,-0.65
2031,-8.93,-0.92,10.42,0.01,0.10,-0.68
2037,-8.93,-0.92,10.42,-0.10,0.55,-0.72
2041,-8.93,-0.92,10.42,-0.13,0.76,-0.73
2047,-8.93,-0.92,10.42,-0.13,0.76,-0.75
2052,-8.93,-0.92,10.42,-0.14,0.68,-0.81
2056,1.84,-0.11,9.58,-0.14,0.68,-0.81
2061,1.84,-0.11,9.58,-0.17,0.45,-1.06
2067,1.84,-0.11,9.58,-0.12,0.32,-1.11
2072,1.84,-0.11,9.58,-0.08,0.25,-1.08
2076,1.38,-1.84,8.39,-0.08,0.25,-1.08
2081,1.38,-1.84,8.39,-0.09,0.23,-0.99
2087,-0.88,1.84,8.08,-0.09,0.23,-0.99
2092,-0.88,1.84,8.08,-0.21,0.34,-1.13
2096,-1.04,1.80,8.66,-0.21,0.34,-1.13
2101,-1.91,2.64,8.96,-0.21,0.34,-1.13
2106,-1.91,2.64,8.96,-0.33,0.40,-1.38
2111,-1.91,2.64,8.96,-0.27,0.41,-1.39
2117,-1.91,2.64,8.96,-0.26,0.40,-1.35
2122,-1.91,2.64,8.96,-0.23,0.39,-1.31
2126,1.61,0.77,11.99,-0.23,0.39,-1.31
2131,2.26,0.08,14.94,-0.23,0.39,-1.31
2136,2.26,0.08,14.94,-0.22,0.38,-1.37
2141,7.05,0.30,17.86,-0.22,0.38,-1.37
2147,7.05,0.30,17.86,-0.18,0.36,-1.38
2152,7.05,0.30,17.86,-0.15,0.38,-1.45
2157,7.05,0.30,17.86,-0.15,0.47,-1.50
2162,4.14,0.54,14.56,-0.15,0.47,-1.50
2166,3.29,-0.15,13.11,-0.15,0.47,-1.50
2171,3.29,-0.15,13.11,-0.23,0.84,-1.51
2177,2.14,-1.53,11.88,-0.23,0.84,-1.51
2182,2.14,-1.53,11.88,-0.25,0.96,-1.64
2187,0.11,-2.18,9.34,-0.25,0.96,-1.64
2191,-1.57,-1.88,9.12,-0.25,0.96,-1.64
2197,-1.57,-1.88,9.12,-0.14,0.94,-1.53
2201,-1.57,-1.88,9.12,-0.11,0.91,-1.48
2207,-1.57,-1.88,9.12,-0.08,0.84,-1.46
2212,-1.57,-1.88,9.12,-0.06,0.75,-1.45
2216,-0.34,-3.10,10.92,-0.06,0.75,-1.45
2221,1.38,-3.45,11.88,-0.06,0.75,-1.45
2226,1.38,-3.45,11.88,-0.00,0.55,-1.36
2231,1.38,-3.45,11.88,0.00,0.54,-1.33
2237,1.38,-3.45,11.88,0.02,0.57,-1.30
2242,1.38,-3.45,11.88,0.01,0.66,-1.24
2246,-6.36,2.26,3.10,0.01,0.66,-1.24
2251,-8.31,2.38,2.64,0.01,0.66,-1.24
2256,-8.31,2.38,2.64,0.02,0.79,-0.85
2261,-8.31,2.38,2.64,0.05,0.72,-0.77
2266,-5.55,-0.96,3.29,0.05,0.72,-0.77
2272,-5.55,-0.96,3.29,0.13,0.41,-0.59
2277,-5.55,-0.96,3.29,0.19,0.20,-0.45
2281,0.88,-2.07,12.30,0.19,0.20,-0.45
2286,5.71,-2.26,17.09,0.19,0.20,-0.45
2291,5.71,-2.26,17.09,0.32,-0.49,0.01
2297,5.71,-2.26,17.09,0.32,-0.67,-0.01
2302,5.71,-2.26,17.09,0.58,-0.17,-0.26
2307,8.81,-5.17,17.01,0.58,-0.17,-0.26
2311,-0.96,-2.80,4.52,0.58,-0.17,-0.26
2316,-4.56,-2.30,1.88,0.58,-0.17,-0.26
2321,-4.56,-2.30,1.88,0.16,0.90,-0.66
2327,-4.56,-2.30,1.88,0.06,0.86,-0.55
2332,-4.56,-2.30,1.88,0.01,0.83,-0.40
2336,-0.80,-1.38,5.94,0.01,0.83,-0.40
2341,1.88,-2.30,10.23,0.01,0.83,-0.40
2347,1.88,-2.30,10.23,0.11,0.35,-0.52
2351,2.76,-7.05,10.57,0.11,0.35,-0.52
2356,2.22,-7.24,11.68,0.11,0.35,-0.52
2362,2.22,-7.24,11.68,0.40,0.05,-0.48
2367,2.22,-7.24,11.68,0.42,0.15,-0.36
2371,-7.39,-2.30,10.04,0.42,0.15,-0.36
2376,-7.55,0.73,10.57,0.42,0.15,-0.36
2382,-7.55,0.73,10.57,0.25,0.63,-0.29
2386,-3.64,3.07,10.39,0.25,0.63,-0.29
2391,-0.42,3.41,9.69,0.25,0.63,-0.29
2396,3.87,3.37,9.08,0.25,0.63,-0.29
2401,3.87,3.37,9.08,0.07,0.05,-0.48
2406,3.87,3.37,9.08,0.07,-0.18,-0.57
2411,3.87,3.37,9.08,0.06,-0.31,-0.65
2417,3.87,3.37,9.08,0.05,-0.34,-0.66
2421,-2.87,-3.26,7.32,0.05,-0.34,-0.66
2426,1.07,-3.48,14.75,0.05,-0.34,-0.66
2431,1.07,-3.48,14.75,0.15,-0.06,-0.37
2437,5.09,2.41,19.77,0.15,-0.06,-0.37
2442,7.43,1.57,21.68,0.15,-0.06,-0.37
2446,9.35,-1.61,15.36,0.15,-0.06,-0.37
2451,4.94,-3.07,11.42,0.15,-0.06,-0.37
2456,4.94,-3.07,11.42,0.02,0.27,-1.10
2461,4.94,-3.07,11.42,-0.03,0.31,-1.26
2467,4.94,-3.07,11.42,-0.00,0.36,-1.25
2471,2.22,-3.14,8.42,-0.00,0.36,-1.25
2476,2.26,-0.19,8.96,-0.00,0.36,-1.25
2482,2.26,-0.19,8.96,-0.00,0.53,-1.02
2487,2.26,-0.19,8.96,-0.06,0.54,-1.14
2491,-2.49,0.34,1.61,-0.06,0.54,-1.14
2496,-4.33,-1.76,2.57,-0.06,0.54,-1.14
2502,-4.33,-1.76,2.57,-0.07,0.64,-1.52
2507,-4.33,-1.76,2.57,0.04,0.56,-1.37
2511,2.22,0.57,10.50,0.04,0.56,-1.37
2516,8.39,1.30,16.55,0.04,0.56,-1.37
2521,8.39,1.30,16.55,0.14,0.05,-0.90
2526,3.56,1.34,18.27,0.14,0.05,-0.90
2533,3.56,1.34,18.27,0.21,0.25,-1.31
2537,3.56,1.34,18.27,0.16,0.79,-1.45
2541,-9.84,1.84,12.72,0.16,0.79,-1.45
2546,-6.47,2.99,11.76,0.16,0.79,-1.45
2551,-6.47,2.99,11.76,0.17,1.12,-1.15
2557,-6.47,2.99,11.76,0.00,0.88,-1.01
2562,-6.47,2.99,11.76,-0.06,0.51,-1.04
2567,11.49,1.23,8.46,-0.06,0.51,-1.04
2571,5.48,-5.40,9.27,-0.06,0.51,-1.04
2576,0.61,-10.00,15.13,-0.06,0.51,-1.04
2581,0.61,-10.00,15.13,0.12,0.18,-1.76
2587,0.61,-10.00,15.13,0.18,1.08,-1.50
2591,-11.45,0.57,13.71,0.18,1.08,-1.50
2596,-8.96,1.99,14.29,0.18,1.08,-1.50
2602,-8.96,1.99,14.29,0.30,1.55,-1.18
2607,-8.96,1.99,14.29,0.24,1.28,-1.19
2611,3.26,0.84,5.90,0.24,1.28,-1.19
2616,3.45,-1.19,4.29,0.24,1.28,-1.19
2622,4.21,-3.68,4.52,0.24,1.28,-1.19
2626,2.68,-2.95,6.86,0.24,1.28,-1.19
2631,1.11,-2.57,9.38,0.24,1.28,-1.19
2637,1.11,-2.57,9.38,0.17,0.09,-1.16
2642,1.11,-2.57,9.38,0.12,0.21,-1.09
2646,-1.42,2.84,16.67,0.12,0.21,-1.09
2651,-0.96,3.33,15.36,0.12,0.21,-1.09
2657,-0.15,1.46,14.29,0.12,0.21,-1.09
2661,2.03,-2.07,11.42,0.12,0.21,-1.09
2666,2.84,-4.14,10.80,0.12,0.21,-1.09
2671,2.84,-4.14,10.80,0.26,0.89,-1.20
2676,2.84,-4.14,10.80,0.33,0.82,-1.06
2681,2.84,-4.14,10.80,0.36,0.83,-0.94
2686,2.84,-4.14,10.80,0.46,0.80,-0.79
2692,2.84,-4.14,10.80,0.56,0.79,-0.67
2697,2.61,0.04,12.14,0.56,0.79,-0.67
2701,2.61,0.04,12.14,0.53,0.67,-0.62
2706,-0.15,1.38,6.59,0.53,0.67,-0.62
2712,-0.15,1.38,6.59,0.43,0.63,-0.66
2716,2.99,-4.02,4.21,0.43,0.63,-0.66
2721,1.99,-4.71,4.45,0.43,0.63,-0.66
2727,3.64,-4.90,6.63,0.43,0.63,-0.66
2731,3.33,-5.44,10.73,0.43,0.63,-0.66
2736,-0.92,-5.09,13.33,0.43,0.63,-0.66
2741,-0.92,-5.44,13.25,0.43,0.63,-0.66
2747,-0.92,-5.44,13.25,0.58,0.56,-0.45
2751,-1.76,-5.02,11.34,0.58,0.56,-0.45
2756,-3.48,-3.33,9.23,0.58,0.56,-0.45
2762,-2.22,-4.33,7.17,0.58,0.56,-0.45
2766,0.61,-4.60,4.48,0.58,0.56,-0.45
2771,-1.38,-3.60,2.18,0.58,0.56,-0.45
2776,-4.71,-3.48,-0.38,0.58,0.56,-0.45
2782,-4.71,-3.48,-0.38,0.54,0.36,-0.21
2786,1.76,-3.29,6.97,0.54,0.36,-0.21
2791,2.14,-4.67,10.80,0.54,0.36,-0.21
2797,3.45,-6.74,13.45,0.54,0.36,-0.21
2802,1.38,-5.48,14.48,0.54,0.36,-0.21
2806,1.38,-5.48,14.48,0.80,0.16,-0.17
2811,1.49,-5.71,12.18,0.80,0.16,-0.17
2817,0.61,-3.79,9.96,0.80,0.16,-0.17
2821,-1.46,-1.95,5.70,0.80,0.16,-0.17
2826,1.15,-2.30,4.90,0.80,0.16,-0.17
2832,1.15,-2.30,4.90,0.69,0.35,0.09
2837,0.96,-0.92,7.89,0.69,0.35,0.09
2841,0.96,-0.92,7.89,0.65,-0.08,-0.02
2846,1.23,-2.26,10.69,0.65,-0.08,-0.02
2851,-0.27,-3.26,11.34,0.65,-0.08,-0.02
2856,0.77,-3.22,11.34,0.65,-0.08,-0.02
2861,3.68,-1.99,10.23,0.65,-0.08,-0.02
2867,3.68,-1.99,10.23,0.69,0.15,0.06
2871,4.56,3.95,9.16,0.69,0.15,0.06
2876,0.42,-2.22,7.70,0.69,0.15,0.06
2882,1.49,-1.19,7.39,0.69,0.15,0.06
2887,0.04,-1.91,7.55,0.69,0.15,0.06
2891,0.04,-1.91,7.55,0.53,0.20,-0.20
2896,-2.99,-0.65,8.08,0.53,0.20,-0.20
2902,-2.99,-0.65,8.08,0.55,0.17,-0.17
2907,-2.38,-1.46,9.50,0.55,0.17,-0.17
2911,-2.38,-1.46,9.50,0.64,0.04,-0.12
2916,0.27,1.19,12.83,0.64,0.04,-0.12
2921,0.27,1.19,12.83,0.67,0.01,-0.12
2926,0.96,-0.61,13.67,0.67,0.01,-0.12
2933,0.96,-0.61,13.67,0.66,-0.01,-0.11
2937,0.57,-1.04,10.84,0.66,-0.01,-0.11
2941,0.57,-1.04,10.84,0.58,0.20,-0.23
2946,0.57,-1.04,10.84,0.51,0.25,-0.18
2951,-2.91,-1.42,7.24,0.51,0.25,-0.18
2957,-2.91,-1.42,7.24,0.49,0.29,-0.20
2962,-1.42,-0.88,8.74,0.49,0.29,-0.20
2966,1.23,-0.84,5.63,0.49,0.29,-0.20
2971,-1.57,-1.61,6.59,0.49,0.29,-0.20
2976,-2.18,-3.95,6.79,0.49,0.29,-0.20
2981,1.91,-6.44,6.62,0.49,0.29,-0.20
2987,0.77,-7.47,4.98,0.49,0.29,-0.20
2992,-3.71,-2.57,4.71,0.49,0.29,-0.20
2996,-3.71,-2.57,4.71,0.64,-0.21,-0.02
3001,3.91,2.53,14.94,0.64,-0.21,-0.02
3006,2.11,3.03,15.86,0.64,-0.21,-0.02
3011,4.48,1.42,17.77,0.64,-0.21,-0.02
3016,6.05,-1.04,16.89,0.64,-0.21,-0.02
3022,3.37,-0.04,14.52,0.64,-0.21,-0.02
3027,-1.27,-2.68,10.57,0.64,-0.21,-0.02
3031,-1.27,-2.68,10.57,0.57,0.35,-0.40
3036,0.69,-0.65,7.59,0.57,0.35,-0.40
3041,-1.53,1.27,4.75,0.57,0.35,-0.40
3046,-4.37,2.34,3.33,0.57,0.35,-0.40
3051,-3.26,1.91,5.02,0.57,0.35,-0.40
3057,-3.37,1.38,5.02,0.57,0.35,-0.40
3062,-5.48,0.69,6.09,0.57,0.35,-0.40
3066,-5.48,0.69,6.09,0.54,0.03,0.10
3071,-5.48,0.69,6.09,0.59,-0.09,0.25
3076,-1.68,-1.42,10.57,0.59,-0.09,0.25
3081,1.04,-1.30,11.15,0.59,-0.09,0.25
3087,3.45,-1.15,10.42,0.59,-0.09,0.25
3091,-0.08,0.04,10.61,0.59,-0.09,0.25
3096,-1.38,0.00,9.69,0.59,-0.09,0.25
3101,-1.76,-0.38,9.92,0.59,-0.09,0.25
3107,-3.33,-0.88,10.50,0.59,-0.09,0.25
3112,-3.48,-0.88,9.50,0.59,-0.09,0.25
3116,-3.48,-0.88,9.50,0.50,0.21,0.37
3121,-6.29,-2.07,5.29,0.50,0.21,0.37
3126,-3.03,-3.07,5.55,0.50,0.21,0.37
3131,-0.69,-3.29,5.98,0.50,0.21,0.37
3136,-0.61,-3.41,6.62,0.50,0.21,0.37
3142,-1.04,-4.75,8.28,0.50,0.21,0.37
3147,2.45,-4.79,12.11,0.50,0.21,0.37
3151,2.45,-4.79,12.11,0.63,-0.35,0.37
3156,1.04,-3.29,15.71,0.63,-0.35,0.37
3161,-1.61,-2.57,14.25,0.63,-0.35,0.37
3166,-2.76,-3.07,12.57,0.63,-0.35,0.37
3171,-2.76,-3.95,11.26,0.63,-0.35,0.37
3177,-2.11,-2.84,8.96,0.63,-0.35,0.37
3182,-3.22,-1.80,7.89,0.63,-0.35,0.37
3186,-3.22,-1.80,7.89,0.60,0.26,0.26
3191,-3.22,-1.80,7.89,0.55,0.10,0.30
3196,5.55,-2.07,12.76,0.55,0.10,0.30
3201,5.55,-2.07,12.76,0.61,-0.11,0.32
3206,5.55,-2.07,12.76,0.59,-0.18,0.29
3212,-3.71,-6.78,9.96,0.59,-0.18,0.29
3217,3.45,-4.10,9.31,0.59,-0.18,0.29
3221,3.45,-4.10,9.31,0.71,0.11,0.54
3226,-9.58,0.73,5.52,0.71,0.11,0.54
3231,-7.70,2.80,3.91,0.71,0.11,0.54
3236,-3.48,-0.38,4.45,0.71,0.11,0.54
3242,-1.53,0.84,5.36,0.71,0.11,0.54
3246,-5.71,1.53,8.23,0.71,0.11,0.54
3251,-4.83,0.00,8.24,0.71,0.11,0.54
3256,-0.77,-3.22,6.97,0.71,0.11,0.54
3262,0.46,-1.84,8.28,0.71,0.11,0.54
3267,0.08,-0.15,6.17,0.71,0.11,0.54
3271,0.08,-0.15,6.17,0.52,-0.39,0.51
3276,-3.14,-0.77,5.74,0.52,-0.39,0.51
3282,-0.88,0.34,6.05,0.52,-0.39,0.51
3287,-1.11,-1.57,8.58,0.52,-0.39,0.51
3291,-1.11,-1.57,8.58,0.42,-0.37,0.43
3296,3.79,-1.42,14.86,0.42,-0.37,0.43
3301,5.52,-1.57,16.09,0.42,-0.37,0.43
3306,5.52,-2.38,15.90,0.42,-0.37,0.43
3311,2.87,-1.61,13.25,0.42,-0.37,0.43
3317,0.57,-1.57,11.07,0.42,-0.37,0.43
3322,-1.23,-2.57,8.54,0.42,-0.37,0.43
3326,-1.23,-2.57,8.54,0.51,0.28,0.42
3331,-1.23,-2.57,8.54,0.50,0.25,0.48
3336,-1.49,-0.65,7.05,0.50,0.25,0.48
3342,-1.34,-0.08,7.82,0.50,0.25,0.48
3346,0.88,-1.38,8.42,0.50,0.25,0.48
3351,-0.50,-0.77,7.93,0.50,0.25,0.48
3357,-0.11,-0.92,9.16,0.50,0.25,0.48
3361,-0.11,-0.92,9.16,0.42,-0.20,0.39
3366,1.42,0.30,10.57,0.42,-0.20,0.39
3371,2.61,-1.65,9.93,0.42,-0.20,0.39
3377,3.87,-0.80,9.81,0.42,-0.20,0.39
3382,-0.08,-1.53,9.23,0.42,-0.20,0.39
3387,-1.84,-0.96,8.81,0.42,-0.20,0.39
3391,-1.84,-0.96,8.81,0.37,0.07,0.25
3396,-1.84,-0.96,8.81,0.35,0.17,0.24
3401,-2.72,0.00,10.84,0.35,0.17,0.24
3407,-0.92,-0.04,10.15,0.35,0.17,0.24
3411,-0.92,-0.04,10.15,0.30,0.02,0.18
3417,3.64,-1.72,9.65,0.30,0.02,0.18
3422,2.99,-1.34,8.04,0.30,0.02,0.18
3426,2.99,-1.34,8.04,0.34,-0.26,0.18
3431,2.99,-1.34,8.04,0.33,-0.21,0.21
3436,3.26,0.84,12.83,0.33,-0.21,0.21
3442,1.68,0.34,12.64,0.33,-0.21,0.21
3446,1.68,0.34,12.64,0.37,0.01,0.28
3452,1.68,0.34,12.64,0.34,0.19,0.23
3457,-2.49,-0.42,11.57,0.34,0.19,0.23
3461,-2.49,-0.42,11.57,0.39,0.21,0.27
3466,-2.49,-0.42,11.57,0.40,0.13,0.36
3471,-1.72,0.77,8.16,0.40,0.13,0.36
3476,-1.65,-0.30,7.13,0.40,0.13,0.36
3482,-0.08,-1.80,3.99,0.40,0.13,0.36
3486,4.10,-0.50,4.48,0.40,0.13,0.36
3491,2.22,0.38,5.21,0.40,0.13,0.36
3497,-0.50,1.15,5.28,0.40,0.13,0.36
3502,-0.50,1.15,5.28,0.27,-0.31,0.40
3506,-1.27,-0.50,9.93,0.27,-0.31,0.40
3511,-1.49,-1.72,11.30,0.27,-0.31,0.40
3516,-1.49,-1.72,11.30,0.28,-0.17,0.45
3521,-1.49,-1.72,11.30,0.31,-0.12,0.45
3526,1.49,-2.14,11.88,0.31,-0.12,0.45
3533,1.49,-2.14,11.88,0.33,-0.01,0.47
3537,1.49,-2.14,11.88,0.40,0.12,0.53
3541,-5.02,-0.08,9.39,0.40,0.12,0.53
3547,-4.86,0.96,7.73,0.40,0.12,0.53
3551,-4.86,0.96,7.73,0.37,0.24,0.57
3556,-5.63,2.38,8.39,0.37,0.24,0.57
3562,-3.10,1.65,8.35,0.37,0.24,0.57
3566,-3.10,1.65,8.35,0.19,0.02,0.45
3572,-3.10,1.65,8.35,0.18,-0.16,0.43
3577,1.15,-0.42,8.89,0.18,-0.16,0.43
3582,1.49,-1.00,10.46,0.18,-0.16,0.43
3586,1.49,-1.00,10.46,0.21,-0.35,0.47
3592,1.49,-1.00,10.46,0.23,-0.31,0.52
3597,-2.53,-0.34,11.22,0.23,-0.31,0.52
3601,-2.53,-0.34,11.22,0.23,-0.03,0.55
3606,-3.83,1.34,11.88,0.23,-0.03,0.55
3611,-4.79,1.95,11.15,0.23,-0.03,0.55
3617,-2.76,1.07,8.96,0.23,-0.03,0.55
3621,-2.76,1.07,8.96,0.20,0.22,0.51
3626,1.04,0.38,7.73,0.20,0.22,0.51
3632,0.92,1.72,8.46,0.20,0.22,0.51
3636,0.92,1.72,8.46,0.13,-0.14,0.52
3642,1.27,0.57,11.68,0.13,-0.14,0.52
3647,-0.27,0.00,11.64,0.13,-0.14,0.52
3651,-0.27,0.00,11.64,0.09,-0.18,0.51
3656,-0.27,0.00,11.64,0.08,-0.13,0.51
3661,-1.34,0.00,10.07,0.08,-0.13,0.51
3667,-0.84,-0.34,9.80,0.08,-0.13,0.51
3671,-0.84,-0.34,9.80,0.10,0.03,0.48
3677,0.88,0.04,8.89,0.10,0.03,0.48
3682,-0.11,0.84,9.61,0.10,0.03,0.48
3686,-0.11,0.84,9.61,0.06,0.05,0.51
3691,-0.11,0.84,9.61,0.03,0.05,0.47
3696,0.00,-0.84,7.51,0.03,0.05,0.47
3702,-0.50,-0.96,8.50,0.03,0.05,0.47
3706,-0.50,-0.96,8.50,0.01,-0.13,0.41
3712,-0.50,-0.96,8.50,0.01,-0.20,0.41
3717,3.71,-1.99,11.11,0.01,-0.20,0.41
3721,3.71,-1.99,11.11,0.03,-0.31,0.43
3726,3.71,-1.99,11.11,0.09,-0.22,0.43
3732,3.71,-1.99,11.11,0.09,0.07,0.43
3737,-1.30,0.96,9.04,0.09,0.07,0.43
3741,-1.30,0.96,9.04,0.09,0.28,0.43
3746,-3.48,1.04,11.26,0.09,0.28,0.43
3751,-5.32,2.22,11.88,0.09,0.28,0.43
3757,-4.06,-0.42,9.69,0.09,0.28,0.43
3762,-4.06,-0.42,9.69,-0.00,0.14,0.38
3766,3.68,-1.76,7.43,-0.00,0.14,0.38
3771,2.72,-1.04,6.55,-0.00,0.14,0.38
3777,1.53,0.19,6.59,-0.00,0.14,0.38
3782,2.34,0.57,9.35,-0.00,0.14,0.38
3787,1.04,0.84,11.26,-0.00,0.14,0.38
3791,1.04,0.84,11.26,-0.07,-0.27,0.38
3797,3.48,-0.15,13.33,-0.07,-0.27,0.38
3802,3.91,-0.34,12.99,-0.07,-0.27,0.38
3806,3.91,-0.34,12.99,-0.03,0.24,0.35
3811,3.91,-0.34,12.99,-0.01,0.29,0.34
3817,-3.03,-0.42,9.85,-0.01,0.29,0.34
3822,-4.48,0.73,8.46,-0.01,0.29,0.34
3826,-4.48,0.73,8.46,0.01,0.34,0.41
3832,-4.48,0.73,8.46,-0.02,0.31,0.38
3837,-1.68,2.61,8.04,-0.02,0.31,0.38
3841,-1.68,2.61,8.04,-0.10,0.08,0.29
3846,-1.68,2.61,8.04,-0.13,-0.06,0.25
3852,-1.68,2.61,8.04,-0.13,-0.17,0.22
3857,-0.54,1.04,5.32,-0.13,-0.17,0.22
3861,-0.54,1.04,5.32,-0.14,-0.27,0.27
3866,5.17,2.26,11.11,-0.14,-0.27,0.27
3871,2.64,3.03,11.19,-0.14,-0.27,0.27
3877,0.50,1.46,12.79,-0.14,-0.27,0.27
3882,0.50,1.46,12.79,-0.21,0.04,0.18
3886,-4.14,-0.34,12.34,-0.21,0.04,0.18
3891,-3.10,-1.88,10.54,-0.21,0.04,0.18
3897,1.23,-5.32,13.45,-0.21,0.04,0.18
3902,5.52,-4.10,13.98,-0.21,0.04,0.18
3907,4.37,-2.18,11.96,-0.21,0.04,0.18
3912,4.37,-2.18,11.96,-0.09,-0.15,0.30
3916,4.37,-2.18,11.96,-0.05,-0.07,0.30
3922,-1.23,2.22,9.30,-0.05,-0.07,0.30
3927,-2.34,1.46,8.88,-0.05,-0.07,0.30
3932,-2.34,1.46,8.88,-0.10,0.35,0.24
3936,-2.34,1.46,8.88,-0.09,0.34,0.22
3942,-0.84,-0.69,8.27,-0.09,0.34,0.22
3946,-0.84,-0.69,8.27,-0.06,0.20,0.24
3951,-0.84,-0.69,8.27,-0.05,0.14,0.27
3956,-4.14,0.50,7.62,-0.05,0.14,0.27
3961,-4.14,0.50,7.62,-0.07,0.09,0.27
3968,-4.14,0.50,7.62,-0.11,0.07,0.19
3972,-4.14,0.50,7.62,-0.20,-0.03,-0.01
3977,-1.38,-1.07,8.77,-0.20,-0.03,-0.01
3982,-1.38,-1.07,8.77,-0.23,-0.24,0.01
3986,-1.38,-1.07,8.77,-0.22,-0.34,0.02
3992,-1.38,-1.07,8.77,-0.22,-0.39,0.00
3997,1.72,-0.92,11.22,-0.22,-0.39,0.00
4002,1.72,-0.92,11.22,-0.16,-0.12,-0.04
4007,1.72,-0.92,11.22,-0.16,0.20,-0.03
4012,-1.23,-0.38,9.89,-0.16,0.20,-0.03
4017,-1.23,-0.38,9.89,-0.10,0.42,-0.04
4022,-1.23,-0.38,9.89,-0.10,0.39,-0.04
4028,-9.43,1.65,8.81,-0.10,0.39,-0.04
4032,-9.43,1.65,8.81,-0.10,0.39,-0.05
4036,-9.43,1.65,8.81,-0.11,0.34,-0.07
4042,-0.04,-1.00,8.70,-0.11,0.34,-0.07
4047,2.07,-1.15,8.58,-0.11,0.34,-0.07
4052,2.07,-1.15,8.58,-0.17,-0.25,-0.16
4057,2.07,-1.15,8.58,-0.16,-0.37,-0.18
4062,-1.80,-1.53,6.86,-0.16,-0.37,-0.18
4066,-1.80,-1.53,6.86,-0.14,-0.28,-0.13
4071,-1.80,-1.53,6.86,-0.16,-0.21,-0.10
4077,-1.30,1.19,10.65,-0.16,-0.21,-0.10
4082,-2.14,1.23,10.92,-0.16,-0.21,-0.10
4086,-2.14,1.23,10.92,-0.15,0.15,-0.23
4092,-2.14,1.23,10.92,-0.10,0.22,-0.23
4097,-4.21,1.23,5.94,-0.10,0.22,-0.23
4102,-4.21,1.23,5.94,-0.08,0.27,-0.15
4106,-4.21,1.23,5.94,-0.10,0.19,-0.11
4112,-4.21,1.23,5.94,-0.10,0.02,-0.10
4117,3.83,1.07,10.69,-0.10,0.02,-0.10
4122,3.83,1.07,10.69,-0.15,-0.34,-0.12
4127,3.83,1.07,10.69,-0.16,-0.40,-0.13
4132,1.88,-1.11,12.68,-0.16,-0.40,-0.13
4137,1.88,-1.11,12.68,-0.05,-0.21,-0.12
4142,1.88,-1.11,12.68,-0.06,0.12,-0.06
4147,-1.38,1.04,10.11,-0.06,0.12,-0.06
4152,-1.30,0.69,9.30,-0.06,0.12,-0.06
4157,-1.30,0.69,9.30,-0.06,0.25,-0.03
4162,-1.30,0.69,9.30,-0.11,0.17,-0.03
4166,-1.30,0.69,9.30,-0.11,0.07,-0.06
4171,-1.30,0.69,9.30,-0.09,0.01,-0.11
4177,-1.30,0.69,9.30,-0.07,-0.03,-0.10
4183,1.53,-2.53,9.85,-0.07,-0.03,-0.10
4186,1.53,-2.53,9.85,-0.02,-0.01,0.01
4192,1.53,-2.53,9.85,-0.01,0.03,0.04
4197,1.07,0.61,6.82,-0.01,0.03,0.04
4202,4.06,-0.73,7.51,-0.01,0.03,0.04
4206,4.06,-0.73,7.51,-0.01,-0.12,0.10
4212,4.06,-0.73,7.51,-0.02,-0.15,0.10
4218,0.11,-1.11,8.84,-0.02,-0.15,0.10
4222,0.11,-1.11,8.84,0.00,-0.02,0.07
4227,0.11,-1.11,8.84,0.01,0.15,0.10
4232,0.11,-1.11,8.84,0.03,0.23,0.13
4237,-1.07,-1.04,9.77,0.03,0.23,0.13
4242,-1.07,-1.04,9.77,0.05,0.16,0.16
4246,-1.07,-1.04,9.77,0.03,0.06,0.19
4251,-1.07,-1.04,9.77,0.03,0.00,0.18
4257,-2.76,0.27,7.89,0.03,0.00,0.18
4262,-2.76,0.27,7.89,0.02,-0.05,0.21
4267,-2.76,0.27,7.89,0.01,-0.12,0.24
4272,2.95,-0.54,8.50,0.01,-0.12,0.24
4277,2.95,-0.54,8.50,0.02,-0.20,0.27
4282,2.95,-0.54,8.50,0.05,-0.10,0.29
4287,-4.52,-1.91,10.96,0.05,-0.10,0.29
4292,-4.52,-1.91,10.96,0.07,0.26,0.31
4297,-4.52,-1.91,10.96,0.07,0.30,0.28
4302,0.54,-1.46,8.42,0.07,0.30,0.28
4307,1.15,-1.68,8.31,0.07,0.30,0.28
4312,1.15,-1.68,8.31,0.03,-0.17,0.24
4317,1.15,-1.68,8.31,0.01,-0.30,0.25
4323,2.57,-1.34,10.23,0.01,-0.30,0.25
4326,2.57,-1.34,10.23,0.04,-0.27,0.28
4332,2.57,-1.34,10.23,0.08,-0.07,0.30
4338,1.65,-1.11,10.69,0.08,-0.07,0.30
4341,1.65,-1.11,10.69,0.07,0.24,0.30
4346,1.65,-1.11,10.69,0.07,0.27,0.29
4352,1.65,-1.11,10.69,0.08,0.27,0.29
4357,-5.63,-0.54,8.39,0.08,0.27,0.29
4362,-5.63,-0.54,8.39,0.06,0.23,0.27
4366,-5.63,-0.54,8.39,0.04,0.11,0.27
4371,-5.63,-0.54,8.39,0.03,-0.05,0.27
4377,2.76,-0.04,12.38,0.03,-0.05,0.27
4382,2.76,-0.04,12.38,0.01,-0.28,0.28
4387,2.76,-0.04,12.38,0.01,-0.25,0.27
4393,-1.42,0.92,9.58,0.01,-0.25,0.27
4396,-1.42,0.92,9.58,0.03,0.03,0.29
4402,-1.42,0.92,9.58,0.03,0.14,0.30
4407,-3.10,1.91,8.89,0.03,0.14,0.30
4412,-3.10,1.91,8.89,0.01,0.19,0.30
4417,-3.10,1.91,8.89,-0.01,0.10,0.30
4422,-3.10,1.91,8.89,-0.02,0.04,0.27
4427,-0.04,0.30,10.04,-0.02,0.04,0.27
4432,-0.04,0.30,10.04,-0.07,-0.09,0.24
4437,-0.04,0.30,10.04,-0.08,-0.15,0.24
4442,-1.00,1.27,8.46,-0.08,-0.15,0.24
4447,-1.00,1.27,8.46,-0.09,-0.15,0.27
4452,-1.00,1.27,8.46,-0.09,-0.16,0.28
4457,-0.57,0.84,9.27,-0.09,-0.16,0.28
4462,0.88,1.34,10.15,-0.09,-0.16,0.28
4467,0.88,1.34,10.15,-0.14,-0.13,0.23
4472,0.88,1.34,10.15,-0.11,-0.14,0.24
4478,1.07,-0.30,11.15,-0.11,-0.14,0.24
4482,1.07,-0.30,11.15,-0.10,0.11,0.26
4487,1.07,-0.30,11.15,-0.08,0.16,0.25
4492,1.07,-0.30,11.15,-0.09,0.21,0.24
4498,-2.64,1.49,7.55,-0.09,0.21,0.24
4501,-2.64,1.49,7.55,-0.12,0.17,0.21
4507,-2.64,1.49,7.55,-0.15,0.05,0.18
4512,-2.64,1.49,7.55,-0.16,-0.07,0.14
4517,-2.64,1.49,7.55,-0.18,-0.19,0.12
4522,-2.64,1.49,7.55,-0.18,-0.23,0.13
4527,1.04,-0.61,10.41,-0.18,-0.23,0.13
4533,2.72,-1.42,10.04,-0.18,-0.23,0.13
4536,2.72,-1.42,10.04,-0.14,-0.05,0.13
4542,2.72,-1.42,10.04,-0.15,0.14,0.11
4547,-2.18,0.04,9.50,-0.15,0.14,0.11
4552,-2.18,0.04,9.50,-0.12,0.30,0.10
4557,-2.18,0.04,9.50,-0.12,0.32,0.11
4563,-3.41,0.73,8.77,-0.12,0.32,0.11
4566,-3.41,0.73,8.77,-0.12,0.18,0.12
4572,-3.41,0.73,8.77,-0.13,0.00,0.11
4577,-3.41,0.73,8.77,-0.14,-0.18,0.12
4582,3.68,-0.57,11.80,-0.14,-0.18,0.12
4587,3.68,-0.57,11.80,-0.16,-0.37,0.13
4592,3.68,-0.57,11.80,-0.16,-0.32,0.12
4598,0.46,-0.50,10.88,-0.16,-0.32,0.12
4602,0.46,-0.50,10.88,-0.12,0.13,0.12
4607,0.46,-0.50,10.88,-0.13,0.31,0.11
4612,0.46,-0.50,10.88,-0.11,0.32,0.11
4617,-3.95,0.80,9.92,-0.11,0.32,0.11
4622,-3.95,0.80,9.92,-0.16,0.17,0.10
4627,-3.95,0.80,9.92,-0.17,0.02,0.07
4632,-3.95,0.80,9.92,-0.18,-0.12,0.05
4637,-3.95,0.80,9.92,-0.20,-0.18,0.02
4642,-3.95,0.80,9.92,-0.18,-0.18,0.03
4647,0.61,-0.04,8.35,-0.18,-0.18,0.03
4652,-0.38,0.04,8.78,-0.18,-0.18,0.03
4657,-0.38,0.04,8.78,-0.15,0.03,0.09
4662,-0.38,0.04,8.78,-0.17,0.05,0.07
4667,1.30,0.27,10.88,-0.17,0.05,0.07
4672,1.30,0.27,10.88,-0.17,0.04,0.00
4677,1.30,0.27,10.88,-0.17,0.08,-0.01
4682,-1.91,0.38,7.93,-0.17,0.08,-0.01
4687,-2.76,1.11,6.67,-0.17,0.08,-0.01
4692,-2.76,1.11,6.67,-0.18,0.18,-0.04
4697,-2.76,1.11,6.67,-0.18,0.14,-0.04
4702,-1.19,0.19,10.00,-0.18,0.14,-0.04
4706,-1.19,0.19,10.00,-0.21,0.04,-0.07
4712,-1.19,0.19,10.00,-0.21,-0.03,-0.09
4717,-1.19,0.19,10.00,-0.21,-0.05,-0.11
4722,-0.30,0.11,9.96,-0.21,-0.05,-0.11
4727,-0.30,0.11,9.96,-0.22,-0.04,-0.13
4732,-0.30,0.11,9.96,-0.21,-0.05,-0.13
4737,1.76,-0.61,8.89,-0.21,-0.05,-0.13
4742,1.76,-0.61,8.89,-0.19,0.11,-0.13
4746,1.76,-0.61,8.89,-0.19,0.27,-0.13
4751,1.76,-0.61,8.89,-0.17,0.38,-0.16
4757,-4.67,0.38,9.27,-0.17,0.38,-0.16
4762,-4.67,0.38,9.27,-0.18,0.34,-0.19
4767,-4.67,0.38,9.27,-0.18,0.21,-0.20
4772,0.96,-0.54,9.61,-0.18,0.21,-0.20
4777,0.96,-0.54,9.61,-0.18,-0.12,-0.21
4782,0.96,-0.54,9.61,-0.18,-0.22,-0.19
4786,0.88,-0.38,8.46,-0.18,-0.22,-0.19
4792,1.76,-0.11,8.16,-0.18,-0.22,-0.19
4797,1.76,-0.11,8.16,-0.17,-0.17,-0.22
4802,1.76,-0.11,8.16,-0.15,0.00,-0.22
4807,-3.10,-0.57,10.15,-0.15,0.00,-0.22
4812,-3.10,-0.57,10.15,-0.14,0.26,-0.25
4817,-3.10,-0.57,10.15,-0.15,0.26,-0.26
4822,-3.10,-0.57,10.15,-0.13,0.17,-0.27
4827,-3.10,-0.57,10.15,-0.13,0.04,-0.26
4832,-3.10,-0.57,10.15,-0.11,-0.08,-0.25
4837,-3.10,-0.57,10.15,-0.10,-0.12,-0.24
4842,-0.77,-0.11,9.04,-0.10,-0.12,-0.24
4847,-0.77,-0.11,9.04,-0.06,0.05,-0.21
4852,-0.77,-0.11,9.04,-0.06,0.17,-0.20
4857,-0.77,-0.11,9.04,-0.06,0.21,-0.20
4862,-0.77,-0.11,9.04,-0.06,0.19,-0.20
4867,-0.77,-0.11,9.04,-0.05,0.13,-0.19
4872,-0.77,-0.11,9.04,-0.05,0.06,-0.20
4877,-3.79,0.77,6.47,-0.05,0.06,-0.20
4882,-3.79,0.77,6.47,-0.06,-0.02,-0.19
4887,-3.79,0.77,6.47,-0.05,-0.10,-0.19
4892,-3.79,0.77,6.47,-0.07,-0.16,-0.18
4897,-3.79,0.77,6.47,-0.08,-0.20,-0.18
4902,-3.79,0.77,6.47,-0.07,-0.21,-0.18
4907,-3.79,0.77,6.47,-0.05,-0.20,-0.16
4912,0.65,-1.27,11.22,-0.05,-0.20,-0.16
4917,0.65,-1.27,11.22,-0.04,-0.08,-0.13
4922,0.65,-1.27,11.22,-0.03,0.01,-0.10
4827,-3.10,-0.57,10.15,-0.13,0.04,-0.26
4832,-3.10,-0.57,10.15,-0.11,-0.08,-0.25
4837,-3.10,-0.57,10.15,-0.10,-0.12,-0.24
4842,-0.77,-0.11,9.04,-0.10,-0.12,-0.24
4847,-0.77,-0.11,9.04,-0.06,0.05,-0.21
4852,-0.77,-0.11,9.04,-0.06,0.17,-0.20
4857,-0.77,-0.11,9.04,-0.06,0.21,-0.20
4862,-0.77,-0.11,9.04,-0.06,0.19,-0.20
4867,-0.77,-0.11,9.04,-0.05,0.13,-0.19
4872,-0.77,-0.11,9.04,-0.05,0.06,-0.20
4877,-3.79,0.77,6.47,-0.05,0.06,-0.20
4882,-3.79,0.77,6.47,-0.06,-0.02,-0.19
4887,-3.79,0.77,6.47,-0.05,-0.10,-0.19
4892,-3.79,0.77,6.47,-0.07,-0.16,-0.18
4897,-3.79,0.77,6.47,-0.08,-0.20,-0.18
