timestamp,accX,accY,accZ,gyroX,gyroY,gyroZ
Left
6,0.42,-1.61,9.80,0.08,-0.06,-0.08
17,0.42,-1.61,9.80,0.08,-0.06,-0.05
19,0.11,-1.19,9.16,0.08,-0.06,-0.05
21,0.08,-1.49,9.65,0.08,-0.06,-0.05
25,-0.54,-1.65,9.84,0.08,-0.06,-0.05
30,-0.54,-1.65,9.84,0.27,-0.07,0.68
36,-1.00,-1.30,9.50,0.27,-0.07,0.68
41,-1.00,-1.30,9.50,0.27,-0.04,0.67
45,-1.00,-1.30,9.50,0.26,-0.03,0.66
51,-0.15,-1.76,8.81,0.26,-0.03,0.66
55,-0.15,-1.76,8.81,0.25,-0.06,0.65
60,-0.15,-1.76,8.81,0.23,-0.09,0.65
66,-0.15,-1.76,8.81,0.21,-0.09,0.64
71,-0.15,-1.76,8.81,0.20,-0.07,0.62
76,-0.15,-1.76,8.81,0.19,-0.04,0.60
81,-0.15,-1.76,8.81,0.18,0.01,0.59
86,-0.23,0.65,11.38,0.18,0.01,0.59
91,-0.23,0.65,11.38,0.18,0.08,0.60
95,-0.23,0.65,11.38,0.17,0.08,0.58
101,-0.23,0.65,11.38,0.15,0.06,0.56
106,-0.23,0.65,11.38,0.15,0.04,0.55
110,-0.23,0.65,11.38,0.15,0.02,0.55
116,-0.23,0.65,11.38,0.15,0.01,0.54
121,0.08,0.84,9.27,0.15,0.01,0.54
126,0.08,0.84,9.27,0.09,-0.02,0.47
130,0.08,0.84,9.27,0.05,-0.00,0.42
136,-1.84,2.03,10.57,0.05,-0.00,0.42
141,-1.84,2.03,10.57,0.00,0.04,0.32
145,-1.84,2.03,10.57,-0.03,0.04,0.30
151,-1.84,2.03,10.57,-0.04,0.00,0.29
156,0.04,-0.08,9.04,-0.04,0.00,0.29
161,0.04,-0.08,9.04,-0.05,-0.04,0.28
165,0.04,-0.08,9.04,-0.05,-0.02,0.27
171,-0.96,2.14,9.93,-0.05,-0.02,0.27
175,-0.96,2.14,9.93,-0.04,0.09,0.25
180,-0.96,2.14,9.93,-0.03,0.14,0.26
186,-0.96,2.14,9.93,-0.04,0.17,0.25
191,-1.61,1.72,9.93,-0.04,0.17,0.25
196,-1.61,1.72,9.93,-0.06,0.15,0.22
200,-1.61,1.72,9.93,-0.07,0.11,0.21
206,-0.80,2.91,9.39,-0.07,0.11,0.21
211,-0.80,2.91,9.39,-0.12,0.03,0.17
215,-0.80,2.91,9.39,-0.14,0.02,0.13
221,-0.80,2.91,9.39,-0.18,0.04,0.10
226,0.11,2.45,10.96,-0.18,0.04,0.10
231,0.11,2.45,10.96,-0.21,0.07,0.09
235,0.11,2.45,10.96,-0.22,0.10,0.09
241,-1.27,2.34,9.89,-0.22,0.10,0.09
246,-1.27,2.34,9.89,-0.23,0.13,0.04
250,-1.27,2.34,9.89,-0.22,0.12,0.01
256,-1.27,2.34,9.89,-0.20,0.10,0.05
261,-1.46,2.14,7.59,-0.20,0.10,0.05
266,-1.46,2.14,7.59,-0.21,0.07,0.03
271,-1.46,2.14,7.59,-0.22,0.05,-0.04
276,0.30,1.15,9.80,-0.22,0.05,-0.04
281,0.30,1.15,9.80,-0.27,-0.02,-0.08
285,0.30,1.15,9.80,-0.30,-0.05,-0.07
291,1.68,0.00,11.84,-0.30,-0.05,-0.07
295,1.68,0.00,11.84,-0.30,-0.01,-0.05
300,1.68,0.00,11.84,-0.29,0.07,-0.07
306,1.68,0.00,11.84,-0.24,0.18,-0.10
311,-0.69,0.96,9.69,-0.24,0.18,-0.10
316,-0.69,0.96,9.69,-0.20,0.29,-0.13
320,-0.69,0.96,9.69,-0.18,0.26,-0.13
326,-0.69,0.96,9.69,-0.18,0.18,-0.11
331,-0.69,0.96,9.69,-0.20,0.11,-0.08
336,-0.69,0.96,9.69,-0.23,0.06,-0.10
341,-0.69,0.96,9.69,-0.22,0.04,-0.13
346,-1.95,1.61,7.21,-0.22,0.04,-0.13
351,-1.95,1.61,7.21,-0.21,0.06,-0.22
355,-1.95,1.61,7.21,-0.22,0.05,-0.25
361,-0.38,0.84,8.74,-0.22,0.05,-0.25
366,-0.38,0.84,8.74,-0.26,-0.02,-0.25
370,-0.38,0.84,8.74,-0.26,-0.07,-0.24
376,-0.38,0.84,8.74,-0.27,-0.09,-0.24
381,2.80,0.23,11.04,-0.27,-0.09,-0.24
386,2.80,0.23,11.04,-0.24,0.00,-0.18
391,2.80,0.23,11.04,-0.22,0.08,-0.16
396,-0.04,0.11,10.39,-0.22,0.08,-0.16
401,-0.04,0.11,10.39,-0.17,0.24,-0.15
405,-0.04,0.11,10.39,-0.13,0.25,-0.15
411,-0.04,0.11,10.39,-0.10,0.23,-0.10
416,0.57,-0.42,9.20,-0.10,0.23,-0.10
421,0.57,-0.42,9.20,-0.09,0.13,-0.02
426,0.57,-0.42,9.20,-0.09,0.09,-0.03
431,0.00,0.54,8.96,-0.09,0.09,-0.03
436,0.00,0.54,8.96,-0.13,0.04,-0.12
440,0.00,0.54,8.96,-0.15,0.02,-0.13
446,0.00,0.54,8.96,-0.15,0.02,-0.13
451,0.00,0.54,8.96,-0.17,0.00,-0.14
456,0.00,0.54,8.96,-0.19,0.01,-0.16
460,0.00,0.54,8.96,-0.17,0.05,-0.17
466,0.00,0.54,8.96,-0.16,0.11,-0.20
471,0.00,0.54,8.96,-0.14,0.15,-0.24
475,0.00,0.54,8.96,-0.12,0.16,-0.27
481,-1.34,0.08,7.39,-0.12,0.16,-0.27
486,-1.53,0.50,8.08,-0.12,0.16,-0.27
490,-1.53,0.50,8.08,-0.14,-0.01,-0.30
496,-1.53,0.50,8.08,-0.16,-0.06,-0.33
501,-0.69,0.80,9.20,-0.16,-0.06,-0.33
506,-0.69,0.80,9.20,-0.15,-0.06,-0.33
510,-0.69,0.80,9.20,-0.14,-0.01,-0.32
516,-1.11,1.19,7.78,-0.14,-0.01,-0.32
521,-1.11,1.19,7.78,-0.15,0.04,-0.41
525,-1.11,1.19,7.78,-0.14,0.02,-0.45
531,-1.11,1.19,7.78,-0.14,0.01,-0.46
536,-0.46,-0.38,9.50,-0.14,0.01,-0.46
541,-0.46,-0.38,9.50,-0.12,-0.02,-0.41
545,-0.46,-0.38,9.50,-0.13,-0.02,-0.39
551,-2.22,1.49,10.38,-0.13,-0.02,-0.39
555,-2.22,1.49,10.38,-0.11,0.06,-0.39
560,-2.22,1.49,10.38,-0.09,0.08,-0.40
566,-2.22,1.49,10.38,-0.09,0.04,-0.40
571,-1.46,-0.08,9.27,-0.09,0.04,-0.40
576,-1.46,-0.08,9.27,-0.06,-0.02,-0.33
580,-1.46,-0.08,9.27,-0.04,-0.07,-0.29
586,-1.46,-0.08,9.27,-0.03,-0.11,-0.28
591,-1.46,-0.08,9.27,-0.01,-0.08,-0.24
595,-1.46,-0.08,9.27,-0.02,-0.03,-0.24
601,-1.46,-0.08,9.27,-0.01,0.01,-0.27
606,-3.83,0.34,8.84,-0.01,0.01,-0.27
611,-3.83,0.34,8.84,0.03,0.05,-0.32
615,-3.83,0.34,8.84,0.03,0.03,-0.30
621,-0.69,-2.61,7.66,0.03,0.03,-0.30
626,-0.69,-2.61,7.66,0.04,-0.13,-0.28
630,-0.69,-2.61,7.66,0.05,-0.20,-0.27
636,-0.69,-2.61,7.66,0.05,-0.21,-0.27
641,-0.69,-2.61,7.66,0.07,-0.19,-0.26
645,-0.69,-2.61,7.66,0.11,-0.15,-0.24
651,-0.69,-2.61,7.66,0.13,-0.07,-0.23
656,-1.42,-2.26,10.49,0.13,-0.07,-0.23
661,-1.42,-2.26,10.49,0.19,0.05,-0.19
665,-1.42,-2.26,10.49,0.22,0.03,-0.16
671,-1.42,-2.26,10.49,0.23,-0.01,-0.13
675,-1.42,-2.26,10.49,0.24,-0.04,-0.10
680,-1.42,-2.26,10.49,0.23,-0.05,-0.11
686,-1.42,-2.26,10.49,0.25,-0.06,-0.11
691,0.34,-2.03,10.00,0.25,-0.06,-0.11
695,0.34,-2.03,10.00,0.29,-0.05,-0.01
700,0.34,-2.03,10.00,0.29,-0.03,0.05
706,0.34,-2.03,10.00,0.28,0.00,0.03
710,0.34,-2.03,10.00,0.28,-0.01,-0.00
715,0.34,-2.03,10.00,0.29,-0.06,-0.02
720,0.34,-2.03,10.00,0.31,-0.12,0.04
726,0.34,-2.03,10.00,0.33,-0.16,0.12
730,0.34,-2.03,10.00,0.34,-0.19,0.16
735,0.34,-2.03,10.00,0.34,-0.19,0.14
740,-0.42,-1.04,8.88,0.34,-0.19,0.14
746,-0.27,-1.38,10.30,0.34,-0.19,0.14
750,-0.27,-1.38,10.30,0.32,-0.14,0.16
755,-0.27,-1.38,10.30,0.30,-0.15,0.22
761,3.07,-1.95,13.68,0.30,-0.15,0.22
765,3.07,-1.95,13.68,0.29,-0.08,0.36
770,3.07,-1.95,13.68,0.31,0.00,0.38
776,-0.19,-1.46,9.54,0.31,0.00,0.38
780,-0.19,-1.46,9.54,0.44,0.16,0.42
785,-0.19,-1.46,9.54,0.48,0.20,0.44
791,-0.19,-1.46,9.54,0.50,0.17,0.46
795,-0.19,-1.46,9.54,0.49,0.09,0.48
800,-0.19,-1.46,9.54,0.47,-0.00,0.50
806,-0.19,-1.46,9.54,0.44,-0.08,0.50
811,-1.76,-1.15,8.01,0.44,-0.08,0.50
815,-2.41,0.08,7.59,0.44,-0.08,0.50
820,-2.41,0.08,7.59,0.38,-0.08,0.45
826,-2.41,0.08,7.59,0.38,-0.08,0.41
830,-2.41,0.08,7.59,0.36,-0.11,0.38
835,-2.41,0.08,7.59,0.34,-0.15,0.38
841,-2.41,0.08,7.59,0.33,-0.19,0.40
846,-2.41,0.08,7.59,0.33,-0.23,0.44
850,-2.41,0.08,7.59,0.31,-0.25,0.47
855,-2.41,0.08,7.59,0.34,-0.21,0.53
860,-2.41,0.08,7.59,0.37,-0.15,0.60
866,0.11,-0.84,11.22,0.37,-0.15,0.60
870,0.11,-0.84,11.22,0.42,0.06,0.69
875,0.11,-0.84,11.22,0.43,0.14,0.67
881,-1.61,-0.92,10.07,0.43,0.14,0.67
885,-1.61,-0.92,10.07,0.46,0.16,0.68
890,-1.61,-0.92,10.07,0.45,0.10,0.72
896,-1.61,-0.92,10.07,0.42,0.02,0.74
900,-1.61,-0.92,10.07,0.38,-0.05,0.73
905,-1.61,-0.92,10.07,0.35,-0.09,0.70
910,-1.61,-0.92,10.07,0.33,-0.10,0.67
916,-1.07,-0.96,9.61,0.33,-0.10,0.67
920,-1.07,-0.96,9.61,0.31,-0.09,0.66
925,-1.07,-0.96,9.61,0.32,-0.08,0.63
931,-1.07,-0.96,9.61,0.33,-0.06,0.62
935,-1.07,-0.96,9.61,0.34,-0.01,0.61
940,-1.07,-0.96,9.61,0.36,0.02,0.61
946,-1.07,-0.96,9.61,0.38,0.01,0.60
950,-1.07,-0.96,9.61,0.36,-0.02,0.61
955,-1.07,-0.96,9.61,0.32,-0.07,0.59
961,-1.07,-0.96,9.61,0.30,-0.11,0.55
966,-1.07,-0.96,9.61,0.28,-0.13,0.51
970,-1.07,-0.96,9.61,0.27,-0.11,0.48
975,-1.07,-0.96,9.61,0.27,-0.07,0.45
980,-1.07,-0.96,9.61,0.28,-0.04,0.43
985,-1.07,-0.96,9.61,0.28,-0.02,0.42
990,-0.50,-1.76,9.69,0.28,-0.02,0.42
995,-0.50,-1.76,9.69,0.28,0.01,0.39
1001,-0.50,-1.76,9.69,0.26,0.03,0.40
1005,-0.50,-1.76,9.69,0.27,0.02,0.41
1010,-0.50,-1.76,9.69,0.28,0.02,0.45
1016,-0.50,-1.76,9.69,0.28,0.05,0.50
1020,-0.50,-1.76,9.69,0.30,0.09,0.52
1025,-0.50,-1.76,9.69,0.30,0.09,0.53
1030,-0.50,-1.76,9.69,0.32,0.06,0.54
1036,-0.57,-0.04,8.66,0.32,0.06,0.54
1040,-0.57,-0.04,8.66,0.32,0.01,0.64
1045,-0.57,-0.04,8.66,0.33,-0.02,0.69
1051,-0.57,-0.04,8.66,0.30,-0.05,0.70
1055,-0.57,-0.04,8.66,0.27,-0.07,0.71
1060,-0.57,-0.04,8.66,0.25,-0.05,0.71
1065,-0.57,-0.04,8.66,0.22,-0.02,0.69
1071,-2.41,-0.11,10.00,0.22,-0.02,0.69
1075,-2.41,-0.11,10.00,0.23,0.04,0.64
1080,-2.41,-0.11,10.00,0.25,0.03,0.64
1086,-2.41,-0.11,10.00,0.26,0.01,0.65
1090,-2.41,-0.11,10.00,0.28,-0.01,0.68
1096,-2.41,-0.11,10.00,0.28,-0.04,0.67
1100,-2.41,-0.11,10.00,0.28,-0.06,0.66
1106,-2.41,-0.11,10.00,0.27,-0.05,0.65
1110,-2.41,-0.11,10.00,0.25,-0.02,0.65
1115,-2.41,-0.11,10.00,0.27,0.01,0.64
1120,-2.41,-0.11,10.00,0.28,0.04,0.63
1126,-1.11,-2.07,8.46,0.28,0.04,0.63
1130,-1.11,-2.07,8.46,0.32,0.06,0.66
1136,-1.11,-2.07,8.46,0.29,0.05,0.65
1141,-1.11,-2.07,8.46,0.29,0.03,0.63
1145,1.27,-1.57,11.07,0.29,0.03,0.63
1150,1.27,-1.57,11.07,0.27,0.00,0.65
1156,1.27,-1.57,11.07,0.26,-0.02,0.69
1161,1.27,-1.57,11.07,0.25,-0.01,0.73
1165,1.11,-0.69,10.39,0.25,-0.01,0.73
1170,1.11,-0.69,10.39,0.27,0.07,0.79
1176,1.46,-0.34,10.23,0.27,0.07,0.79
1180,1.46,-0.34,10.23,0.30,0.13,0.83
1185,1.46,-0.34,10.23,0.33,0.12,0.88
1191,1.46,-0.34,10.23,0.33,0.09,0.93
1195,1.46,-0.34,10.23,0.31,0.06,0.96
1200,1.46,-0.34,10.23,0.29,0.02,0.98
1206,1.46,-0.34,10.23,0.27,-0.01,0.99
1210,1.46,-0.34,10.23,0.25,-0.03,1.01
1216,1.46,-0.34,10.23,0.21,-0.03,1.04
1220,1.46,-0.34,10.23,0.20,-0.01,1.08
1225,1.46,-0.34,10.23,0.18,0.03,1.09
1230,1.84,0.61,11.19,0.18,0.03,1.09
1236,1.84,0.61,11.19,0.16,0.07,1.08
1241,1.84,0.61,11.19,0.17,0.11,1.05
1246,1.84,0.61,11.19,0.18,0.11,1.05
1250,1.04,-0.46,9.69,0.18,0.11,1.05
1255,0.73,-0.96,10.41,0.18,0.11,1.05
1261,0.73,-0.96,10.41,0.12,0.08,1.02
1266,0.73,-0.96,10.41,0.09,0.10,1.01
1270,0.73,-0.96,10.41,0.08,0.14,0.97
1276,0.73,-0.96,10.41,0.07,0.17,0.92
1281,0.73,-0.96,10.41,0.07,0.17,0.86
1285,-2.03,1.19,8.84,0.07,0.17,0.86
1290,-2.34,0.34,8.43,0.07,0.17,0.86
1296,-2.34,0.34,8.43,0.03,0.10,0.73
1301,0.65,0.08,10.88,0.03,0.10,0.73
1305,-0.61,1.30,10.80,0.03,0.10,0.73
1311,-0.61,1.30,10.80,-0.06,0.07,0.65
1316,-0.61,1.30,10.80,-0.06,0.12,0.63
1320,-1.19,2.14,11.26,-0.06,0.12,0.63
1326,-1.19,2.14,11.26,-0.06,0.24,0.60
1331,-1.19,2.14,11.26,-0.06,0.31,0.57
1335,-1.95,2.38,10.95,-0.06,0.31,0.57
1340,-2.41,1.38,11.22,-0.06,0.31,0.57
1345,-1.53,1.91,10.15,-0.06,0.31,0.57
1350,-1.53,1.91,10.15,-0.06,0.32,0.50
1355,-1.53,1.91,10.15,-0.07,0.28,0.49
1360,-1.53,1.91,10.15,-0.10,0.28,0.45
1366,-1.53,1.91,10.15,-0.11,0.29,0.40
1371,-3.68,1.72,8.46,-0.11,0.29,0.40
1375,-3.87,1.11,9.73,-0.11,0.29,0.40
1380,-3.87,1.11,9.73,-0.16,0.19,0.20
1386,-2.41,1.07,9.61,-0.16,0.19,0.20
1391,-2.41,1.07,9.61,-0.20,0.08,0.19
1396,-3.56,1.95,9.39,-0.20,0.08,0.19
1400,-1.91,2.61,8.73,-0.20,0.08,0.19
1405,-2.26,1.34,9.61,-0.20,0.08,0.19
1410,-2.26,1.34,9.61,-0.21,0.17,0.04
1416,-2.26,1.34,9.61,-0.21,0.20,0.02
1421,-2.26,1.34,9.61,-0.20,0.22,-0.01
1425,-3.64,0.88,9.08,-0.20,0.22,-0.01
1431,-2.49,-0.15,8.66,-0.20,0.22,-0.01
1435,-2.49,-0.15,8.66,-0.17,0.23,-0.05
1440,-2.49,-0.15,8.66,-0.17,0.17,-0.07
1446,-2.49,-0.15,8.66,-0.18,0.12,-0.09
1451,-2.49,-0.15,8.66,-0.21,0.05,-0.12
1455,0.88,-1.04,9.65,-0.21,0.05,-0.12
1460,1.76,-0.65,10.84,-0.21,0.05,-0.12
1466,1.76,-0.65,10.84,-0.18,0.03,-0.05
1471,1.76,-0.65,10.84,-0.16,0.07,-0.02
1475,0.38,0.69,11.07,-0.16,0.07,-0.02
1480,1.11,-0.19,10.84,-0.16,0.07,-0.02
1486,1.11,-0.19,10.84,-0.09,0.26,0.05
1491,1.11,-0.19,10.84,-0.07,0.25,0.09
1495,2.18,-1.00,8.54,-0.07,0.25,0.09
1500,1.68,-1.00,9.08,-0.07,0.25,0.09
1506,1.68,-1.00,9.08,-0.02,0.09,0.30
1511,1.68,-1.00,9.08,-0.03,0.02,0.33
1516,2.34,0.04,9.84,-0.03,0.02,0.33
1520,0.73,-0.84,10.53,-0.03,0.02,0.33
1525,-0.61,-0.04,10.80,-0.03,0.02,0.33
1530,-0.61,-0.04,10.80,0.00,0.08,0.43
1536,-0.61,-0.04,10.80,0.01,0.14,0.45
1541,-0.61,-0.04,10.80,0.03,0.15,0.47
1545,1.34,-2.22,9.54,0.03,0.15,0.47
1550,1.04,-1.53,9.96,0.03,0.15,0.47
1556,1.04,-1.53,9.96,0.04,0.01,0.61
1560,0.46,-1.34,10.11,0.04,0.01,0.61
1565,0.57,-1.19,10.73,0.04,0.01,0.61
1571,0.57,-1.19,10.73,0.05,0.06,0.59
1576,0.57,-1.19,10.73,0.06,0.10,0.62
1580,-0.27,-1.19,10.00,0.06,0.10,0.62
1585,-0.30,-1.88,9.88,0.06,0.10,0.62
1591,-0.30,-1.88,9.88,0.09,0.14,0.67
1595,1.00,-1.27,9.65,0.09,0.14,0.67
1600,0.38,-1.04,9.80,0.09,0.14,0.67
1606,1.27,-0.80,9.65,0.09,0.14,0.67
1610,0.27,-0.19,9.65,0.09,0.14,0.67
1615,-0.92,0.04,9.58,0.09,0.14,0.67
1620,-0.92,0.04,9.58,0.05,0.12,0.69
1626,-0.92,0.04,9.58,0.06,0.16,0.65
1630,-0.92,0.04,9.58,0.06,0.18,0.62
1635,-0.92,0.04,9.58,0.07,0.18,0.61
1641,-0.92,0.04,9.58,0.08,0.18,0.62
1646,-0.92,0.04,9.58,0.08,0.14,0.62
1650,-0.92,0.04,9.58,0.04,0.03,0.57
1655,-2.03,0.84,8.39,0.04,0.03,0.57
1660,-2.03,0.84,8.39,0.03,0.00,0.51
1665,-2.03,0.84,8.39,0.00,-0.02,0.46
1670,-2.03,0.84,8.39,-0.03,-0.04,0.43
1676,-2.03,0.84,8.39,-0.06,-0.03,0.45
1680,0.69,0.42,12.79,-0.06,-0.03,0.45
1685,0.38,1.00,12.83,-0.06,-0.03,0.45
1691,0.38,1.00,12.83,-0.03,0.22,0.52
1696,0.38,1.00,12.83,0.01,0.30,0.49
1700,-1.46,1.61,8.20,0.01,0.30,0.49
1705,-2.26,1.49,7.55,0.01,0.30,0.49
1711,-2.26,1.49,7.55,0.06,0.37,0.45
1715,-1.68,1.15,8.12,0.06,0.37,0.45
1720,-0.34,1.07,8.01,0.06,0.37,0.45
1726,-0.34,1.07,8.01,-0.06,0.13,0.32
1731,-0.34,1.07,8.01,-0.12,0.04,0.28
1735,-2.49,1.68,8.24,-0.12,0.04,0.28
1740,-3.18,2.95,7.23,-0.12,0.04,0.28
1746,-3.18,2.95,7.23,-0.15,0.05,0.14
1750,-4.60,3.07,7.43,-0.15,0.05,0.14
1755,-1.99,1.99,7.89,-0.15,0.05,0.14
1760,-0.19,1.80,9.00,-0.15,0.05,0.14
1766,-1.38,1.95,9.20,-0.15,0.05,0.14
1770,2.30,0.73,11.60,-0.15,0.05,0.14
1775,2.61,1.53,11.11,-0.15,0.05,0.14
1781,2.61,1.53,11.11,-0.23,-0.07,-0.01
1785,-0.77,4.10,11.95,-0.23,-0.07,-0.01
1790,-1.07,4.02,11.61,-0.23,-0.07,-0.01
1796,-1.88,2.91,11.64,-0.23,-0.07,-0.01
1800,-2.03,1.91,8.12,-0.23,-0.07,-0.01
1805,-2.30,1.15,7.51,-0.23,-0.07,-0.01
1810,-3.71,0.92,6.93,-0.23,-0.07,-0.01
1816,-3.71,0.92,6.93,-0.11,0.30,-0.13
1820,-1.34,2.95,6.86,-0.11,0.30,-0.13
1825,-1.80,2.99,8.35,-0.11,0.30,-0.13
1831,-2.07,3.83,8.96,-0.11,0.30,-0.13
1835,0.50,2.84,8.70,-0.11,0.30,-0.13
1840,-0.04,1.88,8.92,-0.11,0.30,-0.13
1845,-1.61,1.76,8.54,-0.11,0.30,-0.13
1851,-1.61,1.76,8.54,-0.30,-0.07,-0.41
1855,-0.15,1.65,8.36,-0.30,-0.07,-0.41
1860,-0.04,0.30,7.70,-0.30,-0.07,-0.41
1866,1.07,-0.15,9.61,-0.30,-0.07,-0.41
1870,1.72,0.34,9.89,-0.30,-0.07,-0.41
1875,1.76,0.15,9.12,-0.30,-0.07,-0.41
1880,0.54,0.50,8.92,-0.30,-0.07,-0.41
1886,1.19,1.11,8.93,-0.30,-0.07,-0.41
1890,0.27,-1.07,7.39,-0.30,-0.07,-0.41
1895,0.00,-1.04,6.93,-0.30,-0.07,-0.41
1900,0.57,-0.69,7.59,-0.30,-0.07,-0.41
1906,0.57,-0.69,7.59,-0.04,0.00,-0.18
1911,1.23,-2.30,9.85,-0.04,0.00,-0.18
1915,2.45,-1.68,10.95,-0.04,0.00,-0.18
1920,2.45,-1.30,11.49,-0.04,0.00,-0.18
1925,2.22,0.11,11.68,-0.04,0.00,-0.18
1930,1.91,-0.19,11.34,-0.04,0.00,-0.18
1936,1.95,-0.77,10.69,-0.04,0.00,-0.18
1940,2.14,-1.27,9.96,-0.04,0.00,-0.18
1945,1.80,-1.80,9.46,-0.04,0.00,-0.18
1950,0.92,-1.68,8.84,-0.04,0.00,-0.18
1956,0.92,-1.68,8.84,0.16,0.07,0.28
1960,0.65,-1.99,9.34,0.16,0.07,0.28
1965,0.23,-1.80,10.15,0.16,0.07,0.28
1971,1.04,-0.96,10.27,0.16,0.07,0.28
1976,1.91,-2.03,10.65,0.16,0.07,0.28
1980,1.91,-2.03,10.65,0.17,-0.06,0.56
1985,-0.61,-0.92,8.62,0.17,-0.06,0.56
1990,-2.03,-1.57,8.82,0.17,-0.06,0.56
1995,-2.64,-1.61,7.89,0.17,-0.06,0.56
2000,-2.22,-2.84,7.97,0.17,-0.06,0.56
2006,-1.49,-3.03,7.86,0.17,-0.06,0.56
2011,-0.34,-3.10,9.34,0.17,-0.06,0.56
2015,-0.34,-3.10,9.34,0.26,-0.19,0.76
2020,-0.34,-3.10,9.34,0.25,-0.19,0.82
2025,-1.07,-1.11,11.76,0.25,-0.19,0.82
2030,-0.42,-0.88,11.19,0.25,-0.19,0.82
2036,0.04,-1.04,9.73,0.25,-0.19,0.82
2040,-1.76,-0.84,9.39,0.25,-0.19,0.82
2045,-1.27,-1.72,10.65,0.25,-0.19,0.82
2050,-0.27,-2.14,10.31,0.25,-0.19,0.82
2056,-0.34,-2.14,10.69,0.25,-0.19,0.82
2060,-2.87,-1.04,10.96,0.25,-0.19,0.82
2065,-1.65,-0.65,10.69,0.25,-0.19,0.82
2071,-1.34,-0.73,10.73,0.25,-0.19,0.82
2075,-1.11,-0.04,10.00,0.25,-0.19,0.82
2080,-2.41,-1.42,10.34,0.25,-0.19,0.82
2085,-2.91,-0.30,10.15,0.25,-0.19,0.82
2091,-3.29,-1.07,9.12,0.25,-0.19,0.82
2096,-3.60,-1.04,8.93,0.25,-0.19,0.82
2100,-3.60,-1.04,8.93,0.32,0.08,0.97
2105,-4.25,-0.34,7.16,0.32,0.08,0.97
2110,-2.95,-0.19,8.77,0.32,0.08,0.97
2115,-3.79,-0.65,8.54,0.32,0.08,0.97
2120,-3.29,-0.69,9.27,0.32,0.08,0.97
2126,-1.95,-1.72,11.54,0.32,0.08,0.97
2131,0.30,-1.95,12.91,0.32,0.08,0.97
2135,0.30,-1.95,12.91,0.14,-0.13,0.78
2140,0.30,-1.95,12.91,0.15,-0.03,0.81
2146,-0.57,-0.88,12.87,0.15,-0.03,0.81
2151,-2.26,-1.15,11.26,0.15,-0.03,0.81
2155,-2.26,-1.15,11.26,0.24,0.27,0.68
2160,-2.87,-1.61,9.23,0.24,0.27,0.68
2166,-2.87,-1.61,9.23,0.28,0.32,0.67
2171,-2.07,-1.88,8.70,0.28,0.32,0.67
2175,-2.07,-1.68,9.54,0.28,0.32,0.67
2180,-3.68,-0.57,9.27,0.28,0.32,0.67
2185,-3.52,-0.30,7.59,0.28,0.32,0.67
2190,-2.99,0.34,7.93,0.28,0.32,0.67
2196,-3.68,0.42,7.74,0.28,0.32,0.67
2201,-3.03,0.11,8.58,0.28,0.32,0.67
2205,-3.03,0.11,8.58,0.17,-0.01,0.35
2210,-0.50,0.11,9.80,0.17,-0.01,0.35
2215,0.11,-0.46,9.35,0.17,-0.01,0.35
2220,1.27,-0.42,10.19,0.17,-0.01,0.35
2225,1.27,-0.42,10.19,0.08,-0.05,0.32
2230,0.88,-0.38,10.15,0.08,-0.05,0.32
2235,0.88,-0.38,10.15,0.09,-0.03,0.34
2241,0.88,-0.38,10.15,0.13,0.02,0.37
2246,0.04,0.08,9.08,0.13,0.02,0.37
2251,-1.15,0.96,6.66,0.13,0.02,0.37
2255,-1.15,0.96,6.66,0.25,0.31,0.49
2260,-1.15,0.96,6.66,0.28,0.30,0.48
2266,-3.87,0.65,3.91,0.28,0.30,0.48
2271,1.34,-0.65,7.73,0.28,0.30,0.48
2275,1.34,-0.65,7.73,0.07,-0.22,0.45
2280,1.34,-0.65,7.73,-0.03,-0.41,0.51
2285,9.58,-2.18,20.07,-0.03,-0.41,0.51
2290,7.47,-2.34,20.15,-0.03,-0.41,0.51
2296,5.02,-1.11,16.55,-0.03,-0.41,0.51
2300,0.04,-0.88,11.64,-0.03,-0.41,0.51
2306,-1.95,-1.49,10.53,-0.03,-0.41,0.51
2310,-1.95,-1.49,10.53,0.48,0.61,1.04
2315,-1.07,-4.83,7.89,0.48,0.61,1.04
2320,-0.88,-4.75,8.39,0.48,0.61,1.04
2325,-0.08,-4.18,8.35,0.48,0.61,1.04
2331,1.00,-2.84,8.73,0.48,0.61,1.04
2336,-0.96,1.72,8.58,0.48,0.61,1.04
2340,-0.96,1.72,8.58,0.27,0.01,1.29
2345,-3.14,2.45,7.16,0.27,0.01,1.29
2351,-3.26,1.88,7.20,0.27,0.01,1.29
2356,-0.96,-1.42,8.81,0.27,0.01,1.29
2360,-0.96,-1.42,8.81,0.07,-0.21,0.90
2365,3.29,-4.41,12.41,0.07,-0.21,0.90
2370,3.56,-3.37,12.91,0.07,-0.21,0.90
2376,3.10,-2.26,13.71,0.07,-0.21,0.90
2380,3.10,-2.26,13.71,0.19,-0.08,1.34
2385,-1.38,0.30,13.68,0.19,-0.08,1.34
2390,-1.34,-0.08,12.34,0.19,-0.08,1.34
2396,-1.61,-0.84,12.11,0.19,-0.08,1.34
2400,-1.61,-0.84,12.11,0.35,0.48,1.35
2405,0.27,-3.68,9.42,0.35,0.48,1.35
2410,0.30,-2.53,9.35,0.35,0.48,1.35
2416,1.07,-2.41,9.04,0.35,0.48,1.35
2420,0.69,-0.57,8.50,0.35,0.48,1.35
2425,0.69,-0.57,8.50,0.28,0.21,1.51
2431,0.69,-0.57,8.50,0.23,0.16,1.46
2436,0.69,-0.57,8.50,0.15,0.18,1.25
2442,-4.10,0.80,10.39,0.15,0.18,1.25
2445,-4.10,0.80,10.39,0.07,0.22,1.07
2450,-4.10,0.80,10.39,0.05,0.18,1.01
2455,-0.08,-1.72,11.88,0.05,0.18,1.01
2460,2.84,-1.84,13.21,0.05,0.18,1.01
2466,4.06,-2.14,12.83,0.05,0.18,1.01
2470,2.07,1.23,12.49,0.05,0.18,1.01
2475,3.64,2.11,12.03,0.05,0.18,1.01
2480,4.29,2.30,11.41,0.05,0.18,1.01
2486,3.37,2.03,11.11,0.05,0.18,1.01
2490,1.27,1.61,11.03,0.05,0.18,1.01
2496,2.99,0.88,11.07,0.05,0.18,1.01
2500,2.99,0.88,11.07,0.05,0.62,0.85
2505,-5.40,2.41,11.11,0.05,0.62,0.85
2510,-6.13,3.71,11.42,0.05,0.62,0.85
2516,-6.78,4.60,10.03,0.05,0.62,0.85
2520,-6.78,4.60,10.03,-0.08,0.83,0.61
2525,-7.09,4.41,9.96,-0.08,0.83,0.61
2531,-4.33,3.56,8.62,-0.08,0.83,0.61
2535,-4.33,3.56,8.62,-0.37,0.30,0.13
2540,-4.33,3.56,8.62,-0.41,0.08,0.09
2546,0.84,2.11,5.90,-0.41,0.08,0.09
2550,0.84,2.11,5.90,-0.43,-0.14,0.14
2555,0.34,4.48,8.88,-0.43,-0.14,0.14
2560,0.77,7.39,10.91,-0.43,-0.14,0.14
2566,-0.73,5.36,13.75,-0.43,-0.14,0.14
2570,-0.73,5.36,13.75,-0.45,0.16,0.08
2575,2.49,0.96,15.67,-0.45,0.16,0.08
2581,0.30,1.88,15.02,-0.45,0.16,0.08
2585,0.30,1.88,15.02,-0.36,0.55,0.19
2591,0.30,2.84,8.58,-0.36,0.55,0.19
2596,-0.15,4.33,7.51,-0.36,0.55,0.19
2600,-0.15,4.33,7.51,-0.28,0.59,0.19
2605,-0.15,4.33,7.51,-0.37,0.53,0.13
2610,-0.27,5.13,6.02,-0.37,0.53,0.13
2616,-1.80,4.41,6.12,-0.37,0.53,0.13
2620,-1.80,4.41,6.12,-0.51,0.22,-0.13
2626,-1.57,-0.27,6.82,-0.51,0.22,-0.13
2631,-1.53,0.96,6.85,-0.51,0.22,-0.13
2635,-1.53,0.96,6.85,-0.49,0.05,-0.06
2640,-1.53,0.96,6.85,-0.50,0.02,-0.09
2645,-0.11,0.96,7.97,-0.50,0.02,-0.09
2650,1.07,1.88,8.16,-0.50,0.02,-0.09
2657,0.46,0.77,8.12,-0.50,0.02,-0.09
2661,0.46,0.77,8.12,-0.47,0.10,-0.24
2666,2.41,-1.38,9.69,-0.47,0.10,-0.24
2670,2.41,-1.38,9.69,-0.40,0.13,-0.14
2675,2.41,-1.38,9.69,-0.37,0.18,-0.09
2680,3.03,-1.27,9.65,-0.37,0.18,-0.09
2685,3.03,-1.27,9.65,-0.34,0.22,-0.06
2691,3.03,-1.27,9.65,-0.33,0.22,-0.04
2696,3.03,-1.27,9.65,-0.28,0.28,0.02
2701,0.38,0.50,9.65,-0.28,0.28,0.02
2705,0.38,0.50,9.65,-0.27,0.27,0.05
2711,0.38,0.50,9.65,-0.25,0.25,0.08
2716,1.19,0.96,9.50,-0.25,0.25,0.08
2720,1.19,0.96,9.50,-0.25,0.20,0.21
2725,1.19,0.96,9.50,-0.25,0.17,0.27
2730,1.15,0.30,9.96,-0.25,0.17,0.27
2736,1.46,0.69,9.38,-0.25,0.17,0.27
2740,1.46,0.69,9.38,-0.24,0.08,0.31
2746,1.46,0.69,9.38,-0.21,0.07,0.35
2751,0.34,0.19,8.46,-0.21,0.07,0.35
2755,0.34,0.19,8.46,-0.17,0.06,0.43
2760,0.34,0.19,8.46,-0.19,0.04,0.44
2765,0.65,-0.50,9.92,-0.19,0.04,0.44
2771,0.88,-1.80,9.88,-0.19,0.04,0.44
2775,0.88,-1.80,9.88,-0.21,0.01,0.40
2781,0.88,-1.80,9.88,-0.20,0.03,0.38
2786,-1.15,-1.07,8.24,-0.20,0.03,0.38
2790,-1.15,-1.07,8.24,-0.17,0.10,0.36
2795,-1.15,-1.07,8.24,-0.16,0.13,0.35
2800,-1.15,-1.07,8.24,-0.15,0.11,0.32
2806,0.50,-2.34,8.58,-0.15,0.11,0.32
2810,0.50,-2.34,8.58,-0.16,-0.01,0.35
2815,-0.08,-0.54,10.84,-0.16,-0.01,0.35
2820,1.95,-0.15,10.96,-0.16,-0.01,0.35
2826,0.88,-0.04,10.65,-0.16,-0.01,0.35
2831,0.88,-0.04,10.65,-0.18,0.11,0.41
2835,-1.34,1.38,10.88,-0.18,0.11,0.41
2840,0.19,0.61,8.58,-0.18,0.11,0.41
2846,-0.50,0.34,9.23,-0.18,0.11,0.41
2851,-2.14,0.65,9.04,-0.18,0.11,0.41
2856,-0.73,-0.38,8.35,-0.18,0.11,0.41
2860,-0.73,-0.38,8.35,-0.10,0.17,0.59
2865,-0.73,-0.38,8.35,-0.13,0.13,0.56
2871,-2.95,1.49,8.32,-0.13,0.13,0.56
2876,-1.80,0.54,8.27,-0.13,0.13,0.56
2880,-1.80,0.54,8.27,-0.19,0.01,0.41
2886,-6.24,0.57,8.70,-0.19,0.01,0.41
2891,-5.29,0.92,9.30,-0.19,0.01,0.41
2895,-5.29,0.92,9.30,-0.20,0.10,0.32
2901,-5.29,0.92,9.30,-0.21,0.05,0.24
2907,-3.03,-1.42,9.88,-0.21,0.05,0.24
2910,-3.03,-1.42,9.88,-0.22,-0.04,0.17
2915,-3.03,-1.42,9.88,-0.24,-0.11,0.18
2921,-3.03,-1.42,9.88,-0.20,-0.06,0.18
2926,-1.76,-1.04,10.49,-0.20,-0.06,0.18
2930,-1.76,-1.04,10.49,-0.12,0.12,0.11
2935,-3.41,-0.27,9.31,-0.12,0.12,0.11
2940,-0.42,-1.11,9.42,-0.12,0.12,0.11
2946,-1.07,-1.95,9.77,-0.12,0.12,0.11
2950,-1.07,-1.95,9.77,-0.12,0.11,0.09
2955,1.49,-0.57,8.92,-0.12,0.11,0.09
2961,-0.34,0.08,9.46,-0.12,0.11,0.09
2966,-0.34,0.08,9.46,-0.12,0.01,0.09
2971,-0.34,0.08,9.46,-0.10,0.09,0.08
2977,-3.33,0.65,9.61,-0.10,0.09,0.08
2980,-3.33,0.65,9.61,-0.08,0.21,0.03
2985,-3.33,0.65,9.61,-0.05,0.21,0.02
2991,-3.22,-1.15,8.08,-0.05,0.21,0.02
2996,-3.52,-0.92,7.86,-0.05,0.21,0.02
3000,-3.52,-0.92,7.86,-0.04,-0.01,0.04
3006,-0.04,-0.57,7.12,-0.04,-0.01,0.04
3011,-1.11,-0.38,9.04,-0.04,-0.01,0.04
3015,-1.11,-0.38,9.04,-0.07,-0.21,0.02
3020,-1.11,-0.38,9.04,-0.09,-0.21,0.03
3026,2.64,-1.38,13.83,-0.09,-0.21,0.03
3032,2.49,-1.34,14.09,-0.09,-0.21,0.03
3035,2.49,-1.34,14.09,-0.03,0.02,0.24
3041,2.49,-1.34,14.09,0.03,0.14,0.31
3046,0.00,-1.42,9.00,0.03,0.14,0.31
3051,0.00,-1.42,9.00,0.16,0.29,0.37
3055,0.00,-1.42,9.00,0.20,0.29,0.40
3061,0.00,-1.42,9.00,0.18,0.23,0.44
3066,1.38,-2.87,7.20,0.18,0.23,0.44
3071,1.38,-2.87,7.20,0.15,-0.05,0.51
3076,1.38,-2.87,7.20,0.13,-0.13,0.53
3081,-0.27,-0.77,10.31,0.13,-0.13,0.53
3087,-0.27,-0.77,10.31,0.08,-0.12,0.52
3091,-0.27,-0.77,10.31,0.08,-0.06,0.50
3096,-0.08,-1.30,9.27,0.08,-0.06,0.50
3101,-0.50,-1.00,8.62,0.08,-0.06,0.50
3106,-0.50,-1.00,8.62,0.13,-0.06,0.58
3110,-0.50,-1.00,8.62,0.13,-0.09,0.60
3116,1.23,-1.49,10.92,0.13,-0.09,0.60
3121,1.23,-1.49,10.92,0.15,-0.07,0.70
3126,1.23,-1.49,10.92,0.16,-0.01,0.74
3132,1.27,-0.88,9.73,0.16,-0.01,0.74
3135,1.27,-0.88,9.73,0.19,0.12,0.79
3142,1.27,-0.88,9.73,0.23,0.17,0.81
3147,-4.60,-0.04,5.17,0.23,0.17,0.81
3150,-4.60,-0.04,5.17,0.25,0.18,0.76
3155,-4.60,-0.04,5.17,0.19,0.06,0.72
3161,-4.60,-0.04,5.17,0.08,-0.10,0.66
3167,5.52,-4.14,14.75,0.08,-0.10,0.66
3170,5.52,-4.14,14.75,-0.04,-0.36,0.70
3175,5.52,-4.14,14.75,-0.06,-0.29,0.78
3180,5.52,-4.14,14.75,0.01,-0.09,0.84
3185,-5.25,0.77,9.50,0.01,-0.09,0.84
3190,-5.25,0.77,9.50,0.08,0.16,0.85
3197,-5.25,0.77,9.50,0.16,0.37,0.79
3201,-3.56,-2.26,3.95,0.16,0.37,0.79
3206,-3.56,-2.26,3.95,0.30,0.27,0.67
3211,-3.56,-2.26,3.95,0.24,0.06,0.73
3216,2.84,-0.88,12.11,0.24,0.06,0.73
3221,2.38,0.80,13.33,0.24,0.06,0.73
3226,2.38,0.80,13.33,-0.07,-0.24,0.71
3231,2.38,0.80,13.33,-0.12,-0.13,0.60
3237,-2.22,2.45,12.11,-0.12,-0.13,0.60
3242,-2.22,2.45,12.11,-0.05,0.19,0.46
3246,-2.22,2.45,12.11,0.01,0.29,0.48
3251,-2.26,-1.04,6.93,0.01,0.29,0.48
3257,-0.88,-1.72,7.93,0.01,0.29,0.48
3261,-0.88,-1.72,7.93,0.12,0.17,0.54
3266,-0.88,-1.72,7.93,0.09,0.05,0.55
3271,0.84,2.53,10.77,0.09,0.05,0.55
3275,0.84,2.53,10.77,-0.01,-0.01,0.55
3281,0.84,2.53,10.77,-0.05,0.05,0.51
3287,-2.11,3.37,9.61,-0.05,0.05,0.51
3290,-2.11,3.37,9.61,-0.12,0.15,0.39
3295,-2.11,3.37,9.61,-0.12,0.16,0.33
3301,-2.11,3.37,9.61,-0.11,0.15,0.33
3306,0.19,0.30,7.82,-0.11,0.15,0.33
3311,0.19,0.30,7.82,-0.06,0.07,0.36
3315,0.19,0.30,7.82,-0.08,0.08,0.38
3320,0.19,0.30,7.82,-0.11,0.12,0.38
3326,-0.34,2.99,11.00,-0.11,0.12,0.38
3331,-0.34,2.99,11.00,-0.16,0.16,0.27
3336,-0.34,2.99,11.00,-0.18,0.20,0.24
3342,-2.61,2.68,9.69,-0.18,0.20,0.24
3346,-2.61,2.68,9.69,-0.18,0.24,0.20
3351,-2.61,2.68,9.69,-0.17,0.21,0.18
3356,-1.68,3.03,9.65,-0.17,0.21,0.18
3360,-1.68,3.03,9.65,-0.20,0.13,0.19
3366,-1.68,3.03,9.65,-0.22,0.04,0.18
3371,0.84,3.60,10.38,-0.22,0.04,0.18
3376,0.42,2.84,10.91,-0.22,0.04,0.18
3381,0.42,2.84,10.91,-0.25,0.14,0.20
3386,0.42,2.84,10.91,-0.22,0.27,0.20
3392,-5.86,2.53,10.07,-0.22,0.27,0.20
3395,-5.86,2.53,10.07,-0.22,0.45,0.13
3401,-5.86,2.53,10.07,-0.20,0.40,0.07
3406,-0.80,-0.27,8.01,-0.20,0.40,0.07
3411,3.33,-1.07,8.24,-0.20,0.40,0.07
3415,3.33,-1.07,8.24,-0.26,-0.16,0.11
3421,3.33,-1.07,8.24,-0.29,-0.28,0.19
3427,4.25,0.69,8.92,-0.29,-0.28,0.19
3431,4.25,0.69,8.92,-0.26,-0.17,0.24
3436,4.25,0.69,8.92,-0.23,0.06,0.21
3442,4.25,0.69,8.92,-0.21,0.27,0.18
3445,4.25,0.69,8.92,-0.15,0.38,0.12
3451,4.25,0.69,8.92,-0.14,0.41,0.08
3456,4.25,0.69,8.92,-0.10,0.33,0.08
3462,0.15,-2.76,9.00,-0.10,0.33,0.08
3466,0.15,-2.76,9.00,-0.11,-0.02,0.22
3471,0.15,-2.76,9.00,-0.16,-0.19,0.29
3475,5.40,1.95,11.22,-0.16,-0.19,0.29
3482,4.86,1.38,11.68,-0.16,-0.19,0.29
3486,4.86,1.38,11.68,-0.29,-0.13,0.22
3491,4.86,1.38,11.68,-0.23,0.03,0.21
3496,0.15,-1.19,11.41,-0.23,0.03,0.21
3501,0.15,-1.19,11.41,-0.07,0.31,0.39
3506,0.15,-1.19,11.41,-0.00,0.36,0.52
3512,1.91,-1.65,11.68,-0.00,0.36,0.52
3515,1.91,-1.65,11.68,-0.02,0.29,0.62
3521,1.91,-1.65,11.68,-0.03,0.21,0.62
3526,1.91,-1.65,11.68,-0.05,0.17,0.58
3531,-0.15,-0.65,7.93,-0.05,0.17,0.58
3536,-0.15,-0.65,7.93,-0.05,0.14,0.51
3541,-0.15,-0.65,7.93,-0.04,0.13,0.51
3547,-2.49,-0.11,7.12,-0.04,0.13,0.51
3551,-2.49,-0.11,7.12,-0.09,-0.01,0.46
3556,-2.49,-0.11,7.12,-0.11,-0.10,0.43
3561,-2.49,-0.11,7.12,-0.16,-0.17,0.39
3566,0.42,-1.99,10.00,-0.16,-0.17,0.39
3571,0.42,-1.99,10.00,-0.17,-0.20,0.38
3576,0.42,-1.99,10.00,-0.17,-0.16,0.38
3582,1.07,-0.96,12.26,-0.17,-0.16,0.38
3586,1.07,-0.96,12.26,-0.15,0.04,0.40
3591,1.07,-0.96,12.26,-0.12,0.17,0.38
3596,-2.14,0.50,9.81,-0.12,0.17,0.38
3602,-2.64,-0.23,9.00,-0.12,0.17,0.38
3606,-2.64,-0.23,9.00,-0.02,0.39,0.43
3611,-2.64,-0.23,9.00,-0.04,0.37,0.43
3616,-2.03,0.04,7.31,-0.04,0.37,0.43
3620,-2.03,0.04,7.31,-0.09,0.18,0.40
3625,-2.11,0.69,8.12,-0.09,0.18,0.40
3631,-2.11,0.69,8.12,-0.13,0.08,0.38
3637,-0.61,1.42,9.96,-0.13,0.08,0.38
3641,-0.61,1.42,9.96,-0.20,-0.04,0.32
3646,-0.61,1.42,9.96,-0.20,0.00,0.33
3651,-2.45,0.69,10.49,-0.20,0.00,0.33
3656,-2.45,0.69,10.49,-0.18,0.14,0.30
3661,-2.45,0.69,10.49,-0.16,0.18,0.26
3667,-3.26,0.00,9.69,-0.16,0.18,0.26
3671,-3.26,0.00,9.69,-0.14,0.23,0.24
3676,-3.26,0.00,9.69,-0.12,0.15,0.24
3680,-3.26,0.00,9.69,-0.11,0.11,0.25
3686,-3.60,0.23,7.27,-0.11,0.11,0.25
3691,-3.60,0.23,7.27,-0.13,0.04,0.20
3696,-3.60,0.23,7.27,-0.15,0.02,0.13
3702,-3.60,0.23,7.27,-0.18,0.04,0.06
3706,-3.60,0.23,7.27,-0.19,0.01,0.01
3711,-3.60,0.23,7.27,-0.21,-0.06,0.01
3716,-3.60,0.23,7.27,-0.20,-0.07,0.05
3721,0.92,-0.61,12.14,-0.20,-0.07,0.05
3726,0.92,-0.61,12.14,-0.14,-0.00,0.12
3731,0.92,-0.61,12.14,-0.15,0.11,0.10
3735,-1.07,0.38,10.61,-0.15,0.11,0.10
3742,-1.88,0.34,10.27,-0.15,0.11,0.10
3746,-1.88,0.34,10.27,-0.06,0.33,0.11
3752,0.15,-1.61,7.93,-0.06,0.33,0.11
3755,0.15,-1.61,7.93,-0.00,0.17,0.23
3761,0.15,-1.61,7.93,0.00,0.06,0.30
3766,0.15,-1.61,7.93,-0.03,-0.00,0.32
3771,1.95,-0.08,10.19,-0.03,-0.00,0.32
3775,1.95,-0.08,10.19,-0.08,-0.09,0.30
3781,1.95,-0.08,10.19,-0.08,-0.07,0.29
3786,1.95,-0.08,10.19,-0.07,-0.02,0.31
3792,0.30,-1.88,9.23,-0.07,-0.02,0.31
3796,0.30,-1.88,9.23,-0.03,0.02,0.34
3801,0.30,-1.88,9.23,0.00,0.03,0.36
3806,0.50,-2.07,8.78,0.00,0.03,0.36
3811,0.50,-2.07,8.78,0.01,-0.01,0.39
3815,0.50,-2.07,8.78,-0.02,-0.08,0.40
3820,0.50,-2.07,8.78,-0.00,-0.12,0.44
3826,0.96,-1.65,9.96,-0.00,-0.12,0.44
3831,0.96,-1.65,9.96,0.01,-0.02,0.49
3836,0.96,-1.65,9.96,0.03,0.05,0.50
3841,1.15,-2.18,9.77,0.03,0.05,0.50
3846,1.15,-2.18,9.77,0.04,0.08,0.54
3851,1.15,-2.18,9.77,0.05,0.05,0.57
3857,1.15,-2.18,9.77,0.05,0.05,0.61
3861,1.15,-2.18,9.77,0.05,0.07,0.63
3866,1.15,-2.18,9.77,0.07,0.11,0.64
3871,1.15,-2.18,9.77,0.07,0.15,0.65
3876,-1.91,-0.96,9.88,0.07,0.15,0.65
3881,-1.91,-0.96,9.88,0.09,0.23,0.68
3886,-1.91,-0.96,9.88,0.09,0.21,0.67
3891,-1.91,-0.96,9.88,0.07,0.16,0.64
3895,-1.91,-0.96,9.88,0.04,0.08,0.62
3901,-1.91,-0.96,9.88,0.02,-0.02,0.60
3906,-1.91,-0.96,9.88,0.00,-0.12,0.60
3911,1.15,0.96,9.08,0.00,-0.12,0.60
3916,1.15,0.96,9.08,-0.06,-0.19,0.62
3921,1.15,0.96,9.08,-0.09,-0.17,0.60
3926,1.15,0.96,9.08,-0.09,-0.10,0.58
3931,1.15,0.96,9.08,-0.11,0.03,0.58
3936,1.15,0.96,9.08,-0.08,0.16,0.59
3941,1.15,0.96,9.08,-0.04,0.25,0.61
3946,-0.69,-0.50,9.81,-0.04,0.25,0.61
3951,-0.69,-0.50,9.81,0.02,0.29,0.62
3956,-0.69,-0.50,9.81,0.01,0.25,0.63
3961,-0.69,-0.50,9.81,-0.01,0.20,0.64
3966,-0.69,-0.50,9.81,-0.03,0.11,0.61
3971,-0.69,-0.50,9.81,-0.07,0.08,0.59
3976,-0.69,-0.50,9.81,-0.08,0.05,0.56
3981,-2.18,1.11,9.00,-0.08,0.05,0.56
3986,-2.18,1.11,9.00,-0.13,0.04,0.48
3991,-2.18,1.11,9.00,-0.15,0.06,0.42
3996,-2.18,1.11,9.00,-0.18,0.07,0.36
4001,-2.18,1.11,9.00,-0.21,0.03,0.30
4006,-2.18,1.11,9.00,-0.23,0.01,0.28
4010,-2.18,1.11,9.00,-0.23,0.01,0.26
4016,-2.18,1.91,8.46,-0.23,0.01,0.26
4021,-2.18,1.91,8.46,-0.23,0.07,0.15
4026,-2.18,1.91,8.46,-0.24,0.08,0.11
4031,-0.38,0.96,10.53,-0.24,0.08,0.11
4036,-0.38,0.96,10.53,-0.27,0.11,0.08
4041,-0.38,0.96,10.53,-0.29,0.12,0.06
4046,-0.38,0.96,10.53,-0.28,0.12,0.04
4051,-0.38,0.96,10.53,-0.27,0.16,0.05
4056,-0.38,0.96,10.53,-0.25,0.22,0.06
4061,-0.38,0.96,10.53,-0.24,0.23,0.03
4066,-1.46,1.30,9.46,-0.24,0.23,0.03
4071,-1.46,1.30,9.46,-0.29,0.21,-0.05
4076,-1.46,1.30,9.46,-0.29,0.20,-0.07
4081,-1.46,1.30,9.46,-0.29,0.15,-0.07
4086,-1.46,1.30,9.46,-0.31,0.10,-0.04
4091,-1.46,1.30,9.46,-0.32,0.09,-0.03
4096,-1.46,1.30,9.46,-0.33,0.09,-0.03
4101,-1.46,1.30,9.46,-0.33,0.07,-0.04
4106,-1.46,1.30,9.46,-0.33,0.09,-0.02
4111,-1.46,1.30,9.46,-0.33,0.15,0.00
4116,-1.46,1.30,9.46,-0.34,0.18,0.00
4121,-1.46,1.30,9.46,-0.33,0.13,-0.01
4126,-1.46,1.30,9.46,-0.36,0.09,0.00
4131,-1.46,1.30,9.46,-0.37,0.07,0.03
4136,-0.92,1.07,7.74,-0.37,0.07,0.03
4141,-0.92,1.07,7.74,-0.38,-0.01,0.04
4146,-0.92,1.07,7.74,-0.40,-0.02,0.05
4151,-0.92,1.07,7.74,-0.40,-0.01,0.07
4155,-0.92,1.07,7.74,-0.41,0.01,0.08
4160,-0.92,1.07,7.74,-0.40,-0.01,0.08
4165,1.65,0.80,10.69,-0.40,-0.01,0.08
4170,1.65,0.80,10.69,-0.38,-0.01,0.13
4176,0.50,0.08,11.76,-0.38,-0.01,0.13
4181,0.50,0.08,11.76,-0.32,0.09,0.20
4186,0.50,0.08,11.76,-0.31,0.16,0.21
4191,0.50,0.08,11.76,-0.32,0.23,0.21
4196,0.50,0.08,11.76,-0.31,0.27,0.18
4200,0.50,0.08,11.76,-0.34,0.23,0.14
4206,2.07,0.11,9.12,-0.34,0.23,0.14
4211,2.07,0.11,9.12,-0.35,0.04,0.13
4216,2.07,0.11,9.12,-0.37,0.00,0.14
4221,2.07,0.11,9.12,-0.38,-0.03,0.09
4226,2.07,0.11,9.12,-0.38,-0.01,0.00
4231,2.07,0.11,9.12,-0.38,0.01,-0.05
4235,2.07,0.11,9.12,-0.36,0.04,-0.06
4241,-1.00,-0.50,9.30,-0.36,0.04,-0.06
4246,-1.00,-0.50,9.30,-0.35,0.09,-0.08
4251,-1.00,-0.50,9.30,-0.37,0.11,-0.13
4256,-1.00,-0.50,9.30,-0.37,0.10,-0.17
4261,-1.00,-0.50,9.30,-0.39,0.09,-0.18
4266,-1.00,-0.50,9.30,-0.39,0.08,-0.17
4271,-1.00,-0.50,9.30,-0.39,0.07,-0.15
4276,-1.00,-0.50,9.30,-0.39,0.10,-0.15
4281,-1.00,-0.50,9.30,-0.38,0.13,-0.19
4286,-1.00,-0.50,9.30,-0.38,0.16,-0.20
4292,0.00,1.07,9.12,-0.38,0.16,-0.20
4296,0.00,1.07,9.12,-0.38,0.14,-0.18
4301,0.00,1.07,9.12,-0.38,0.10,-0.19
4306,0.00,1.07,9.12,-0.39,0.05,-0.20
4311,0.00,1.07,9.12,-0.39,0.03,-0.21
4316,0.00,1.07,9.12,-0.39,0.04,-0.19
4321,0.00,1.07,9.12,-0.37,0.09,-0.17
4327,-0.88,1.11,10.23,-0.37,0.09,-0.17
4331,-0.88,1.11,10.23,-0.37,0.21,-0.19
4336,-0.88,1.11,10.23,-0.36,0.23,-0.20
4341,-0.88,1.11,10.23,-0.34,0.21,-0.21
4346,-0.88,1.11,10.23,-0.34,0.16,-0.21
4351,-0.88,1.11,10.23,-0.33,0.10,-0.21
4355,-0.88,1.11,10.23,-0.34,0.04,-0.21
4361,-0.61,0.30,6.85,-0.34,0.04,-0.21
4366,-0.61,0.30,6.85,-0.36,-0.05,-0.26
4371,-0.61,0.30,6.85,-0.40,-0.09,-0.27
4376,-0.61,0.30,6.85,-0.40,-0.09,-0.25
4381,-0.61,0.30,6.85,-0.43,-0.06,-0.23
4386,-0.61,0.30,6.85,-0.44,0.02,-0.24
4390,-0.61,0.30,6.85,-0.43,0.13,-0.26
4396,-2.14,0.34,11.19,-0.43,0.13,-0.26
4401,-2.14,0.34,11.19,-0.31,0.34,-0.21
4406,-2.14,0.34,11.19,-0.26,0.39,-0.16
4411,-2.14,0.34,11.19,-0.23,0.38,-0.14
4416,-2.14,0.34,11.19,-0.24,0.29,-0.16
4421,-2.14,0.34,11.19,-0.26,0.19,-0.21
4425,-2.14,0.34,11.19,-0.29,0.08,-0.25
4431,-2.26,-0.92,8.66,-0.29,0.08,-0.25
4436,-2.26,-0.92,8.66,-0.28,-0.06,-0.26
4441,-2.26,-0.92,8.66,-0.28,-0.04,-0.29
4446,-2.26,-0.92,8.66,-0.28,-0.01,-0.34
4451,-2.26,-0.92,8.66,-0.29,-0.01,-0.38
4456,-2.26,-0.92,8.66,-0.31,-0.01,-0.43
4461,-2.26,-0.92,8.66,-0.32,-0.04,-0.48
4466,-2.26,-0.92,8.66,-0.32,-0.10,-0.51
4471,-2.26,-0.92,8.66,-0.31,-0.11,-0.53
4476,-2.26,-0.92,8.66,-0.29,-0.08,-0.54
4481,-2.26,-0.92,8.66,-0.25,-0.04,-0.53
4486,-2.26,-0.92,8.66,-0.21,0.02,-0.51
4491,-2.26,-0.92,8.66,-0.20,0.09,-0.51
4495,-2.26,-0.92,8.66,-0.19,0.13,-0.53
4501,-1.42,0.15,10.53,-0.19,0.13,-0.53
4506,-1.42,0.15,10.53,-0.17,0.17,-0.54
4511,-1.42,0.15,10.53,-0.18,0.13,-0.54
4516,-1.42,0.15,10.53,-0.16,0.08,-0.53
4521,-1.42,0.15,10.53,-0.16,0.04,-0.53
4526,-1.42,0.15,10.53,-0.14,0.04,-0.53
4531,-1.42,0.15,10.53,-0.12,0.04,-0.51
4536,-1.42,0.15,10.53,-0.11,0.04,-0.50
4541,-1.42,0.15,10.53,-0.10,0.04,-0.50
4545,-1.42,0.15,10.53,-0.10,0.03,-0.51
4551,0.19,-1.07,10.23,-0.10,0.03,-0.51
4556,0.19,-1.07,10.23,-0.08,0.01,-0.46
4561,0.19,-1.07,10.23,-0.06,0.01,-0.44
4566,0.19,-1.07,10.23,-0.05,0.00,-0.40
4571,0.19,-1.07,10.23,-0.04,-0.00,-0.35
4576,0.19,-1.07,10.23,-0.03,0.03,-0.32
4580,0.19,-1.07,10.23,-0.02,0.08,-0.31
4586,-1.72,-0.04,7.05,-0.02,0.08,-0.31
4591,-1.72,-0.04,7.05,0.02,0.12,-0.30
4595,-1.72,-0.04,7.05,0.04,0.08,-0.29
4600,-1.72,-0.04,7.05,0.05,0.02,-0.28
4605,-0.38,-1.99,6.44,0.05,0.02,-0.28
4611,-0.38,-1.99,6.44,0.04,-0.09,-0.27
4616,-0.38,-1.99,6.44,0.00,-0.37,-0.27
4621,2.53,-1.76,11.84,0.00,-0.37,-0.27
4626,2.53,-1.76,11.84,-0.02,-0.43,-0.27
4631,2.53,-1.76,11.84,0.03,-0.32,-0.24
4635,2.53,-1.76,11.84,0.07,-0.15,-0.22
4641,-0.77,-1.42,11.19,0.07,-0.15,-0.22
4646,-0.77,-1.42,11.19,0.15,0.16,-0.21
4650,-0.77,-1.42,11.19,0.18,0.23,-0.21
4656,-0.11,-2.41,8.88,0.18,0.23,-0.21
4661,-0.11,-2.41,8.88,0.23,0.16,-0.21
4666,-0.11,-2.41,8.88,0.22,0.06,-0.22
4671,-0.11,-2.41,8.88,0.21,-0.02,-0.21
4676,1.84,-0.88,10.35,0.21,-0.02,-0.21
4681,1.84,-0.88,10.35,0.18,-0.07,-0.23
4685,1.84,-0.88,10.35,0.15,-0.02,-0.26
4691,-1.61,0.11,9.96,0.15,-0.02,-0.26
4696,-1.61,0.11,9.96,0.14,0.11,-0.29
4700,-1.61,0.11,9.96,0.14,0.14,-0.26
4706,-1.61,0.11,9.96,0.16,0.12,-0.24
4711,-1.61,0.11,9.96,0.16,0.08,-0.20
4716,-1.61,0.11,9.96,0.17,0.01,-0.15
4720,-1.61,0.11,9.96,0.19,-0.05,-0.09
4726,-0.11,-0.92,8.89,0.19,-0.05,-0.09
4731,-0.11,-0.92,8.89,0.24,-0.06,0.04
4735,-0.11,-0.92,8.89,0.27,0.00,0.09
4741,-0.11,-0.92,8.89,0.30,0.03,0.15
4746,-0.11,-0.92,8.89,0.32,0.04,0.22
4751,-0.11,-0.92,8.89,0.34,0.00,0.29
4755,-0.11,-0.92,8.89,0.37,-0.08,0.34
4761,-0.69,-2.84,9.50,0.37,-0.08,0.34
4766,-0.69,-2.84,9.50,0.38,-0.16,0.40
4770,-0.69,-2.84,9.50,0.36,-0.13,0.43
4776,-0.69,-2.84,9.50,0.40,-0.09,0.48
4781,-0.69,-2.84,9.50,0.41,-0.02,0.55
4786,-0.69,-2.84,9.50,0.45,0.04,0.61
4790,-0.69,-2.84,9.50,0.47,0.09,0.64
4796,-3.71,-2.95,9.65,0.47,0.09,0.64
4801,-3.71,-2.95,9.65,0.50,0.09,0.70
4805,-3.71,-2.95,9.65,0.49,0.05,0.75
4811,-1.61,-3.14,6.78,0.49,0.05,0.75
4816,-1.61,-3.14,6.78,0.48,-0.14,0.87
4821,-1.61,-3.14,6.78,0.46,-0.23,0.90
4825,-1.61,-3.14,6.78,0.44,-0.30,0.94
4831,1.65,-3.03,10.69,0.44,-0.30,0.94
4836,1.65,-3.03,10.69,0.45,-0.25,1.03
4840,1.65,-3.03,10.69,0.45,-0.15,1.08
4846,-4.21,-2.34,10.73,0.45,-0.15,1.08
4851,-4.21,-2.34,10.73,0.50,0.13,1.14
4856,-4.21,-2.34,10.73,0.50,0.19,1.14
4861,-4.21,-2.34,10.73,0.48,0.18,1.13
4866,-1.65,-2.34,9.46,0.48,0.18,1.13
4871,-1.65,-2.34,9.46,0.42,-0.02,1.14
4875,-1.65,-2.34,9.46,0.37,-0.11,1.13
4881,0.73,-2.03,10.61,0.37,-0.11,1.13
4886,0.73,-2.03,10.61,0.32,-0.17,1.09
4891,0.73,-2.03,10.61,0.31,-0.09,1.07
4896,0.73,-2.03,10.61,0.31,-0.00,1.06
4901,-3.68,-0.61,9.46,0.31,-0.00,1.06
4906,-3.68,-0.61,9.46,0.30,0.09,1.04
4910,-3.68,-0.61,9.46,0.27,0.09,1.02
4916,0.38,-0.15,8.58,0.27,0.09,1.02
4921,0.38,-0.15,8.58,0.21,-0.05,0.98
4925,0.38,-0.15,8.58,0.18,-0.09,0.93
4831,1.65,-3.03,10.69,0.44,-0.30,0.94
4836,1.65,-3.03,10.69,0.45,-0.25,1.03
4840,1.65,-3.03,10.69,0.45,-0.15,1.08
4846,-4.21,-2.34,10.73,0.45,-0.15,1.08
4851,-4.21,-2.34,10.73,0.50,0.13,1.14
4856,-4.21,-2.34,10.73,0.50,0.19,1.14
4861,-4.21,-2.34,10.73,0.48,0.18,1.13
4866,-1.65,-2.34,9.46,0.48,0.18,1.13
4871,-1.65,-2.34,9.46,0.42,-0.02,1.14
4875,-1.65,-2.34,9.46,0.37,-0.11,1.13
4881,0.73,-2.03,10.61,0.37,-0.11,1.13
4886,0.73,-2.03,10.61,0.32,-0.17,1.09
4891,0.73,-2.03,10.61,0.31,-0.09,1.07
4896,0.73,-2.03,10.61,0.31,-0.00,1.06
4901,-3.68,-0.61,9.46,0.31,-0.00,1.06
