timestamp,accX,accY,accZ,gyroX,gyroY,gyroZ
Right
6,-1.15,1.11,8.08,-0.41,0.13,-0.09
18,-0.80,1.38,8.58,-0.41,0.13,-0.09
19,-0.80,1.38,8.58,-0.73,-0.10,-0.63
21,-0.80,1.38,8.58,-0.75,0.24,-0.78
26,-1.95,1.91,7.17,-0.75,0.24,-0.78
31,-1.95,1.91,7.17,-0.80,0.29,-0.82
36,-1.49,4.25,6.32,-0.80,0.29,-0.82
42,-0.73,4.56,6.93,-0.80,0.29,-0.82
46,-0.73,4.56,6.93,-0.95,0.18,-1.08
52,-0.11,3.41,8.62,-0.95,0.18,-1.08
57,0.54,1.68,10.31,-0.95,0.18,-1.08
61,0.54,1.68,10.31,-0.90,0.06,-1.20
66,0.54,1.68,10.31,-0.86,0.05,-1.17
71,0.19,0.42,9.16,-0.86,0.05,-1.17
77,0.15,1.95,10.04,-0.86,0.05,-1.17
81,0.15,1.95,10.04,-0.81,-0.02,-1.24
87,0.15,1.95,10.04,-0.82,-0.03,-1.29
92,1.19,2.99,9.43,-0.82,-0.03,-1.29
96,1.19,2.99,9.43,-0.84,0.02,-1.38
101,1.19,2.99,9.43,-0.87,0.09,-1.41
106,1.19,2.99,9.43,-0.88,0.18,-1.45
112,-1.04,2.41,9.31,-0.88,0.18,-1.45
116,-1.04,2.41,9.31,-0.85,0.25,-1.48
121,-0.69,2.18,8.70,-0.85,0.25,-1.48
126,0.27,2.49,9.54,-0.85,0.25,-1.48
132,1.15,0.77,9.73,-0.85,0.25,-1.48
137,1.15,0.77,9.73,-0.79,0.08,-1.51
141,0.80,-0.23,10.03,-0.79,0.08,-1.51
146,1.84,-0.69,10.15,-0.79,0.08,-1.51
151,1.84,-0.69,10.15,-0.67,0.07,-1.38
156,1.84,-0.69,10.15,-0.65,0.10,-1.35
161,0.80,-0.46,9.81,-0.65,0.10,-1.35
168,0.80,-0.46,9.81,-0.62,0.14,-1.33
172,0.80,-0.46,9.81,-0.60,0.18,-1.34
177,-0.61,-1.30,9.20,-0.60,0.18,-1.34
182,0.65,-1.46,9.00,-0.60,0.18,-1.34
186,0.65,-1.46,9.00,-0.56,0.16,-1.22
192,0.46,-1.34,8.89,-0.56,0.16,-1.22
197,1.65,-1.95,9.39,-0.56,0.16,-1.22
201,1.65,-1.95,9.39,-0.50,0.08,-1.14
207,1.65,-1.95,9.39,-0.49,0.12,-1.16
212,-0.38,-3.26,9.84,-0.49,0.12,-1.16
216,-0.38,-3.26,9.84,-0.42,0.21,-1.06
221,-0.38,-3.26,9.84,-0.39,0.27,-0.97
227,-0.38,-3.26,9.84,-0.38,0.30,-0.91
232,-3.29,-1.61,8.28,-0.38,0.30,-0.91
236,-3.29,-1.61,8.28,-0.32,0.29,-0.78
241,-4.83,-1.11,7.89,-0.32,0.29,-0.78
246,-1.15,-1.15,9.35,-0.32,0.29,-0.78
252,1.61,-1.95,11.41,-0.32,0.29,-0.78
256,1.61,-1.95,11.41,-0.21,-0.09,-0.47
261,3.22,-2.49,12.68,-0.21,-0.09,-0.47
267,4.06,-3.18,13.45,-0.21,-0.09,-0.47
271,4.06,-3.18,13.45,-0.10,-0.09,-0.49
277,-1.30,-2.80,10.88,-0.10,-0.09,-0.49
282,-4.41,-1.95,9.54,-0.10,-0.09,-0.49
286,-4.41,-1.95,9.54,-0.15,0.45,-0.43
291,-4.41,-1.95,9.54,-0.18,0.57,-0.39
297,-5.75,1.72,7.63,-0.18,0.57,-0.39
302,-4.21,3.03,7.77,-0.18,0.57,-0.39
306,-4.21,3.03,7.77,-0.28,0.41,-0.40
312,-0.92,-0.08,9.12,-0.28,0.41,-0.40
317,-0.15,-1.27,8.77,-0.28,0.41,-0.40
321,-0.15,-1.27,8.77,-0.19,-0.05,-0.38
326,-0.15,-1.27,8.77,-0.16,-0.15,-0.29
332,-0.77,-1.91,9.39,-0.16,-0.15,-0.29
337,-0.54,-1.42,9.77,-0.16,-0.15,-0.29
341,-0.54,-1.42,9.77,-0.16,-0.16,-0.32
347,-0.54,-1.42,9.77,-0.19,-0.08,-0.37
352,-0.08,1.15,10.69,-0.19,-0.08,-0.37
357,-0.08,1.15,10.69,-0.23,0.07,-0.44
361,-0.08,1.15,10.69,-0.26,0.16,-0.48
367,-0.08,1.15,10.69,-0.29,0.22,-0.52
372,-0.27,-0.30,9.88,-0.29,0.22,-0.52
377,-0.27,-0.30,9.88,-0.31,0.23,-0.56
382,-0.27,-0.30,9.88,-0.30,0.16,-0.56
387,-0.27,0.42,9.84,-0.30,0.16,-0.56
392,-0.27,0.42,9.84,-0.30,0.10,-0.63
397,-0.27,0.42,9.84,-0.30,0.11,-0.63
402,-1.49,0.54,9.54,-0.30,0.11,-0.63
406,-1.49,0.54,9.54,-0.29,0.14,-0.67
411,-1.49,0.54,9.54,-0.31,0.13,-0.66
416,-1.49,0.54,9.54,-0.29,0.10,-0.62
422,1.00,0.73,9.77,-0.29,0.10,-0.62
427,1.00,0.73,9.77,-0.32,0.08,-0.71
432,1.00,0.73,9.77,-0.31,0.10,-0.71
438,0.08,-1.65,10.88,-0.31,0.10,-0.71
441,0.08,-1.65,10.88,-0.26,0.16,-0.69
446,0.08,-1.65,10.88,-0.26,0.21,-0.69
452,-0.88,-1.61,10.00,-0.26,0.21,-0.69
457,-0.88,-0.84,9.61,-0.26,0.21,-0.69
461,-0.88,-0.84,9.61,-0.28,0.15,-0.69
467,-0.88,-0.84,9.61,-0.28,0.12,-0.72
472,-1.07,-1.53,8.92,-0.28,0.12,-0.72
476,-1.07,-1.53,8.92,-0.28,0.13,-0.66
481,-1.07,-1.53,8.92,-0.28,0.15,-0.64
487,-1.07,-1.53,8.92,-0.28,0.17,-0.64
492,-1.80,-2.61,8.73,-0.28,0.17,-0.64
497,-1.80,-2.61,8.73,-0.28,0.14,-0.59
502,-1.80,-2.61,8.73,-0.24,0.10,-0.58
507,0.15,-1.34,10.30,-0.24,0.10,-0.58
512,0.15,-1.34,10.30,-0.22,0.04,-0.59
516,0.15,-1.34,10.30,-0.21,0.04,-0.59
522,1.49,-2.41,10.61,-0.21,0.04,-0.59
527,0.00,-1.38,10.39,-0.21,0.04,-0.59
532,0.00,-1.38,10.39,-0.18,0.17,-0.67
537,0.00,-1.38,10.39,-0.19,0.24,-0.65
542,-0.08,0.08,9.20,-0.19,0.24,-0.65
547,-0.08,0.08,9.20,-0.24,0.22,-0.66
552,-0.08,0.08,9.20,-0.28,0.19,-0.76
558,1.57,1.15,10.61,-0.28,0.19,-0.76
561,1.57,1.15,10.61,-0.30,0.13,-0.87
566,1.57,1.15,10.61,-0.31,0.12,-0.88
572,1.57,1.15,10.61,-0.32,0.13,-0.87
577,2.11,-0.42,9.50,-0.32,0.13,-0.87
581,2.11,-0.42,9.50,-0.31,0.12,-0.89
587,2.11,-0.42,9.50,-0.32,0.13,-0.91
593,1.42,-0.23,11.11,-0.32,0.13,-0.91
597,1.42,-0.23,11.11,-0.30,0.20,-0.93
602,1.42,-0.23,11.11,-0.30,0.24,-0.96
607,1.42,-0.23,11.11,-0.29,0.28,-0.95
612,0.11,-0.54,10.00,-0.29,0.28,-0.95
617,0.11,-0.54,10.00,-0.29,0.27,-0.96
621,0.11,-0.54,10.00,-0.29,0.23,-0.97
626,0.11,-0.54,10.00,-0.29,0.19,-0.98
632,-0.80,-1.68,10.15,-0.29,0.19,-0.98
637,-0.80,-1.68,10.15,-0.28,0.15,-1.01
641,-0.80,-1.68,10.15,-0.28,0.16,-1.02
646,0.46,-1.42,10.35,-0.28,0.16,-1.02
651,1.88,-0.77,10.50,-0.28,0.16,-1.02
656,1.88,-0.77,10.50,-0.27,0.19,-1.08
661,0.30,-1.42,9.73,-0.27,0.19,-1.08
667,-0.30,-1.27,9.08,-0.27,0.19,-1.08
672,-0.30,-1.27,9.08,-0.29,0.30,-1.10
677,-0.30,-1.27,9.08,-0.29,0.34,-1.08
683,-2.57,-1.04,9.61,-0.29,0.34,-1.08
687,-2.57,-1.04,9.61,-0.27,0.34,-1.05
692,-2.57,-1.04,9.61,-0.24,0.31,-1.02
697,-1.42,0.04,9.80,-0.24,0.31,-1.02
702,-1.42,0.04,9.80,-0.22,0.27,-1.03
707,-1.42,0.04,9.80,-0.21,0.27,-0.98
712,0.34,-0.65,9.39,-0.21,0.27,-0.98
717,0.46,0.08,10.23,-0.21,0.27,-0.98
721,0.46,0.08,10.23,-0.19,0.17,-0.91
727,0.46,0.08,10.23,-0.21,0.20,-0.94
732,-1.80,0.92,11.46,-0.21,0.20,-0.94
737,-1.80,0.92,11.46,-0.18,0.35,-0.85
741,-1.80,0.92,11.46,-0.20,0.37,-0.82
746,-1.80,0.92,11.46,-0.21,0.36,-0.84
753,-0.19,0.92,9.84,-0.21,0.36,-0.84
756,-0.19,0.92,9.84,-0.21,0.29,-0.87
762,-1.68,-1.07,8.85,-0.21,0.29,-0.87
767,-2.49,-0.08,8.73,-0.21,0.29,-0.87
772,-2.49,-0.08,8.73,-0.20,0.28,-0.82
776,-2.49,-0.08,8.73,-0.20,0.28,-0.77
781,-1.72,-0.11,9.77,-0.20,0.28,-0.77
788,-2.34,-0.54,9.23,-0.20,0.28,-0.77
791,-2.34,-0.54,9.23,-0.22,0.27,-0.83
797,0.19,-0.69,10.65,-0.22,0.27,-0.83
802,1.38,-1.91,11.64,-0.22,0.27,-0.83
807,1.38,-1.91,11.64,-0.18,0.20,-0.82
812,1.38,-1.91,11.64,-0.17,0.19,-0.86
817,0.96,-2.95,10.84,-0.17,0.19,-0.86
821,0.96,-2.95,10.84,-0.14,0.29,-0.88
827,0.96,-2.95,10.84,-0.16,0.39,-0.88
832,0.96,-2.95,10.84,-0.17,0.47,-0.84
837,-2.80,-1.42,8.96,-0.17,0.47,-0.84
842,-2.80,-1.42,8.96,-0.21,0.52,-0.86
847,-2.80,-1.42,8.96,-0.20,0.49,-0.87
853,-1.49,-1.04,9.65,-0.20,0.49,-0.87
857,-1.49,-1.04,9.65,-0.17,0.36,-0.86
861,-1.49,-1.04,9.65,-0.12,0.28,-0.82
866,-1.49,-1.04,9.65,-0.10,0.24,-0.80
871,0.42,-2.45,10.11,-0.10,0.24,-0.80
876,0.42,-2.45,10.11,-0.09,0.22,-0.78
883,0.42,-2.45,10.11,-0.06,0.22,-0.73
887,-1.15,-0.65,9.81,-0.06,0.22,-0.73
892,-1.15,-0.65,9.81,-0.09,0.34,-0.73
897,-1.15,-0.65,9.81,-0.11,0.39,-0.73
901,-1.42,-0.27,9.23,-0.11,0.39,-0.73
907,-2.14,-0.19,9.23,-0.11,0.39,-0.73
912,-2.14,-0.19,9.23,-0.12,0.33,-0.70
917,-2.14,-0.19,9.23,-0.11,0.26,-0.68
922,-0.42,-0.27,11.11,-0.11,0.26,-0.68
927,-0.42,-0.27,11.11,-0.07,0.22,-0.72
932,-0.42,-0.27,11.11,-0.08,0.24,-0.74
938,-2.11,-0.61,8.96,-0.08,0.24,-0.74
941,-2.11,-0.61,8.96,-0.10,0.31,-0.73
947,-2.11,-0.61,8.96,-0.10,0.33,-0.73
952,-2.11,-0.61,8.96,-0.10,0.33,-0.74
957,1.46,0.38,10.15,-0.10,0.33,-0.74
962,1.46,0.38,10.15,-0.17,0.26,-0.88
967,1.46,0.38,10.15,-0.15,0.26,-0.97
973,1.23,-1.61,10.42,-0.15,0.26,-0.97
977,1.23,-1.61,10.42,-0.16,0.28,-1.00
981,1.23,-1.61,10.42,-0.15,0.31,-1.03
987,1.23,-1.61,10.42,-0.16,0.33,-1.09
992,-2.38,-2.64,10.07,-0.16,0.33,-1.09
997,-2.38,-2.64,10.07,-0.18,0.37,-1.12
1002,-2.38,-2.64,10.07,-0.20,0.37,-1.16
1007,-2.38,-2.64,10.07,-0.18,0.35,-1.17
1012,-2.38,-2.64,10.07,-0.19,0.37,-1.22
1017,-2.38,-2.64,10.07,-0.19,0.38,-1.26
1022,-4.41,-1.42,8.66,-0.19,0.38,-1.26
1027,-1.91,-1.04,8.58,-0.19,0.38,-1.26
1032,-1.91,-1.04,8.58,-0.14,0.29,-1.20
1037,-1.91,-1.04,8.58,-0.12,0.23,-1.20
1042,1.53,0.30,13.71,-0.12,0.23,-1.20
1047,1.53,0.30,13.71,-0.10,0.24,-1.31
1052,1.53,0.30,13.71,-0.10,0.25,-1.36
1057,0.11,-0.65,11.60,-0.10,0.25,-1.36
1062,0.42,-0.27,11.72,-0.10,0.25,-1.36
1066,0.42,-0.27,11.72,-0.12,0.52,-1.47
1071,0.42,-0.27,11.72,-0.15,0.61,-1.43
1076,-0.92,2.22,8.81,-0.15,0.61,-1.43
1081,-0.92,2.22,8.81,-0.21,0.58,-1.43
1087,0.08,3.56,9.61,-0.21,0.58,-1.43
1093,0.08,3.56,9.61,-0.25,0.48,-1.58
1097,0.08,3.56,9.61,-0.21,0.45,-1.60
1102,0.08,3.56,9.61,-0.13,0.39,-1.53
1107,0.08,3.56,9.61,-0.12,0.36,-1.48
1112,1.15,-1.49,11.38,-0.12,0.36,-1.48
1117,1.15,-1.49,11.38,-0.04,0.33,-1.45
1122,1.15,-1.49,11.38,-0.04,0.33,-1.43
1128,1.15,-1.49,11.38,-0.06,0.35,-1.42
1133,1.15,-1.49,11.38,-0.05,0.41,-1.43
1137,1.15,-1.49,11.38,-0.07,0.47,-1.48
1141,1.15,-1.49,11.38,-0.08,0.57,-1.52
1147,0.57,-1.19,12.02,-0.08,0.57,-1.52
1152,0.57,-1.19,12.02,-0.09,0.70,-1.51
1157,0.57,-1.19,12.02,-0.06,0.70,-1.47
1162,0.57,-1.19,12.02,-0.04,0.67,-1.42
1167,0.57,-1.19,12.02,-0.03,0.61,-1.39
1172,0.57,-1.19,12.02,-0.01,0.55,-1.39
1177,0.57,-1.19,12.02,0.01,0.50,-1.40
1182,1.95,-3.18,9.93,0.01,0.50,-1.40
1187,1.95,-3.18,9.93,0.10,0.54,-1.36
1192,1.95,-3.18,9.93,0.16,0.59,-1.28
1197,1.95,-3.18,9.93,0.20,0.61,-1.18
1201,1.95,-3.18,9.93,0.24,0.62,-1.14
1206,1.95,-3.18,9.93,0.24,0.64,-1.16
1211,-1.23,-3.83,10.42,0.24,0.64,-1.16
1216,-1.68,-3.45,10.00,0.24,0.64,-1.16
1222,-1.68,-3.45,10.00,0.29,0.68,-1.05
1227,-1.68,-3.45,10.00,0.31,0.63,-0.94
1232,-1.68,-3.45,10.00,0.34,0.58,-0.90
1237,-1.68,-3.45,10.00,0.37,0.52,-0.87
1242,-1.68,-3.45,10.00,0.43,0.49,-0.85
1246,-1.68,-3.45,10.00,0.46,0.51,-0.87
1252,1.72,-4.67,11.11,0.46,0.51,-0.87
1257,1.72,-4.67,11.11,0.45,0.71,-0.87
1262,1.72,-4.67,11.11,0.43,0.86,-0.81
1267,1.72,-4.67,11.11,0.41,0.97,-0.69
1272,1.72,-4.67,11.11,0.38,1.00,-0.55
1277,1.72,-4.67,11.11,0.37,0.96,-0.41
1281,1.72,-4.67,11.11,0.37,0.85,-0.30
1287,-6.86,-0.23,0.42,0.37,0.85,-0.30
1292,-6.86,-0.23,0.42,0.39,0.42,-0.15
1297,-6.86,-0.23,0.42,0.48,0.13,-0.08
1302,2.41,-5.67,10.88,0.48,0.13,-0.08
1307,2.41,-5.67,10.88,0.66,-0.36,0.11
1312,2.41,-5.67,10.88,0.75,-0.52,0.17
1317,2.41,-5.67,10.88,0.79,-0.50,0.19
1322,2.41,-5.67,10.88,0.81,-0.40,0.22
1327,2.41,-5.67,10.88,0.79,-0.20,0.24
1332,2.41,-5.67,10.88,0.70,0.07,0.24
1337,-0.42,2.11,10.15,0.70,0.07,0.24
1342,-0.42,2.11,10.15,0.45,0.50,0.16
1347,-0.42,2.11,10.15,0.40,0.64,0.11
1352,-0.42,2.11,10.15,0.35,0.69,0.07
1357,-0.42,2.11,10.15,0.35,0.72,0.04
1362,-0.42,2.11,10.15,0.40,0.71,0.04
1367,-0.42,2.11,10.15,0.45,0.66,0.09
1372,-2.07,-5.79,7.82,0.45,0.66,0.09
1377,-2.07,-5.79,7.82,0.56,0.54,0.24
1382,-2.07,-5.79,7.82,0.57,0.43,0.30
1387,-2.07,-5.79,7.82,0.57,0.30,0.32
1392,-2.07,-5.79,7.82,0.53,0.14,0.31
1397,-2.07,-5.79,7.82,0.51,0.02,0.27
1402,-2.07,-5.79,7.82,0.49,-0.06,0.24
1407,-0.08,-2.34,7.78,0.49,-0.06,0.24
1412,-0.08,-2.34,7.78,0.45,-0.04,0.22
1417,-0.08,-2.34,7.78,0.42,-0.01,0.19
1422,-0.08,-2.34,7.78,0.43,0.01,0.18
1427,-0.08,-2.34,7.78,0.39,0.05,0.14
1432,-0.08,-2.34,7.78,0.38,0.08,0.11
1436,-0.08,-2.34,7.78,0.37,0.10,0.08
1442,-0.38,-1.34,8.28,0.37,0.10,0.08
1446,-0.38,-1.34,8.28,0.35,0.09,0.05
1451,1.30,-1.19,9.46,0.35,0.09,0.05
1456,1.30,-1.19,9.46,0.35,0.01,-0.03
1462,3.10,-1.65,11.99,0.35,0.01,-0.03
1467,3.10,-1.65,11.99,0.34,0.01,-0.13
1471,3.10,-1.65,11.99,0.34,0.07,-0.18
1477,2.38,-2.22,12.79,0.34,0.07,-0.18
1482,2.38,-2.22,12.79,0.33,0.15,-0.26
1487,2.38,-2.22,12.79,0.30,0.21,-0.34
1492,2.38,-2.22,12.79,0.26,0.27,-0.41
1497,2.38,-2.22,12.79,0.23,0.34,-0.46
1502,2.38,-2.22,12.79,0.20,0.39,-0.51
1506,2.38,-2.22,12.79,0.14,0.34,-0.54
1512,-3.95,1.34,8.32,0.14,0.34,-0.54
1517,-3.95,1.34,8.32,0.09,0.18,-0.68
1522,-3.95,1.34,8.32,0.08,0.04,-0.72
1527,-3.95,1.34,8.32,0.08,-0.10,-0.75
1532,-3.95,1.34,8.32,0.04,-0.15,-0.81
1537,-3.95,1.34,8.32,0.03,-0.21,-0.88
1541,-3.95,1.34,8.32,0.01,-0.24,-0.91
1547,-3.14,0.65,7.73,0.01,-0.24,-0.91
1552,-3.14,0.65,7.73,-0.01,-0.05,-0.95
1557,-3.14,0.65,7.73,-0.01,0.09,-0.97
1562,-3.14,0.65,7.73,0.02,0.29,-1.01
1567,-3.14,0.65,7.73,0.03,0.43,-1.03
1572,-3.14,0.65,7.73,0.05,0.47,-0.99
1577,-3.14,0.65,7.73,0.10,0.54,-0.96
1582,-3.14,0.65,7.73,0.06,0.52,-0.94
1587,-3.14,0.65,7.73,0.02,0.41,-0.89
1592,-3.14,0.65,7.73,-0.00,0.33,-0.88
1597,-1.88,4.48,7.47,-0.00,0.33,-0.88
1602,-1.88,4.48,7.47,-0.06,0.08,-0.86
1607,-1.88,4.48,7.47,-0.05,0.02,-0.83
1612,-1.88,4.48,7.47,-0.05,-0.00,-0.83
1617,-1.88,4.48,7.47,-0.06,-0.01,-0.84
1622,-1.88,4.48,7.47,-0.04,0.01,-0.85
1627,-1.88,4.48,7.47,-0.04,0.04,-0.87
1632,2.84,0.84,13.83,-0.04,0.04,-0.87
1637,2.84,0.84,13.83,-0.01,0.10,-0.88
1642,2.84,0.84,13.83,-0.01,0.14,-0.91
1647,2.84,0.84,13.83,-0.05,0.19,-0.95
1652,2.84,0.84,13.83,-0.06,0.25,-0.99
1657,2.84,0.84,13.83,-0.09,0.33,-1.03
1661,2.84,0.84,13.83,-0.12,0.41,-1.07
1667,-0.23,-0.57,9.39,-0.12,0.41,-1.07
1672,-0.23,-0.57,9.39,-0.13,0.39,-1.03
1677,-0.23,-0.57,9.39,-0.14,0.31,-1.03
1682,-0.23,-0.57,9.39,-0.13,0.21,-1.06
1687,-0.23,-0.57,9.39,-0.09,0.11,-1.08
1692,-0.23,-0.57,9.39,-0.05,0.05,-1.07
1696,-0.23,-0.57,9.39,-0.02,0.03,-1.08
1702,2.07,-4.56,9.89,-0.02,0.03,-1.08
1706,2.07,-4.56,9.89,0.05,0.15,-1.04
1711,0.77,-4.33,10.46,0.05,0.15,-1.04
1717,0.77,-4.33,10.46,0.06,0.25,-1.02
1722,-0.11,-2.91,10.69,0.06,0.25,-1.02
1727,-0.11,-2.91,10.69,0.07,0.37,-1.06
1731,-0.11,-2.91,10.69,0.16,0.35,-1.07
1737,-6.05,-2.22,7.05,0.16,0.35,-1.07
1742,-6.05,-2.22,7.05,0.05,0.49,-1.15
1747,-6.05,-2.22,7.05,0.09,0.51,-1.05
1752,-6.05,-2.22,7.05,0.13,0.42,-0.93
1757,-6.05,-2.22,7.05,0.16,0.35,-0.92
1762,-6.05,-2.22,7.05,0.14,0.29,-1.00
1767,-6.05,-2.22,7.05,0.16,0.26,-1.04
1772,-6.05,-2.22,7.05,0.21,0.25,-0.94
1777,-6.05,-2.22,7.05,0.24,0.25,-0.79
1782,-6.05,-2.22,7.05,0.27,0.23,-0.70
1787,-6.05,-2.22,7.05,0.26,0.21,-0.72
1792,-6.05,-2.22,7.05,0.23,0.20,-0.75
1797,-6.05,-2.22,7.05,0.24,0.21,-0.71
1801,-6.05,-2.22,7.05,0.28,0.23,-0.58
1807,0.38,-0.30,7.97,0.28,0.23,-0.58
1812,0.38,-0.30,7.97,0.28,0.22,-0.47
1817,0.38,-0.30,7.97,0.27,0.25,-0.47
1822,0.38,-0.30,7.97,0.27,0.27,-0.43
1827,0.38,-0.30,7.97,0.27,0.27,-0.36
1832,0.38,-0.30,7.97,0.29,0.23,-0.31
1836,0.38,-0.30,7.97,0.32,0.22,-0.31
1842,-0.27,-2.03,11.00,0.32,0.22,-0.31
1847,-0.27,-2.03,11.00,0.36,0.25,-0.23
1851,-0.27,-2.03,11.00,0.37,0.30,-0.19
1857,-3.29,-1.84,8.46,0.37,0.30,-0.19
1862,-3.29,-1.84,8.46,0.31,0.33,-0.17
1867,-3.29,-1.84,8.46,0.31,0.26,-0.12
1872,-3.29,-1.84,8.46,0.31,0.22,-0.16
1877,-3.29,-1.84,8.46,0.29,0.17,-0.19
1882,-3.29,-1.84,8.46,0.30,0.16,-0.16
1886,-3.29,-1.84,8.46,0.33,0.24,-0.17
1892,-0.84,-3.07,10.69,0.33,0.24,-0.17
1897,-0.84,-3.07,10.69,0.33,0.34,-0.13
1902,-0.84,-3.07,10.69,0.37,0.41,-0.12
1906,-0.84,-3.07,10.69,0.35,0.41,-0.10
1913,-4.98,-1.42,9.50,0.35,0.41,-0.10
1917,-4.98,-1.42,9.50,0.36,0.32,-0.02
1921,-4.98,-1.42,9.50,0.31,0.21,-0.00
1927,-2.03,-1.61,8.08,0.31,0.21,-0.00
1932,-2.03,-1.61,8.08,0.34,0.07,-0.04
1937,-2.03,-1.61,8.08,0.30,0.04,0.00
1941,-2.03,-1.61,8.08,0.34,0.05,0.03
1947,0.92,-1.53,9.88,0.34,0.05,0.03
1952,0.92,-1.53,9.88,0.32,0.08,0.02
1956,0.92,-1.53,9.88,0.33,0.11,0.00
1962,1.11,-1.04,10.00,0.33,0.11,0.00
1967,1.11,-1.04,10.00,0.30,0.17,-0.02
1972,1.11,-1.04,10.00,0.28,0.20,-0.04
1977,1.11,-1.04,10.00,0.26,0.16,-0.02
1982,-0.84,-1.57,7.73,0.26,0.16,-0.02
1987,-0.84,-1.57,7.73,0.25,0.07,-0.06
1991,-0.84,-1.57,7.73,0.25,0.04,-0.07
1997,-0.19,-2.18,10.53,0.25,0.04,-0.07
2002,-0.19,-2.18,10.53,0.28,0.05,-0.07
2006,-0.19,-2.18,10.53,0.28,0.07,-0.07
2012,-0.19,-2.18,10.53,0.27,0.12,-0.09
2017,-0.19,-2.18,10.53,0.25,0.14,-0.10
2022,-0.19,-2.18,10.53,0.22,0.15,-0.14
2026,-0.19,-2.18,10.53,0.18,0.16,-0.16
2032,-1.95,-2.22,8.32,0.18,0.16,-0.16
2037,-1.95,-2.22,8.32,0.18,0.17,-0.14
2041,-1.95,-2.22,8.32,0.19,0.17,-0.11
2046,-1.95,-2.22,8.32,0.21,0.15,-0.08
2051,-2.72,-1.76,7.31,0.21,0.15,-0.08
2057,-2.72,-1.76,7.31,0.20,0.13,-0.06
2062,-2.72,-1.76,7.31,0.21,0.04,-0.00
2067,-1.84,-2.49,9.27,0.21,0.04,-0.00
2072,-1.84,-2.49,9.27,0.24,-0.06,0.11
2076,-1.84,-2.49,9.27,0.27,-0.10,0.15
2082,-1.84,-2.49,9.27,0.28,-0.10,0.15
2087,-1.84,-2.49,9.27,0.32,-0.05,0.14
2092,-1.84,-2.49,9.27,0.31,0.01,0.16
2096,-1.84,-2.49,9.27,0.32,0.11,0.19
2102,-4.60,-2.14,8.28,0.32,0.11,0.19
2107,-4.60,-2.14,8.28,0.27,0.25,0.19
2111,-4.60,-2.14,8.28,0.24,0.25,0.16
2117,-4.60,-2.14,8.28,0.23,0.21,0.14
2122,-4.60,-2.14,8.28,0.22,0.12,0.14
2127,-4.60,-2.14,8.28,0.24,0.04,0.12
2132,-4.60,-2.14,8.28,0.27,-0.02,0.10
2137,-1.30,-4.21,9.42,0.27,-0.02,0.10
2142,-1.30,-4.21,9.42,0.31,-0.04,0.08
2146,-1.30,-4.21,9.42,0.33,0.00,0.05
2152,-2.87,-3.33,9.35,0.33,0.00,0.05
2157,-2.87,-3.33,9.35,0.32,-0.00,0.06
2162,-2.87,-3.33,9.35,0.30,0.01,-0.01
2167,-2.87,-3.33,9.35,0.27,-0.03,-0.10
2172,-1.11,-2.57,9.81,0.27,-0.03,-0.10
2177,-1.11,-2.57,9.81,0.26,-0.02,-0.26
2181,-1.11,-2.57,9.81,0.24,-0.01,-0.30
2187,-3.87,-2.26,9.92,0.24,-0.01,-0.30
2192,-3.87,-2.26,9.92,0.24,0.12,-0.41
2197,-3.87,-2.26,9.92,0.24,0.13,-0.45
2201,-3.87,-2.26,9.92,0.23,0.10,-0.49
2207,-1.57,0.19,10.27,0.23,0.10,-0.49
2212,-1.57,0.19,10.27,0.18,0.02,-0.61
2216,-1.57,0.19,10.27,0.17,-0.05,-0.63
2222,2.03,1.76,9.54,0.17,-0.05,-0.63
2227,2.03,1.76,9.54,0.13,-0.04,-0.76
2231,2.03,1.76,9.54,0.14,0.03,-0.76
2237,2.03,1.76,9.54,0.13,0.09,-0.75
2242,1.42,3.14,10.39,0.13,0.09,-0.75
2247,1.42,3.14,10.39,0.10,0.15,-0.82
2251,1.42,3.14,10.39,0.07,0.18,-0.86
2257,-0.96,3.83,10.00,0.07,0.18,-0.86
2262,-0.96,3.83,10.00,0.05,0.21,-0.83
2266,-0.96,3.83,10.00,0.04,0.21,-0.82
2272,-0.96,3.83,10.00,0.03,0.19,-0.83
2277,-0.77,2.45,10.00,0.03,0.19,-0.83
2282,-0.77,2.45,10.00,0.03,0.13,-0.86
2286,-0.77,2.45,10.00,0.04,0.09,-0.83
2292,-0.57,2.41,9.00,0.04,0.09,-0.83
2296,-0.57,2.41,9.00,0.04,0.06,-0.79
2301,-0.57,2.41,9.00,0.02,0.06,-0.83
2307,-0.57,2.41,9.00,0.00,0.06,-0.89
2312,-0.57,2.41,9.00,-0.00,0.07,-0.95
2317,-0.57,2.41,9.00,0.01,0.07,-0.96
2322,-0.57,2.41,9.00,0.04,0.09,-0.95
2327,0.57,-1.42,9.20,0.04,0.09,-0.95
2332,0.57,-1.42,9.20,0.06,0.13,-0.99
2336,0.57,-1.42,9.20,0.06,0.17,-1.06
2342,0.57,-1.42,9.20,0.07,0.20,-1.08
2347,0.57,-1.42,9.20,0.07,0.22,-1.05
2351,0.57,-1.42,9.20,0.09,0.20,-1.03
2356,0.57,-1.42,9.20,0.12,0.15,-1.02
2362,-0.27,-2.34,11.04,0.12,0.15,-1.02
2367,-0.27,-2.34,11.04,0.20,0.12,-0.98
2371,-0.27,-2.34,11.04,0.24,0.17,-0.93
2377,-1.49,-2.38,10.11,0.24,0.17,-0.93
2382,-1.49,-2.38,10.11,0.27,0.23,-0.85
2386,-1.49,-2.38,10.11,0.28,0.23,-0.82
2392,-1.49,-2.38,10.11,0.29,0.22,-0.79
2397,-0.77,-1.42,9.00,0.29,0.22,-0.79
2401,-0.77,-1.42,9.00,0.32,0.14,-0.67
2406,-0.77,-1.42,9.00,0.33,0.13,-0.64
2411,0.15,-1.23,9.80,0.33,0.13,-0.64
2416,0.15,-1.23,9.80,0.34,0.12,-0.60
2422,0.15,-1.23,9.80,0.35,0.11,-0.56
2427,0.15,-1.23,9.80,0.38,0.16,-0.53
2432,0.15,-1.23,9.80,0.39,0.17,-0.43
2437,0.15,-1.23,9.80,0.42,0.19,-0.37
2441,0.15,-1.23,9.80,0.42,0.18,-0.31
2447,-2.26,0.34,8.70,0.42,0.18,-0.31
2452,-2.26,0.34,8.70,0.41,0.13,-0.22
2456,-2.26,0.34,8.70,0.43,0.10,-0.17
2462,-2.26,0.34,8.70,0.43,0.07,-0.07
2467,-2.57,0.00,9.16,0.43,0.07,-0.07
2472,-2.57,0.00,9.16,0.46,0.03,0.02
2476,-2.57,0.00,9.16,0.46,0.03,0.06
2482,-1.76,-1.00,9.58,0.46,0.03,0.06
2487,-1.76,-1.00,9.58,0.48,0.03,0.15
2491,-1.76,-1.00,9.58,0.48,0.05,0.18
2496,-1.76,-1.00,9.58,0.49,0.05,0.21
2502,0.00,-1.99,9.20,0.49,0.05,0.21
2506,0.00,-1.99,9.20,0.47,-0.03,0.25
2512,0.00,-1.99,9.20,0.48,-0.05,0.22
2517,0.34,-3.45,9.39,0.48,-0.05,0.22
2522,0.34,-3.45,9.39,0.50,-0.10,0.22
2526,0.34,-3.45,9.39,0.51,-0.10,0.21
2532,1.38,-2.95,9.04,0.51,-0.10,0.21
2536,1.38,-2.95,9.04,0.49,-0.10,0.16
2541,1.38,-2.95,9.04,0.48,-0.08,0.12
2547,1.38,-2.95,9.04,0.50,-0.03,0.07
2552,-0.15,-3.98,8.96,0.50,-0.03,0.07
2557,-0.15,-3.98,8.96,0.49,0.06,0.04
2561,-0.15,-3.98,8.96,0.49,0.10,0.04
2567,-0.15,-3.98,8.96,0.49,0.09,0.04
2572,-0.15,-3.98,8.96,0.51,0.07,0.04
2577,-0.15,-3.98,8.96,0.53,0.01,0.05
2582,-0.15,-3.98,8.96,0.53,-0.07,0.08
2587,-0.08,-1.88,9.58,0.53,-0.07,0.08
2592,-0.08,-1.88,9.58,0.56,-0.20,0.13
2596,-0.08,-1.88,9.58,0.56,-0.20,0.13
2602,0.08,-2.45,12.41,0.56,-0.20,0.13
2607,0.08,-2.45,12.41,0.60,-0.05,0.12
2611,0.08,-2.45,12.41,0.59,0.03,0.17
2616,0.08,-2.45,12.41,0.59,0.15,0.17
2622,-2.22,1.27,7.97,0.59,0.15,0.17
2627,-2.22,1.27,7.97,0.48,0.23,0.17
2632,-2.22,1.27,7.97,0.45,0.21,0.15
2637,-0.73,-0.69,7.39,0.45,0.21,0.15
2642,-0.73,-0.69,7.39,0.42,-0.01,0.22
2646,-0.73,-0.69,7.39,0.45,-0.09,0.25
2652,-0.73,-0.69,7.39,0.45,-0.14,0.30
2657,-4.94,-2.34,10.03,0.45,-0.14,0.30
2662,-4.94,-2.34,10.03,0.54,-0.04,0.40
2667,-4.94,-2.34,10.03,0.55,-0.02,0.51
2672,-5.02,-1.19,8.50,0.55,-0.02,0.51
2677,-5.02,-1.19,8.50,0.58,-0.07,0.65
2681,-5.02,-1.19,8.50,0.53,-0.15,0.66
2687,-5.02,-1.19,8.50,0.51,-0.19,0.66
2692,-1.38,-1.04,8.85,0.51,-0.19,0.66
2697,-1.38,-1.04,8.85,0.50,-0.16,0.70
2702,-1.38,-1.04,8.85,0.50,-0.08,0.71
2707,-1.38,-1.04,8.85,0.48,-0.01,0.71
2712,-1.38,-1.04,8.85,0.47,-0.02,0.74
2716,-1.38,-1.04,8.85,0.48,-0.07,0.74
2722,-0.30,-2.49,9.58,0.48,-0.07,0.74
2727,2.76,-2.64,9.69,0.48,-0.07,0.74
2731,2.76,-2.64,9.69,0.46,-0.25,0.70
2736,2.76,-2.64,9.69,0.44,-0.20,0.65
2742,1.19,-2.07,10.23,0.44,-0.20,0.65
2746,1.19,-2.07,10.23,0.42,-0.06,0.63
2751,0.19,-0.50,10.00,0.42,-0.06,0.63
2756,0.19,-0.50,10.00,0.36,0.05,0.60
2762,-0.92,-0.88,8.89,0.36,0.05,0.60
2766,-0.92,-0.88,8.89,0.35,0.03,0.57
2772,-0.92,-0.88,8.89,0.33,-0.02,0.57
2777,0.34,-0.88,9.73,0.33,-0.02,0.57
2782,0.34,-0.88,9.73,0.33,-0.09,0.51
2787,0.34,-0.88,9.73,0.32,-0.09,0.47
2792,0.34,-0.88,9.73,0.31,-0.05,0.47
2796,0.34,-0.88,9.73,0.30,-0.01,0.46
2801,0.34,-0.88,9.73,0.27,0.01,0.44
2807,0.34,-0.88,9.73,0.25,-0.00,0.42
2812,-1.46,0.08,8.74,0.25,-0.00,0.42
2817,-1.46,0.08,8.74,0.22,-0.06,0.35
2821,-1.46,0.08,8.74,0.20,-0.11,0.32
2827,-1.46,0.08,8.74,0.21,-0.13,0.30
2832,-1.46,0.08,8.74,0.21,-0.13,0.28
2836,-1.46,0.08,8.74,0.21,-0.11,0.23
2842,-1.46,0.08,8.74,0.21,-0.04,0.17
2847,-1.27,-1.38,10.88,0.21,-0.04,0.17
2851,-1.27,-1.38,10.88,0.17,0.17,0.07
2856,-1.27,-1.38,10.88,0.16,0.22,0.10
2862,-3.56,1.95,6.47,0.16,0.22,0.10
2866,-3.56,1.95,6.47,0.15,0.20,0.11
2871,-3.56,1.95,6.47,0.10,0.14,0.08
2876,-3.56,1.95,6.47,0.06,0.04,0.06
2882,-1.38,0.11,6.17,0.06,0.04,0.06
2886,-1.38,0.11,6.17,0.08,-0.13,0.03
2892,-1.38,0.11,6.17,0.11,-0.19,0.13
2897,0.00,-0.34,8.39,0.11,-0.19,0.13
2901,0.00,-0.34,8.39,0.20,-0.19,0.35
2906,0.00,-0.34,8.39,0.19,-0.16,0.38
2912,0.00,-0.34,8.39,0.19,-0.14,0.40
2916,0.00,-0.34,8.39,0.18,-0.12,0.44
2921,0.00,-0.34,8.39,0.18,-0.08,0.48
2927,0.00,-0.34,8.39,0.16,-0.03,0.53
2932,0.11,0.08,10.57,0.16,-0.03,0.53
2936,0.11,0.08,10.57,0.15,0.01,0.58
2941,0.11,0.08,10.57,0.14,0.05,0.58
2947,0.11,0.08,10.57,0.15,0.08,0.61
2951,0.11,0.08,10.57,0.13,0.07,0.66
2956,0.11,0.08,10.57,0.12,0.03,0.69
2962,0.11,0.08,10.57,0.12,-0.02,0.67
2967,0.11,0.08,10.57,0.12,-0.07,0.66
2971,0.11,0.08,10.57,0.13,-0.05,0.68
2976,0.11,0.08,10.57,0.12,-0.02,0.75
2981,-2.91,-1.07,9.20,0.12,-0.02,0.75
2987,-3.52,-1.34,8.46,0.12,-0.02,0.75
2991,-3.52,-1.34,8.46,0.12,0.02,0.79
2997,-3.52,-1.34,8.46,0.13,-0.01,0.83
3001,-3.52,-1.34,8.46,0.13,-0.06,0.87
3006,-3.52,-1.34,8.46,0.13,-0.13,0.90
3011,-3.52,-1.34,8.46,0.13,-0.17,0.88
3017,-0.08,-2.41,10.42,0.13,-0.17,0.88
3021,-0.08,-2.41,10.42,0.12,-0.15,0.86
3026,-0.08,-2.41,10.42,0.11,-0.11,0.84
3031,-0.08,-2.41,10.42,0.11,-0.05,0.82
3037,-0.23,-1.38,11.26,0.11,-0.05,0.82
3041,-0.23,-1.38,11.26,0.07,0.00,0.72
3046,-0.23,-1.38,11.26,0.05,0.03,0.66
3052,0.00,-1.34,9.39,0.05,0.03,0.66
3057,0.00,-1.34,9.39,0.01,0.04,0.52
3061,0.00,-1.34,9.39,-0.02,0.07,0.45
3066,0.00,-1.34,9.39,-0.04,0.06,0.41
3071,-3.29,0.42,7.27,-0.04,0.06,0.41
3077,-3.29,0.42,7.27,-0.06,0.05,0.36
3082,-3.29,0.42,7.27,-0.10,0.04,0.23
3087,-3.29,0.42,7.27,-0.11,0.01,0.20
3091,0.84,-0.65,11.68,-0.11,0.01,0.20
3096,0.84,-0.65,11.68,-0.10,-0.09,0.16
3101,0.84,-0.65,11.68,-0.09,-0.10,0.12
3107,1.57,1.11,12.68,-0.09,-0.10,0.12
3111,1.57,1.11,12.68,-0.14,-0.02,0.03
3116,1.57,1.11,12.68,-0.14,0.06,0.01
3122,-2.03,1.49,10.15,-0.14,0.06,0.01
3126,-2.03,1.49,10.15,-0.18,0.23,-0.05
3131,-2.03,1.49,10.15,-0.19,0.28,-0.07
3137,-2.03,1.49,10.15,-0.19,0.27,-0.08
3141,-2.03,1.49,10.15,-0.23,0.22,-0.09
3146,-2.03,1.49,10.15,-0.22,0.15,-0.12
3151,-2.03,1.49,10.15,-0.22,0.08,-0.15
3157,-2.84,0.42,9.35,-0.22,0.08,-0.15
3161,-2.84,0.42,9.35,-0.19,-0.08,-0.12
3166,-2.84,0.42,9.35,-0.17,-0.16,-0.10
3172,-2.84,0.42,9.35,-0.15,-0.20,-0.09
3176,-2.84,0.42,9.35,-0.14,-0.17,-0.12
3181,-2.84,0.42,9.35,-0.11,-0.11,-0.14
3186,-2.84,0.42,9.35,-0.11,-0.06,-0.15
3192,-0.80,-0.34,9.46,-0.11,-0.06,-0.15
3196,-0.80,-0.34,9.46,-0.12,-0.02,-0.23
3201,-0.80,-0.34,9.46,-0.13,0.03,-0.29
3207,-0.80,-0.34,9.46,-0.14,0.05,-0.33
3211,-0.80,-0.34,9.46,-0.15,0.06,-0.38
3216,-0.80,-0.34,9.46,-0.15,0.10,-0.44
3221,-0.80,-0.34,9.46,-0.15,0.08,-0.48
3227,-0.80,-0.34,9.46,-0.15,0.04,-0.51
3231,-0.80,-0.34,9.46,-0.16,0.01,-0.56
3236,-0.80,-0.34,9.46,-0.14,-0.02,-0.59
3242,-1.57,0.04,8.42,-0.14,-0.02,-0.59
3246,-1.57,0.04,8.42,-0.17,0.04,-0.64
3251,-1.57,0.04,8.42,-0.16,0.09,-0.66
3257,-1.57,0.04,8.42,-0.15,0.11,-0.64
3261,-1.57,0.04,8.42,-0.13,0.13,-0.64
3266,-1.57,0.04,8.42,-0.11,0.13,-0.63
3271,-1.57,0.04,8.42,-0.09,0.11,-0.60
3277,-1.07,1.00,10.80,-0.09,0.11,-0.60
3281,-1.07,1.00,10.80,-0.06,0.03,-0.56
3286,-1.07,1.00,10.80,-0.05,0.01,-0.54
3292,-1.07,1.00,10.80,-0.04,-0.00,-0.49
3296,-1.07,1.00,10.80,-0.03,-0.01,-0.43
3301,-1.07,1.00,10.80,-0.03,0.01,-0.37
3306,-1.07,1.00,10.80,-0.04,0.02,-0.33
3312,-1.53,1.72,8.43,-0.04,0.02,-0.33
3316,-1.53,1.72,8.43,-0.05,0.00,-0.31
3321,-1.53,1.72,8.43,-0.04,-0.02,-0.29
3327,-1.53,1.72,8.43,-0.04,-0.04,-0.27
3331,-1.53,1.72,8.43,-0.03,-0.03,-0.26
3337,-1.53,1.72,8.43,-0.02,-0.01,-0.25
3341,-1.53,1.72,8.43,-0.02,0.00,-0.26
3347,-1.53,1.72,8.43,-0.02,0.01,-0.27
3351,-1.53,1.72,8.43,-0.02,0.00,-0.29
3356,-1.53,1.72,8.43,-0.01,-0.01,-0.30
3361,-1.53,1.72,8.43,0.00,-0.03,-0.32
3367,1.23,-0.38,12.30,0.00,-0.03,-0.32
3371,1.23,-0.38,12.30,0.04,0.02,-0.39
3376,1.23,-0.38,12.30,0.05,0.09,-0.41
3382,-0.73,-1.34,10.11,0.05,0.09,-0.41
3386,-0.73,-1.34,10.11,0.05,0.17,-0.40
3391,-0.73,-1.34,10.11,0.06,0.14,-0.41
3397,-0.73,-1.34,10.11,0.06,0.10,-0.42
3402,-0.73,-1.34,10.11,0.07,0.05,-0.43
3406,-0.69,-0.88,7.89,0.07,0.05,-0.43
3411,-0.69,-0.88,7.89,0.10,0.03,-0.39
3417,-0.92,-0.80,8.04,0.10,0.03,-0.39
3422,-0.92,-0.80,8.04,0.15,0.01,-0.35
3426,-1.27,-1.57,8.70,0.15,0.01,-0.35
3432,-1.27,-1.57,8.70,0.19,0.00,-0.29
3436,-1.27,-1.57,8.70,0.21,-0.01,-0.25
3441,-1.27,-1.57,8.70,0.22,-0.04,-0.21
3447,-1.27,-1.57,8.70,0.24,-0.05,-0.16
3451,-1.27,-1.57,8.70,0.24,-0.06,-0.09
3456,-1.27,-1.57,8.70,0.25,-0.07,-0.03
3461,-1.27,-1.57,8.70,0.26,-0.10,0.03
3467,-1.27,-1.57,8.70,0.27,-0.12,0.06
3472,-1.27,-1.57,8.70,0.29,-0.09,0.11
3476,-1.27,-1.57,8.70,0.30,-0.04,0.16
3481,-1.27,-1.57,8.70,0.33,-0.01,0.24
3487,-1.27,-1.57,8.70,0.35,0.00,0.29
3492,-1.27,-1.57,8.70,0.37,0.01,0.32
3496,-0.15,-2.07,10.45,0.37,0.01,0.32
3501,-0.15,-2.07,10.45,0.39,0.01,0.43
3507,-0.15,-2.07,10.45,0.39,0.00,0.45
3511,-0.15,-2.07,10.45,0.38,-0.00,0.45
3517,-0.15,-2.07,10.45,0.38,-0.02,0.45
3521,-0.15,-2.07,10.45,0.38,-0.03,0.47
3526,-0.15,-2.07,10.45,0.38,-0.05,0.51
3532,-0.15,-2.07,10.45,0.37,-0.05,0.55
3537,-0.15,-2.07,10.45,0.37,-0.02,0.55
3542,-2.61,-1.99,8.84,0.37,-0.02,0.55
3546,-2.64,-2.14,7.59,0.37,-0.02,0.55
3552,-2.64,-2.14,7.59,0.37,-0.05,0.59
3557,-2.64,-2.14,7.59,0.36,-0.07,0.61
3561,-2.84,-1.68,7.43,0.36,-0.07,0.61
3566,-2.84,-1.68,7.43,0.37,-0.11,0.62
3572,-3.45,-1.42,8.54,0.37,-0.11,0.62
3576,-1.68,-2.30,10.69,0.37,-0.11,0.62
3581,-1.27,-1.88,11.84,0.37,-0.11,0.62
3587,-1.27,-1.88,11.84,0.38,-0.09,0.71
3592,-1.27,-1.88,11.84,0.39,-0.11,0.71
3596,-1.91,-1.11,11.49,0.39,-0.11,0.71
3601,-2.49,-0.38,11.04,0.39,-0.11,0.71
3607,-2.49,-0.38,11.04,0.39,0.06,0.68
3612,-2.49,-0.38,11.04,0.38,0.11,0.69
3616,-4.25,0.30,9.89,0.38,0.11,0.69
3621,-4.45,0.04,9.16,0.38,0.11,0.69
3626,-3.64,0.15,9.00,0.38,0.11,0.69
3631,-2.61,-0.19,8.70,0.38,0.11,0.69
3636,-2.61,-0.19,8.70,0.26,-0.02,0.64
3642,-2.61,-0.19,8.70,0.27,-0.10,0.63
3647,-2.61,-0.19,8.70,0.25,-0.16,0.63
3651,-1.38,1.30,7.81,0.25,-0.16,0.63
3656,-1.00,0.19,8.58,0.25,-0.16,0.63
3661,-1.00,0.19,8.58,0.22,-0.14,0.64
3666,-1.00,0.19,8.58,0.20,-0.11,0.61
3672,-1.00,0.19,8.58,0.18,-0.06,0.59
3676,-1.00,0.19,8.58,0.17,-0.01,0.57
3681,-1.00,0.19,8.58,0.15,0.01,0.57
3686,-1.00,0.19,8.58,0.13,-0.00,0.57
3692,-1.00,0.19,8.58,0.12,-0.01,0.55
3696,0.08,0.42,10.96,0.12,-0.01,0.55
3701,0.42,0.50,11.22,0.12,-0.01,0.55
3707,0.42,0.50,11.22,0.06,-0.06,0.46
3712,0.42,0.50,11.22,0.06,-0.04,0.44
3716,-1.34,1.27,11.15,0.06,-0.04,0.44
3721,-1.34,1.91,10.42,0.06,-0.04,0.44
3727,-1.34,1.91,10.42,0.02,0.15,0.36
3732,-1.34,1.91,10.42,0.00,0.17,0.33
3736,-1.99,2.38,10.69,0.00,0.17,0.33
3741,-0.77,3.07,10.04,0.00,0.17,0.33
3747,-0.77,3.07,10.04,-0.05,0.10,0.31
3752,-0.77,3.07,10.04,-0.08,0.04,0.30
3757,0.50,2.18,8.70,-0.08,0.04,0.30
3761,0.96,2.76,7.74,-0.08,0.04,0.30
3766,0.96,2.76,7.74,-0.12,-0.06,0.28
3771,0.96,2.76,7.74,-0.14,-0.05,0.30
3777,0.96,2.76,7.74,-0.14,-0.01,0.32
3782,0.96,2.76,7.74,-0.17,0.01,0.32
3786,0.80,1.42,9.65,-0.17,0.01,0.32
3791,0.34,1.19,9.58,-0.17,0.01,0.32
3797,0.34,1.19,9.58,-0.20,-0.01,0.29
3801,0.69,1.42,8.46,-0.20,-0.01,0.29
3806,0.73,0.96,8.85,-0.20,-0.01,0.29
3812,0.73,0.96,8.85,-0.25,-0.01,0.28
3817,0.73,0.96,8.85,-0.26,0.00,0.27
3821,0.88,-1.53,11.54,-0.26,0.00,0.27
3826,1.38,-0.57,11.72,-0.26,0.00,0.27
3832,1.38,-0.57,11.72,-0.25,0.04,0.22
3836,-1.46,-1.61,11.64,-0.25,0.04,0.22
3841,-1.46,-1.88,11.49,-0.25,0.04,0.22
3846,-1.53,-1.61,10.95,-0.25,0.04,0.22
3851,-1.53,-1.61,10.95,-0.16,0.19,0.21
3856,-1.53,-1.61,10.95,-0.15,0.18,0.19
3861,-1.53,-1.61,10.95,-0.15,0.14,0.17
3867,-1.53,-1.61,10.95,-0.14,0.07,0.18
3871,0.00,-1.99,8.43,-0.14,0.07,0.18
3876,-0.80,-1.19,8.66,-0.14,0.07,0.18
3881,-0.80,-1.19,8.66,-0.12,-0.04,0.19
3887,-1.38,-1.99,9.12,-0.12,-0.04,0.19
3892,-1.38,-1.99,9.12,-0.13,0.04,0.13
3897,-1.19,-1.95,8.66,-0.13,0.04,0.13
3901,0.27,-1.46,8.85,-0.13,0.04,0.13
3906,0.84,-0.61,8.12,-0.13,0.04,0.13
3911,0.84,-0.61,8.12,-0.12,0.01,0.15
3917,0.84,-0.61,8.12,-0.11,0.01,0.14
3921,0.84,0.61,9.54,-0.11,0.01,0.14
3926,0.54,1.27,10.15,-0.11,0.01,0.14
3932,0.54,1.27,10.15,-0.13,0.08,0.10
3937,0.54,1.27,10.15,-0.15,0.13,0.08
3941,-1.23,2.18,10.38,-0.15,0.13,0.08
3946,-1.07,1.72,10.07,-0.15,0.13,0.08
3952,-1.07,1.72,10.07,-0.18,0.17,0.03
3957,-1.07,1.72,10.07,-0.19,0.13,0.00
3962,1.30,1.84,10.07,-0.19,0.13,0.00
3966,0.80,1.23,9.43,-0.19,0.13,0.00
3971,0.65,1.53,8.96,-0.19,0.13,0.00
3976,0.65,1.53,8.96,-0.27,0.01,-0.11
3981,0.65,1.53,8.96,-0.29,0.04,-0.12
3987,0.65,1.53,8.96,-0.30,0.08,-0.15
3991,-3.29,0.15,8.58,-0.30,0.08,-0.15
3996,-3.14,-0.65,8.66,-0.30,0.08,-0.15
4002,-3.14,-0.65,8.66,-0.24,0.19,-0.20
4007,-2.99,0.11,7.74,-0.24,0.19,-0.20
4011,-3.22,0.08,8.50,-0.24,0.19,-0.20
4016,-2.26,0.23,7.28,-0.24,0.19,-0.20
4022,-2.26,0.23,7.28,-0.21,0.02,-0.16
4026,-0.92,-0.34,9.00,-0.21,0.02,-0.16
4031,-0.23,-0.80,9.04,-0.21,0.02,-0.16
4036,-0.42,-0.65,10.38,-0.21,0.02,-0.16
4042,-0.42,-0.65,10.38,-0.19,-0.10,-0.07
4046,-0.69,-1.38,10.80,-0.19,-0.10,-0.07
4051,-1.95,-1.88,11.04,-0.19,-0.10,-0.07
4057,-1.95,-1.88,11.04,-0.12,0.08,-0.02
4061,-3.37,-0.84,10.65,-0.12,0.08,-0.02
4066,-2.57,-1.11,9.96,-0.12,0.08,-0.02
4072,-1.46,-1.07,10.19,-0.12,0.08,-0.02
4076,-1.11,-1.46,10.42,-0.12,0.08,-0.02
4081,-1.23,-1.11,8.50,-0.12,0.08,-0.02
4087,-1.23,-1.11,8.50,-0.08,-0.01,0.12
4092,-1.23,-1.11,8.50,-0.07,-0.01,0.12
4096,-4.10,-1.23,5.94,-0.07,-0.01,0.12
4101,-4.94,-1.61,5.32,-0.07,-0.01,0.12
4107,-3.03,-1.27,6.09,-0.07,-0.01,0.12
4111,-1.57,-1.30,7.78,-0.07,-0.01,0.12
4116,-1.34,-1.61,8.43,-0.07,-0.01,0.12
4121,-1.34,-1.61,8.43,-0.03,-0.22,0.29
4127,-1.34,-1.61,8.43,-0.02,-0.27,0.31
4132,0.61,-2.64,12.64,-0.02,-0.27,0.31
4136,0.61,-2.64,12.64,0.01,-0.16,0.30
4141,-0.69,-2.49,13.03,0.01,-0.16,0.30
4147,-0.69,-2.49,13.03,0.03,-0.05,0.32
4151,-1.07,-2.53,11.30,0.03,-0.05,0.32
4156,-1.61,-2.07,9.08,0.03,-0.05,0.32
4162,-1.61,-2.07,9.08,0.06,0.17,0.39
4166,-1.72,-2.26,8.16,0.06,0.17,0.39
4171,-1.42,-3.03,7.93,0.06,0.17,0.39
4177,-1.80,-3.10,8.04,0.06,0.17,0.39
4181,-2.61,-3.37,7.78,0.06,0.17,0.39
4186,-3.41,-1.99,8.54,0.06,0.17,0.39
4191,-3.48,-2.49,7.93,0.06,0.17,0.39
4196,-3.48,-2.49,7.93,0.09,-0.03,0.43
4202,-3.48,-2.49,7.93,0.08,-0.06,0.43
4206,-1.61,-2.26,8.39,0.08,-0.06,0.43
4212,-0.96,-2.26,8.35,0.08,-0.06,0.43
4217,0.04,-1.65,7.85,0.08,-0.06,0.43
4221,0.04,-1.65,7.85,0.07,-0.25,0.39
4226,1.95,-2.11,11.38,0.07,-0.25,0.39
4231,2.18,-1.80,12.14,0.07,-0.25,0.39
4236,2.49,-1.76,13.33,0.07,-0.25,0.39
4241,1.68,-1.68,12.30,0.07,-0.25,0.39
4247,0.54,-1.61,12.02,0.07,-0.25,0.39
4251,-1.34,-0.46,9.80,0.07,-0.25,0.39
4256,-1.80,-0.23,9.16,0.07,-0.25,0.39
4262,-1.65,-0.23,8.50,0.07,-0.25,0.39
4266,-0.69,-0.30,8.50,0.07,-0.25,0.39
4271,0.23,-0.54,8.16,0.07,-0.25,0.39
4277,0.54,-0.34,9.30,0.07,-0.25,0.39
4281,0.80,0.84,10.80,0.07,-0.25,0.39
4286,0.50,1.84,11.60,0.07,-0.25,0.39
4291,-1.34,1.15,11.22,0.07,-0.25,0.39
4297,-1.07,1.84,11.11,0.07,-0.25,0.39
4302,-1.30,2.22,10.27,0.07,-0.25,0.39
4306,-1.30,2.22,10.27,-0.06,0.05,0.02
4311,1.00,2.18,8.96,-0.06,0.05,0.02
4317,1.00,2.18,8.96,-0.06,-0.04,-0.01
4321,3.14,3.07,9.35,-0.06,-0.04,-0.01
4326,2.76,3.56,9.04,-0.06,-0.04,-0.01
4332,2.41,3.26,9.92,-0.06,-0.04,-0.01
4337,0.73,3.87,10.91,-0.06,-0.04,-0.01
4341,0.73,3.87,10.91,-0.21,0.15,-0.24
4346,-1.65,2.64,10.69,-0.21,0.15,-0.24
4351,-2.91,2.38,10.45,-0.21,0.15,-0.24
4356,-2.64,2.03,10.11,-0.21,0.15,-0.24
4361,-3.07,2.34,9.20,-0.21,0.15,-0.24
4367,-2.84,2.53,10.69,-0.21,0.15,-0.24
4372,-1.34,1.72,9.85,-0.21,0.15,-0.24
4376,-1.34,1.72,9.85,-0.27,0.04,-0.57
4381,-1.34,1.72,9.85,-0.26,-0.05,-0.60
4387,0.27,0.96,8.74,-0.26,-0.05,-0.60
4392,-1.23,0.92,8.50,-0.26,-0.05,-0.60
4396,-1.23,0.92,8.50,-0.24,0.00,-0.65
4401,-1.04,1.76,8.92,-0.24,0.00,-0.65
4407,-1.04,1.76,8.92,-0.23,0.04,-0.65
4412,-1.84,1.72,10.39,-0.23,0.04,-0.65
4416,1.42,0.11,9.92,-0.23,0.04,-0.65
4421,2.11,0.65,9.77,-0.23,0.04,-0.65
4426,1.80,0.27,9.88,-0.23,0.04,-0.65
4431,1.19,1.04,9.50,-0.23,0.04,-0.65
4437,0.65,1.07,8.58,-0.23,0.04,-0.65
4442,-0.38,1.04,8.85,-0.23,0.04,-0.65
4446,-0.38,1.04,8.85,-0.13,0.18,-0.49
4451,-2.76,1.84,8.27,-0.13,0.18,-0.49
4456,-3.37,1.76,9.23,-0.13,0.18,-0.49
4461,-3.95,1.04,9.31,-0.13,0.18,-0.49
4466,-4.75,0.80,8.46,-0.13,0.18,-0.49
4472,-2.38,1.65,8.58,-0.13,0.18,-0.49
4477,-1.15,0.54,10.11,-0.13,0.18,-0.49
4481,-1.15,0.54,10.11,-0.06,-0.06,-0.15
4486,1.76,-0.23,10.88,-0.06,-0.06,-0.15
4491,1.46,-1.07,10.92,-0.06,-0.06,-0.15
4496,0.57,-0.73,10.15,-0.06,-0.06,-0.15
4501,-0.50,-0.69,9.38,-0.06,-0.06,-0.15
4507,-2.45,-1.38,9.54,-0.06,-0.06,-0.15
4512,-2.26,-2.07,8.28,-0.06,-0.06,-0.15
4516,-2.26,-2.07,8.28,0.09,0.15,0.26
4521,-2.26,-2.07,8.28,0.10,0.11,0.28
4526,-0.30,-2.18,10.15,0.10,0.11,0.28
4531,-1.27,-2.57,10.69,0.10,0.11,0.28
4537,-1.84,-3.87,10.11,0.10,0.11,0.28
4541,-3.07,-3.03,7.62,0.10,0.11,0.28
4546,-3.75,-3.22,8.01,0.10,0.11,0.28
4551,-3.14,-3.37,7.35,0.10,0.11,0.28
4557,-2.03,-2.18,7.13,0.10,0.11,0.28
4561,-1.76,-2.38,8.32,0.10,0.11,0.28
4566,-0.88,-2.18,9.46,0.10,0.11,0.28
4572,-2.30,-1.72,10.00,0.10,0.11,0.28
4576,-3.37,-2.41,9.85,0.10,0.11,0.28
4581,-2.95,-2.76,10.04,0.10,0.11,0.28
4587,-2.18,-3.07,10.80,0.10,0.11,0.28
4591,-1.95,-2.49,9.80,0.10,0.11,0.28
4596,-1.46,-2.30,9.69,0.10,0.11,0.28
4602,-0.84,-1.15,9.61,0.10,0.11,0.28
4606,-0.92,-1.27,9.73,0.10,0.11,0.28
4611,-0.65,-0.42,8.77,0.10,0.11,0.28
4616,-0.73,-0.80,10.77,0.10,0.11,0.28
4621,-1.53,-0.80,9.89,0.10,0.11,0.28
4627,-1.57,0.69,10.50,0.10,0.11,0.28
4632,-3.68,-0.30,10.42,0.10,0.11,0.28
4636,-3.68,-0.30,10.42,0.06,0.15,0.17
4641,-3.68,-0.30,10.42,0.04,0.14,0.13
4647,-2.64,1.27,11.15,0.04,0.14,0.13
4652,-1.76,0.96,9.54,0.04,0.14,0.13
4656,-1.76,0.96,9.54,-0.04,-0.00,0.02
4661,-1.76,0.96,9.54,-0.03,-0.04,0.02
4667,-0.96,3.22,8.27,-0.03,-0.04,0.02
4671,-0.96,3.22,8.27,-0.09,-0.03,-0.02
4676,-1.00,2.34,9.50,-0.09,-0.03,-0.02
4681,-0.84,2.95,9.58,-0.09,-0.03,-0.02
4686,-0.77,2.64,9.30,-0.09,-0.03,-0.02
4692,-0.61,2.34,8.96,-0.09,-0.03,-0.02
4696,0.54,1.88,8.54,-0.09,-0.03,-0.02
4701,0.84,1.84,8.89,-0.09,-0.03,-0.02
4707,1.04,2.03,9.38,-0.09,-0.03,-0.02
4711,2.53,1.23,10.27,-0.09,-0.03,-0.02
4716,2.76,1.57,10.46,-0.09,-0.03,-0.02
4721,2.61,0.84,11.11,-0.09,-0.03,-0.02
4727,1.76,0.27,11.41,-0.09,-0.03,-0.02
4731,-0.38,1.07,10.69,-0.09,-0.03,-0.02
4737,-1.07,0.84,10.73,-0.09,-0.03,-0.02
4741,-1.07,0.84,10.73,-0.12,0.19,0.04
4746,-0.73,0.23,9.50,-0.12,0.19,0.04
4751,0.46,0.00,9.20,-0.12,0.19,0.04
4757,0.27,0.00,8.70,-0.12,0.19,0.04
4761,0.27,0.00,8.70,-0.12,-0.01,0.08
4767,0.54,-0.23,8.12,-0.12,-0.01,0.08
4772,0.77,-1.42,9.38,-0.12,-0.01,0.08
4776,0.77,-1.42,9.38,-0.12,-0.07,0.11
4781,0.77,-1.42,9.38,-0.11,-0.03,0.09
4786,-0.65,-1.95,10.96,-0.11,-0.03,0.09
4791,-0.65,-1.95,10.96,-0.08,0.02,0.13
4796,-0.30,-2.14,11.88,-0.08,0.02,0.13
4803,-0.30,-2.14,11.88,-0.05,0.03,0.16
4807,0.73,-1.99,11.68,-0.05,0.03,0.16
4811,0.73,-1.99,11.68,0.00,0.08,0.18
4816,0.27,-1.46,9.80,0.00,0.08,0.18
4821,-0.30,-1.68,9.04,0.00,0.08,0.18
4827,-1.61,-1.95,8.54,0.00,0.08,0.18
4831,-3.52,-0.27,7.01,0.00,0.08,0.18
4836,-3.37,-0.15,6.16,0.00,0.08,0.18
4841,-2.26,0.19,7.24,0.00,0.08,0.18
4847,-1.95,-0.34,7.43,0.00,0.08,0.18
4851,-0.30,-0.30,9.85,0.00,0.08,0.18
4856,1.72,-1.04,10.65,0.00,0.08,0.18
4861,3.68,-0.92,11.30,0.00,0.08,0.18
4867,3.33,-1.11,13.06,0.00,0.08,0.18
4872,1.65,-1.11,12.56,0.00,0.08,0.18
4876,1.65,-1.11,12.56,-0.03,0.09,0.20
4881,1.65,-1.11,12.56,-0.02,0.22,0.22
4886,-4.21,0.77,9.27,-0.02,0.22,0.22
4892,-4.67,0.54,7.31,-0.02,0.22,0.22
4896,-4.67,0.54,7.31,0.01,0.40,0.23
4902,-4.67,0.54,7.31,-0.03,0.29,0.24
4907,-1.65,0.80,5.48,-0.03,0.29,0.24
4911,-1.65,0.80,5.48,-0.08,-0.04,0.21
4916,-1.65,0.80,5.48,-0.10,-0.15,0.19
4821,-0.30,-1.68,9.04,0.00,0.08,0.18
4827,-1.61,-1.95,8.54,0.00,0.08,0.18
4831,-3.52,-0.27,7.01,0.00,0.08,0.18
4836,-3.37,-0.15,6.16,0.00,0.08,0.18
4841,-2.26,0.19,7.24,0.00,0.08,0.18
4847,-1.95,-0.34,7.43,0.00,0.08,0.18
4851,-0.30,-0.30,9.85,0.00,0.08,0.18
4856,1.72,-1.04,10.65,0.00,0.08,0.18
4861,3.68,-0.92,11.30,0.00,0.08,0.18
4867,3.33,-1.11,13.06,0.00,0.08,0.18
4872,1.65,-1.11,12.56,0.00,0.08,0.18
4876,1.65,-1.11,12.56,-0.03,0.09,0.20
4881,1.65,-1.11,12.56,-0.02,0.22,0.22
4886,-4.21,0.77,9.27,-0.02,0.22,0.22
4892,-4.67,0.54,7.31,-0.02,0.22,0.22
4896,-4.67,0.54,7.31,0.01,0.40,0.23
