timestamp,accX,accY,accZ,gyroX,gyroY,gyroZ
Left
6,-3.60,-0.04,9.50,0.13,-0.13,0.26
18,1.11,0.19,9.69,0.13,-0.13,0.26
20,-0.54,0.42,10.77,0.13,-0.13,0.26
22,-1.07,1.07,9.77,0.13,-0.13,0.26
25,-1.07,1.07,9.77,-0.14,0.10,-0.30
31,-1.84,0.34,9.46,-0.14,0.10,-0.30
36,-1.84,0.34,9.46,-0.13,0.14,-0.32
41,-1.84,0.34,9.46,-0.11,0.16,-0.33
46,-1.46,-0.61,8.78,-0.11,0.16,-0.33
51,-1.46,-0.61,8.78,-0.08,0.13,-0.32
56,-1.46,-0.61,8.78,-0.08,0.10,-0.30
61,-1.46,-0.61,8.78,-0.09,0.08,-0.30
67,-0.57,0.38,10.19,-0.09,0.08,-0.30
71,-0.57,0.38,10.19,-0.12,0.05,-0.33
76,-0.57,0.38,10.19,-0.11,0.08,-0.33
81,-1.91,0.08,8.96,-0.11,0.08,-0.33
86,-1.91,0.08,8.96,-0.09,0.05,-0.32
91,-1.91,0.08,8.96,-0.08,-0.02,-0.29
96,-1.91,0.08,8.96,-0.07,-0.05,-0.23
101,-0.04,-1.11,9.08,-0.07,-0.05,-0.23
106,-0.04,-1.11,9.08,-0.05,-0.02,-0.19
111,-0.04,-1.11,9.08,-0.01,0.04,-0.20
116,-3.03,-0.42,9.20,-0.01,0.04,-0.20
121,-3.03,-0.42,9.20,0.04,0.12,-0.19
126,-3.03,-0.42,9.20,0.03,0.12,-0.16
131,-3.03,-0.42,9.20,0.04,0.07,-0.16
137,-1.91,-1.23,9.65,0.04,0.07,-0.16
141,-1.91,-1.23,9.65,0.00,-0.04,-0.15
146,-1.91,-1.23,9.65,0.03,-0.07,-0.14
151,0.19,-1.30,10.57,0.03,-0.07,-0.14
156,0.19,-1.30,10.57,0.05,-0.03,-0.08
161,0.19,-1.30,10.57,0.07,0.04,-0.05
166,0.19,-1.30,10.57,0.10,0.12,-0.04
172,-2.80,-1.72,9.08,0.10,0.12,-0.04
176,-2.80,-1.72,9.08,0.18,0.16,-0.03
180,-2.80,-1.72,9.08,0.20,0.13,0.01
186,-1.19,-1.88,6.59,0.20,0.13,0.01
191,-1.19,-1.88,6.59,0.18,-0.08,0.02
196,-1.19,-1.88,6.59,0.15,-0.20,-0.01
201,-1.19,-1.88,6.59,0.13,-0.27,-0.00
206,1.46,-1.30,10.65,0.13,-0.27,-0.00
211,1.46,-1.30,10.65,0.11,-0.29,0.05
216,1.46,-1.30,10.65,0.11,-0.24,0.10
221,2.26,-2.03,12.68,0.11,-0.24,0.10
226,2.26,-2.03,12.68,0.17,-0.04,0.18
231,2.26,-2.03,12.68,0.21,0.07,0.19
236,2.26,-2.03,12.68,0.26,0.16,0.19
241,2.26,-2.03,12.68,0.29,0.20,0.20
246,2.26,-2.03,12.68,0.31,0.17,0.21
251,2.26,-2.03,12.68,0.29,0.11,0.22
256,0.38,-2.14,9.54,0.29,0.11,0.22
261,0.38,-2.14,9.54,0.24,-0.04,0.21
266,0.38,-2.14,9.54,0.22,-0.07,0.20
272,0.38,-2.14,9.54,0.21,-0.09,0.18
276,0.38,-2.14,9.54,0.21,-0.09,0.16
281,0.38,-2.14,9.54,0.21,-0.07,0.15
286,0.38,-2.14,9.54,0.19,-0.06,0.12
292,1.46,-0.46,9.50,0.19,-0.06,0.12
296,1.46,-0.46,9.50,0.19,-0.09,0.10
301,1.46,-0.46,9.50,0.19,-0.06,0.14
306,1.46,-0.46,9.50,0.21,-0.02,0.16
311,1.46,-0.46,9.50,0.20,-0.01,0.15
316,1.46,-0.46,9.50,0.20,-0.01,0.14
321,1.46,-0.46,9.50,0.18,-0.03,0.17
326,4.14,-1.80,14.94,0.18,-0.03,0.17
331,4.14,-1.80,14.94,0.16,-0.06,0.30
336,4.14,-1.80,14.94,0.17,0.01,0.35
342,-0.57,-0.80,11.49,0.17,0.01,0.35
346,-0.57,-0.80,11.49,0.26,0.20,0.36
351,-0.57,-0.80,11.49,0.29,0.27,0.34
356,-0.57,-0.80,11.49,0.33,0.28,0.32
361,-3.10,-2.26,6.20,0.33,0.28,0.32
366,-3.10,-2.26,6.20,0.34,0.13,0.32
371,-3.10,-2.26,6.20,0.31,-0.00,0.30
377,-2.34,0.38,7.20,0.31,-0.00,0.30
381,-2.34,0.38,7.20,0.19,-0.21,0.18
386,-2.34,0.38,7.20,0.13,-0.25,0.10
391,-2.34,0.38,7.20,0.11,-0.25,0.04
396,-0.77,0.34,9.23,0.11,-0.25,0.04
401,-0.77,0.34,9.23,0.09,-0.17,0.01
406,-0.77,0.34,9.23,0.09,-0.10,0.02
411,-0.77,-2.07,10.84,0.09,-0.10,0.02
416,-0.77,-2.07,10.84,0.16,0.01,0.03
421,-0.77,-2.07,10.84,0.21,0.07,0.05
426,-0.77,-2.07,10.84,0.26,0.11,0.08
432,-1.61,-1.15,8.81,0.26,0.11,0.08
436,-1.61,-1.15,8.81,0.27,0.13,0.10
441,-1.61,-1.15,8.81,0.26,0.10,0.10
446,-0.57,-1.27,10.35,0.26,0.10,0.10
451,-0.57,-1.27,10.35,0.22,0.06,0.12
456,-0.57,-1.27,10.35,0.22,0.05,0.11
461,-0.57,-1.27,10.35,0.23,0.05,0.12
466,-1.88,0.69,8.73,0.23,0.05,0.12
471,-1.88,0.69,8.73,0.26,0.09,0.17
475,-1.88,0.69,8.73,0.26,0.11,0.16
480,-1.91,-0.42,7.27,0.26,0.11,0.16
486,-1.91,-0.42,7.27,0.23,0.09,0.12
491,-1.91,-0.42,7.27,0.25,-0.04,0.10
496,-1.91,-0.42,7.27,0.23,-0.08,0.11
501,-1.91,-0.42,7.27,0.20,-0.13,0.11
506,-1.91,-0.42,7.27,0.17,-0.17,0.10
511,-1.91,-0.42,7.27,0.16,-0.15,0.07
517,-2.61,1.04,11.64,0.16,-0.15,0.07
521,-2.61,1.04,11.64,0.17,-0.02,0.05
526,-2.61,1.04,11.64,0.17,0.01,0.04
531,0.15,-1.57,9.20,0.17,0.01,0.04
537,-0.54,-0.69,9.54,0.17,0.01,0.04
541,-0.54,-0.69,9.54,0.25,-0.02,0.15
546,-0.54,-0.69,9.54,0.25,0.00,0.16
552,-4.33,1.19,10.00,0.25,0.00,0.16
556,-4.33,1.19,10.00,0.28,0.15,0.12
561,-4.33,1.19,10.00,0.25,0.15,0.09
566,-0.80,0.54,8.96,0.25,0.15,0.09
571,-0.80,0.54,8.96,0.19,-0.06,0.08
576,-0.80,0.54,8.96,0.15,-0.15,0.10
581,-0.80,0.54,8.96,0.12,-0.21,0.11
586,2.30,1.72,9.61,0.12,-0.21,0.11
591,2.30,1.72,9.61,0.11,-0.24,0.08
596,2.30,1.72,9.61,0.13,-0.17,0.10
602,1.15,-0.19,11.11,0.13,-0.17,0.10
606,1.15,-0.19,11.11,0.21,-0.02,0.21
611,1.15,-0.19,11.11,0.23,0.06,0.26
616,1.15,-0.19,11.11,0.25,0.12,0.27
622,-1.68,0.23,9.39,0.25,0.12,0.27
626,-1.68,0.23,9.39,0.30,0.12,0.25
631,-1.68,0.23,9.39,0.29,0.06,0.27
637,-1.68,0.23,9.39,0.27,-0.03,0.29
641,-1.68,0.23,9.39,0.22,-0.12,0.26
646,-1.68,0.23,9.39,0.18,-0.18,0.19
651,-1.68,0.23,9.39,0.14,-0.22,0.14
656,1.49,0.30,10.30,0.14,-0.22,0.14
661,1.49,0.30,10.30,0.10,-0.28,0.16
666,1.49,0.30,10.30,0.10,-0.24,0.22
672,1.68,-0.54,12.22,0.10,-0.24,0.22
676,1.68,-0.54,12.22,0.17,-0.03,0.28
681,1.68,-0.54,12.22,0.22,0.07,0.29
686,1.68,-0.54,12.22,0.25,0.16,0.30
691,-0.54,-0.77,8.62,0.25,0.16,0.30
696,-0.54,-0.77,8.62,0.30,0.21,0.37
701,-0.54,-0.77,8.62,0.29,0.15,0.39
706,1.27,-1.99,8.46,0.29,0.15,0.39
711,1.27,-1.99,8.46,0.27,-0.03,0.40
716,1.27,-1.99,8.46,0.26,-0.10,0.40
721,0.19,0.08,7.62,0.26,-0.10,0.40
726,0.19,0.08,7.62,0.23,-0.14,0.35
731,0.19,0.08,7.62,0.19,-0.14,0.28
736,0.19,0.08,7.62,0.17,-0.14,0.22
742,0.69,-1.30,9.12,0.17,-0.14,0.22
746,0.69,-1.30,9.12,0.18,-0.12,0.22
751,0.69,-1.30,9.12,0.21,-0.08,0.26
756,0.69,-1.30,9.12,0.20,-0.04,0.25
761,0.69,-1.30,9.12,0.20,-0.02,0.24
766,0.69,-1.30,9.12,0.20,0.01,0.22
771,0.69,-1.30,9.12,0.19,0.00,0.23
776,0.69,-1.30,9.12,0.22,-0.00,0.26
781,0.69,-1.30,9.12,0.23,0.03,0.31
786,0.69,-1.30,9.12,0.26,0.05,0.33
791,-1.23,-0.54,9.58,0.26,0.05,0.33
796,-1.23,-0.54,9.58,0.28,0.13,0.34
801,-1.23,-0.54,9.58,0.29,0.12,0.34
806,-1.23,-0.54,9.58,0.29,0.08,0.37
811,-0.73,-0.30,9.73,0.29,0.08,0.37
816,-0.73,-0.30,9.73,0.26,-0.02,0.43
821,-0.73,-0.30,9.73,0.23,-0.06,0.42
826,-1.00,0.19,9.16,0.23,-0.06,0.42
831,-1.00,0.19,9.16,0.22,-0.10,0.38
836,-1.00,0.19,9.16,0.24,-0.11,0.40
841,-1.00,0.19,9.16,0.27,-0.10,0.45
846,-0.92,-0.15,9.80,0.27,-0.10,0.45
851,-0.92,-0.15,9.80,0.24,-0.08,0.48
856,-0.92,-0.15,9.80,0.23,-0.07,0.50
861,0.27,-0.73,10.99,0.23,-0.07,0.50
866,0.27,-0.73,10.99,0.23,-0.06,0.58
871,0.27,-0.73,10.99,0.24,-0.02,0.60
876,0.27,-0.73,10.99,0.27,-0.00,0.60
881,0.27,-0.73,10.99,0.28,-0.01,0.61
886,0.27,-0.73,10.99,0.30,-0.01,0.63
891,0.27,-0.73,10.99,0.29,-0.02,0.66
896,0.27,-0.73,10.99,0.28,-0.07,0.66
901,0.27,-0.73,10.99,0.27,-0.12,0.67
906,0.27,-0.73,10.99,0.25,-0.12,0.69
911,0.27,-0.73,10.99,0.26,-0.08,0.73
916,-0.54,-1.00,10.00,0.26,-0.08,0.73
921,-0.54,-1.00,10.00,0.26,0.05,0.72
926,-0.54,-1.00,10.00,0.28,0.11,0.68
931,-1.04,-1.80,9.00,0.28,0.11,0.68
936,-1.04,-1.80,9.00,0.30,0.06,0.71
941,-1.04,-1.80,9.00,0.29,0.02,0.74
946,0.15,-1.00,9.96,0.29,0.02,0.74
951,0.15,-1.00,9.96,0.23,-0.09,0.72
955,0.15,-1.00,9.96,0.21,-0.08,0.71
961,0.15,-1.00,9.96,0.21,-0.03,0.68
965,-2.45,0.27,9.58,0.21,-0.03,0.68
972,-2.45,0.27,9.58,0.21,0.02,0.65
976,-2.45,0.27,9.58,0.22,0.07,0.61
981,-2.45,0.27,9.58,0.20,0.02,0.59
986,-2.45,0.27,9.58,0.20,-0.04,0.57
991,-2.45,0.27,9.58,0.20,-0.05,0.58
996,-2.45,0.27,9.58,0.17,-0.06,0.56
1001,-2.57,0.34,9.85,0.17,-0.06,0.56
1006,-2.57,0.34,9.85,0.18,0.05,0.50
1011,-2.57,0.34,9.85,0.19,0.11,0.46
1016,-2.57,0.34,9.85,0.19,0.13,0.44
1021,-2.57,0.34,9.85,0.18,0.14,0.42
1026,-2.57,0.34,9.85,0.15,0.12,0.39
1031,-2.57,0.34,9.85,0.11,0.06,0.36
1036,-2.57,0.34,9.85,0.10,0.01,0.35
1041,-2.57,0.34,9.85,0.08,-0.01,0.36
1046,-2.57,0.34,9.85,0.08,-0.02,0.39
1051,-1.38,0.80,10.50,0.08,-0.02,0.39
1056,-1.38,0.80,10.50,0.12,0.09,0.42
1061,-1.38,0.80,10.50,0.14,0.13,0.39
1066,-1.38,0.80,10.50,0.17,0.19,0.39
1071,-1.38,0.80,10.50,0.19,0.19,0.40
1076,-1.38,0.80,10.50,0.18,0.14,0.42
1081,-1.38,0.80,10.50,0.20,0.06,0.42
1086,-1.72,-0.50,7.43,0.20,0.06,0.42
1091,-1.72,-0.50,7.43,0.16,-0.11,0.39
1096,-1.72,-0.50,7.43,0.10,-0.19,0.38
1101,-1.72,-0.50,7.43,0.08,-0.21,0.39
1106,-1.72,-0.50,7.43,0.05,-0.21,0.39
1111,-1.72,-0.50,7.43,0.05,-0.16,0.41
1116,-1.72,-0.50,7.43,0.08,-0.07,0.44
1121,0.96,-1.72,11.11,0.08,-0.07,0.44
1126,0.96,-1.72,11.11,0.19,0.14,0.52
1131,0.96,-1.72,11.11,0.23,0.22,0.55
1136,0.96,-1.72,11.11,0.27,0.24,0.56
1141,0.96,-1.72,11.11,0.27,0.23,0.56
1146,0.96,-1.72,11.11,0.28,0.19,0.57
1151,0.96,-1.72,11.11,0.29,0.12,0.59
1156,0.96,-1.72,11.11,0.27,0.03,0.58
1161,0.96,-1.72,11.11,0.27,-0.04,0.57
1166,0.96,-1.72,11.11,0.24,-0.09,0.53
1171,0.96,-1.72,11.11,0.21,-0.12,0.48
1176,0.15,-0.61,7.59,0.21,-0.12,0.48
1181,0.15,-0.61,7.59,0.15,-0.18,0.41
1186,0.15,-0.61,7.59,0.14,-0.19,0.43
1191,0.15,-0.61,7.59,0.14,-0.17,0.46
1196,0.15,-0.61,7.59,0.14,-0.11,0.51
1201,0.15,-0.61,7.59,0.15,-0.04,0.53
1206,0.77,-0.54,12.41,0.15,-0.04,0.53
1211,0.77,-0.54,12.41,0.19,0.08,0.57
1216,0.77,-0.54,12.41,0.21,0.10,0.61
1221,0.77,-0.54,12.41,0.24,0.12,0.68
1227,0.61,-1.11,10.07,0.24,0.12,0.68
1231,0.61,-1.11,10.07,0.30,0.15,0.80
1236,0.84,-0.88,10.88,0.30,0.15,0.80
1241,0.84,-0.88,10.88,0.29,0.11,0.82
1246,0.84,-0.88,10.88,0.29,0.08,0.84
1251,0.84,-0.88,10.88,0.27,0.06,0.85
1256,0.84,-0.88,10.88,0.25,0.04,0.85
1261,0.84,-0.88,10.88,0.25,0.04,0.87
1266,0.84,-0.88,10.88,0.24,0.05,0.89
1271,0.84,-0.88,10.88,0.23,0.07,0.86
1275,0.84,-0.88,10.88,0.24,0.05,0.82
1280,-1.30,0.77,7.82,0.24,0.05,0.82
1286,-1.30,0.77,7.82,0.24,0.04,0.79
1291,-1.30,0.77,7.82,0.17,-0.00,0.78
1296,-1.30,0.77,7.82,0.14,-0.01,0.77
1300,0.00,-0.04,9.23,0.14,-0.01,0.77
1306,0.00,-0.04,9.23,0.11,-0.01,0.77
1311,-0.88,1.07,8.58,0.11,-0.01,0.77
1316,-0.88,1.07,8.58,0.12,0.02,0.76
1321,-0.88,1.07,8.58,0.11,0.06,0.72
1326,-0.88,1.07,8.58,0.12,0.07,0.68
1331,-0.88,1.07,8.58,0.14,0.08,0.66
1336,-0.88,1.07,8.58,0.13,0.09,0.66
1341,-0.88,1.07,8.58,0.14,0.10,0.67
1346,-1.38,-0.80,9.04,0.14,0.10,0.67
1351,-1.38,-0.80,9.04,0.16,0.08,0.62
1356,-1.38,-0.80,9.04,0.15,0.09,0.58
1361,-1.38,-0.80,9.04,0.13,0.11,0.52
1366,-1.38,-0.80,9.04,0.12,0.11,0.45
1371,-1.38,-0.80,9.04,0.12,0.06,0.40
1376,-1.38,-0.80,9.04,0.12,0.03,0.39
1381,0.57,-0.15,11.11,0.12,0.03,0.39
1386,0.57,-0.15,11.11,0.05,0.01,0.40
1391,0.57,-0.15,11.11,0.04,0.02,0.37
1396,0.57,-0.15,11.11,0.02,0.09,0.33
1401,0.57,-0.15,11.11,0.05,0.14,0.31
1406,0.57,-0.15,11.11,0.08,0.18,0.32
1411,0.57,-0.15,11.11,0.12,0.22,0.33
1416,0.57,-0.15,11.11,0.14,0.24,0.35
1421,0.57,-0.15,11.11,0.18,0.20,0.36
1426,0.57,-0.15,11.11,0.17,0.16,0.35
1431,0.57,-0.15,11.11,0.13,0.14,0.34
1436,0.57,-0.15,11.11,0.11,0.12,0.33
1441,0.57,-0.15,11.11,0.10,0.12,0.32
1446,0.57,-0.15,11.11,0.08,0.14,0.29
1451,0.57,-0.15,11.11,0.07,0.12,0.25
1456,0.57,-0.15,11.11,0.06,0.09,0.21
1461,0.57,-0.15,11.11,0.04,0.07,0.18
1466,0.57,-0.15,11.11,0.03,0.04,0.17
1471,0.57,-0.15,11.11,0.04,-0.00,0.17
1476,-0.38,1.07,10.65,0.04,-0.00,0.17
1481,-0.38,1.07,10.65,0.04,-0.00,0.22
1486,-0.38,1.07,10.65,0.04,-0.00,0.24
1491,-0.38,1.07,10.65,0.06,0.03,0.27
1496,-0.38,1.07,10.65,0.08,0.08,0.32
1501,-0.38,1.07,10.65,0.10,0.13,0.38
1505,-1.27,0.69,10.30,0.10,0.13,0.38
1511,-1.27,0.69,10.30,0.16,0.24,0.46
1516,-1.27,0.69,10.30,0.17,0.24,0.48
1521,-1.27,0.69,10.30,0.18,0.23,0.51
1526,-1.27,0.69,10.30,0.18,0.21,0.53
1531,-1.27,0.69,10.30,0.16,0.16,0.54
1536,-1.27,0.69,10.30,0.14,0.07,0.56
1541,-1.27,0.69,10.30,0.12,0.01,0.60
1546,0.57,1.49,10.07,0.12,0.01,0.60
1550,-0.23,0.30,10.00,0.12,0.01,0.60
1556,-0.23,0.30,10.00,0.09,0.02,0.64
1561,-0.23,0.30,10.00,0.10,0.05,0.63
1566,-1.42,-0.11,8.78,0.10,0.05,0.63
1571,-1.42,-0.11,8.78,0.13,0.11,0.65
1576,-1.42,-0.11,8.78,0.14,0.09,0.67
1581,-1.42,-0.11,8.78,0.14,0.07,0.69
1586,-1.42,-0.11,8.78,0.17,0.07,0.72
1591,-1.42,-0.11,8.78,0.18,0.04,0.74
1596,-3.75,-0.46,6.55,0.18,0.04,0.74
1601,-3.91,0.69,6.16,0.18,0.04,0.74
1606,-3.91,0.69,6.16,0.21,0.09,0.64
1611,-0.27,-1.88,9.77,0.21,0.09,0.64
1615,-0.27,-1.88,9.77,0.10,0.01,0.57
1620,-0.65,-1.53,10.65,0.10,0.01,0.57
1625,1.91,-2.72,12.56,0.10,0.01,0.57
1631,1.91,-2.72,12.56,0.08,-0.05,0.64
1636,1.91,-2.72,12.56,0.07,-0.02,0.66
1641,1.68,-1.49,12.53,0.07,-0.02,0.66
1645,2.30,-1.80,12.64,0.07,-0.02,0.66
1651,2.30,-1.80,12.64,0.14,0.19,0.76
1656,2.30,-1.80,12.64,0.19,0.24,0.78
1661,2.30,-1.80,12.64,0.23,0.28,0.84
1666,1.11,-2.26,9.23,0.23,0.28,0.84
1670,0.27,-2.64,9.46,0.23,0.28,0.84
1676,0.27,-2.64,9.46,0.35,0.25,1.11
1681,0.27,-2.64,9.46,0.34,0.21,1.12
1686,2.07,-0.08,10.80,0.34,0.21,1.12
1691,0.04,-0.38,10.15,0.34,0.21,1.12
1696,0.04,-0.38,10.15,0.23,0.06,1.08
1701,0.04,-0.38,10.15,0.22,0.03,1.09
1706,0.04,-0.38,10.15,0.22,-0.00,1.09
1711,0.04,-0.38,10.15,0.20,-0.02,1.07
1716,-1.07,0.30,10.45,0.20,-0.02,1.07
1720,-0.88,0.30,10.69,0.20,-0.02,1.07
1726,-0.88,0.30,10.69,0.16,0.07,1.00
1731,-0.88,0.30,10.69,0.14,0.11,0.99
1736,-1.88,-0.96,10.23,0.14,0.11,0.99
1741,-2.57,-0.23,9.31,0.14,0.11,0.99
1746,-2.57,-0.23,9.31,0.11,0.15,0.94
1751,-2.57,-0.23,9.31,0.10,0.12,0.89
1756,-2.57,-0.23,9.31,0.10,0.05,0.89
1761,-2.57,-0.23,9.31,0.09,0.00,0.92
1766,1.88,-0.42,11.54,0.09,0.00,0.92
1770,0.96,0.27,11.07,0.09,0.00,0.92
1776,0.96,0.27,11.07,0.09,0.07,0.97
1781,0.96,0.27,11.07,0.09,0.14,0.98
1786,-1.07,0.46,10.96,0.09,0.14,0.98
1790,-0.30,-0.57,10.61,0.09,0.14,0.98
1796,-0.30,-0.57,10.61,0.15,0.38,0.98
1801,-0.30,-0.57,10.61,0.15,0.39,0.98
1806,-0.19,0.92,9.46,0.15,0.39,0.98
1810,1.49,0.57,9.69,0.15,0.39,0.98
1816,1.49,0.57,9.69,0.07,0.31,0.96
1821,1.49,0.57,9.69,0.04,0.29,0.92
1826,-0.30,1.49,9.61,0.04,0.29,0.92
1831,-3.37,1.23,9.77,0.04,0.29,0.92
1835,-2.91,0.96,10.27,0.04,0.29,0.92
1840,-2.91,0.96,10.27,-0.05,0.21,0.79
1845,-2.91,0.96,10.27,-0.05,0.18,0.75
1851,-1.57,0.04,11.07,-0.05,0.18,0.75
1856,0.73,-0.11,10.45,-0.05,0.18,0.75
1861,-0.08,0.27,10.00,-0.05,0.18,0.75
1866,-0.08,0.27,10.00,-0.08,0.19,0.74
1871,-1.30,0.84,9.23,-0.08,0.19,0.74
1875,-2.26,-0.38,10.57,-0.08,0.19,0.74
1881,-2.26,-0.38,10.57,-0.05,0.32,0.64
1886,-2.26,-0.38,10.57,-0.06,0.34,0.64
1891,0.00,-0.57,10.31,-0.06,0.34,0.64
1896,-0.73,-1.27,11.15,-0.06,0.34,0.64
1901,-0.73,-1.27,11.15,-0.08,0.22,0.67
1906,1.53,-0.30,10.00,-0.08,0.22,0.67
1910,-0.08,-0.15,10.61,-0.08,0.22,0.67
1916,-0.08,-0.15,10.61,-0.08,0.25,0.65
1921,-0.08,-0.15,10.61,-0.07,0.31,0.65
1926,-4.86,0.92,7.77,-0.07,0.31,0.65
1931,-5.71,1.04,5.90,-0.07,0.31,0.65
1936,-3.56,-0.92,6.97,-0.07,0.31,0.65
1941,-4.67,-1.19,7.09,-0.07,0.31,0.65
1945,-3.41,-0.73,7.24,-0.07,0.31,0.65
1951,-3.41,-0.73,7.24,-0.09,0.17,0.42
1956,-3.41,-0.73,7.24,-0.12,0.05,0.40
1961,0.84,1.46,11.95,-0.12,0.05,0.40
1966,1.49,0.11,11.64,-0.12,0.05,0.40
1971,1.49,0.11,11.64,-0.24,-0.05,0.43
1976,1.49,0.11,11.64,-0.21,0.03,0.41
1980,1.49,0.11,11.64,-0.17,0.14,0.42
1986,1.49,0.11,11.64,-0.10,0.27,0.45
1991,-2.07,-1.04,9.46,-0.10,0.27,0.45
1995,-3.71,-1.11,7.23,-0.10,0.27,0.45
2001,-3.71,-1.11,7.23,0.06,0.48,0.56
2006,-3.71,-1.11,7.23,0.08,0.46,0.57
2011,-2.34,0.23,4.98,0.08,0.46,0.57
2015,-1.80,0.69,5.71,0.08,0.46,0.57
2021,-1.80,0.69,5.71,-0.03,0.06,0.45
2026,-1.80,0.69,5.71,-0.12,-0.06,0.41
2031,3.87,0.04,12.30,-0.12,-0.06,0.41
2036,4.41,0.11,14.17,-0.12,-0.06,0.41
2040,4.79,-1.42,15.78,-0.12,-0.06,0.41
2046,4.79,-1.42,15.78,-0.24,-0.09,0.51
2050,4.79,-1.42,15.78,-0.15,0.06,0.59
2056,4.79,-1.42,15.78,-0.10,0.26,0.65
2061,-0.84,-1.53,11.88,-0.10,0.26,0.65
2065,0.92,-2.03,10.27,-0.10,0.26,0.65
2071,0.92,-2.03,10.27,0.11,0.55,0.71
2076,0.38,-3.03,9.88,0.11,0.55,0.71
2081,2.61,-2.14,9.84,0.11,0.55,0.71
2085,2.72,-1.42,9.58,0.11,0.55,0.71
2091,2.72,-1.42,9.58,0.03,0.14,0.89
2096,2.72,-1.42,9.58,-0.02,0.10,0.86
2101,2.72,-1.42,9.58,-0.05,0.09,0.85
2106,0.69,0.38,10.23,-0.05,0.09,0.85
2111,-1.15,-0.08,9.46,-0.05,0.09,0.85
2115,-1.15,-0.08,9.46,-0.03,0.20,0.80
2120,-0.15,0.54,10.39,-0.03,0.20,0.80
2126,-0.15,0.54,10.39,-0.05,0.20,0.79
2131,-0.15,0.54,10.39,-0.06,0.20,0.81
2136,-0.15,0.54,10.39,-0.07,0.19,0.83
2141,1.23,1.19,10.49,-0.07,0.19,0.83
2146,0.38,2.11,9.16,-0.07,0.19,0.83
2151,-1.42,1.30,8.43,-0.07,0.19,0.83
2156,-0.92,0.77,8.73,-0.07,0.19,0.83
2161,-0.92,0.77,8.73,-0.12,0.29,0.71
2166,-0.34,-0.04,9.23,-0.12,0.29,0.71
2171,0.30,-1.34,11.04,-0.12,0.29,0.71
2176,2.07,-1.27,12.41,-0.12,0.29,0.71
2180,0.80,-0.38,11.98,-0.12,0.29,0.71
2185,-0.84,1.65,11.00,-0.12,0.29,0.71
2191,0.30,1.46,11.46,-0.12,0.29,0.71
2196,-0.69,1.30,10.99,-0.12,0.29,0.71
2200,-0.80,-0.27,10.38,-0.12,0.29,0.71
2205,0.65,-1.57,9.96,-0.12,0.29,0.71
2210,0.15,-1.11,10.77,-0.12,0.29,0.71
2216,0.15,-1.11,10.77,-0.14,0.36,0.57
2221,8.73,-2.53,18.85,-0.14,0.36,0.57
2226,8.43,-1.84,18.43,-0.14,0.36,0.57
2231,8.43,-1.84,18.43,-0.22,0.30,0.73
2236,2.07,1.68,15.21,-0.22,0.30,0.73
2241,-2.64,2.53,10.45,-0.22,0.30,0.73
2246,-8.35,3.87,6.32,-0.22,0.30,0.73
2251,-13.83,4.52,1.72,-0.22,0.30,0.73
2256,-12.41,2.22,1.88,-0.22,0.30,0.73
2260,-9.96,1.11,0.27,-0.22,0.30,0.73
2266,-9.96,1.11,0.27,-0.05,0.86,0.25
2271,-0.77,1.91,3.61,-0.05,0.86,0.25
2276,-0.50,2.45,3.79,-0.05,0.86,0.25
2281,-0.15,3.03,5.02,-0.05,0.86,0.25
2286,-2.61,5.98,7.66,-0.05,0.86,0.25
2291,-2.61,5.98,7.66,-0.71,-0.36,-0.26
2296,-1.07,2.49,12.38,-0.71,-0.36,-0.26
2301,-0.27,0.46,13.41,-0.71,-0.36,-0.26
2306,-0.15,-1.15,14.94,-0.71,-0.36,-0.26
2311,1.15,-1.99,13.64,-0.71,-0.36,-0.26
2316,3.83,-2.07,14.09,-0.71,-0.36,-0.26
2321,1.65,1.19,11.57,-0.71,-0.36,-0.26
2326,1.65,1.19,11.57,-0.12,0.44,0.29
2331,1.65,1.19,11.57,-0.13,0.53,0.30
2336,-3.29,7.01,5.82,-0.13,0.53,0.30
2341,-4.06,6.55,6.13,-0.13,0.53,0.30
2346,-4.71,5.18,4.71,-0.13,0.53,0.30
2351,-4.71,5.18,4.71,-0.33,0.67,-0.01
2356,-3.56,-0.11,5.64,-0.33,0.67,-0.01
2360,-3.56,-0.11,5.64,-0.38,0.17,-0.12
2366,0.65,0.57,9.12,-0.38,0.17,-0.12
2371,-0.27,1.07,11.26,-0.38,0.17,-0.12
2376,-0.30,2.72,11.53,-0.38,0.17,-0.12
2382,1.95,3.48,12.26,-0.38,0.17,-0.12
2386,0.11,2.41,11.22,-0.38,0.17,-0.12
2391,-1.07,1.42,10.88,-0.38,0.17,-0.12
2395,0.34,0.69,10.57,-0.38,0.17,-0.12
2401,0.23,1.23,10.84,-0.38,0.17,-0.12
2406,-3.83,-0.54,9.04,-0.38,0.17,-0.12
2410,-3.83,-0.54,9.04,-0.22,0.30,-0.05
2416,-2.84,0.80,7.66,-0.22,0.30,-0.05
2421,-2.84,0.80,7.66,-0.23,0.29,-0.08
2426,-8.24,2.45,7.78,-0.23,0.29,-0.08
2431,-8.24,2.45,7.78,-0.35,0.10,-0.31
2436,1.23,-1.23,8.74,-0.35,0.10,-0.31
2441,3.07,-0.50,9.39,-0.35,0.10,-0.31
2445,8.04,-1.65,9.27,-0.35,0.10,-0.31
2451,10.11,-0.50,10.00,-0.35,0.10,-0.31
2456,10.23,0.19,10.00,-0.35,0.10,-0.31
2461,4.45,1.91,10.95,-0.35,0.10,-0.31
2466,4.45,1.91,10.95,-0.15,-0.11,0.15
2470,0.27,-0.23,10.88,-0.15,-0.11,0.15
2476,0.27,-0.23,10.88,-0.17,0.30,0.23
2481,-0.46,-1.76,9.65,-0.17,0.30,0.23
2486,0.77,-1.91,9.35,-0.17,0.30,0.23
2491,-0.80,-2.95,8.32,-0.17,0.30,0.23
2495,0.34,-0.80,8.27,-0.17,0.30,0.23
2501,-0.69,0.30,7.05,-0.17,0.30,0.23
2506,0.34,0.00,5.94,-0.17,0.30,0.23
2511,0.69,-0.84,6.97,-0.17,0.30,0.23
2516,0.69,-0.84,6.97,-0.15,-0.12,0.36
2521,-0.57,-2.45,10.00,-0.15,-0.12,0.36
2526,-1.65,-3.03,10.11,-0.15,-0.12,0.36
2531,-2.49,-3.64,11.11,-0.15,-0.12,0.36
2536,-1.91,-1.57,11.88,-0.15,-0.12,0.36
2541,-1.00,-1.84,11.57,-0.15,-0.12,0.36
2547,-0.54,-1.57,10.88,-0.15,-0.12,0.36
2551,-0.54,-1.57,10.88,0.03,0.16,0.66
2556,-0.73,-2.11,8.16,0.03,0.16,0.66
2561,-1.00,-1.95,6.78,0.03,0.16,0.66
2566,-0.80,-1.76,7.43,0.03,0.16,0.66
2571,-1.11,-0.88,6.51,0.03,0.16,0.66
2576,-1.23,-1.23,7.86,0.03,0.16,0.66
2581,-0.30,-1.68,9.85,0.03,0.16,0.66
2586,-0.30,-1.68,9.85,-0.03,-0.03,0.78
2591,-0.30,-1.68,9.85,-0.04,0.00,0.78
2596,-0.23,-2.76,12.49,-0.04,0.00,0.78
2601,-0.77,-1.49,11.95,-0.04,0.00,0.78
2606,-0.88,-2.18,11.96,-0.04,0.00,0.78
2611,-1.68,-1.38,9.61,-0.04,0.00,0.78
2616,-0.84,-0.19,9.61,-0.04,0.00,0.78
2621,-0.57,-0.30,9.30,-0.04,0.00,0.78
2626,0.92,-1.57,10.07,-0.04,0.00,0.78
2631,1.04,-1.46,9.23,-0.04,0.00,0.78
2636,1.04,-1.46,9.23,0.02,0.06,0.91
2641,1.34,-0.84,10.95,0.02,0.06,0.91
2646,-1.11,-1.11,10.35,0.02,0.06,0.91
2651,-1.76,0.54,11.03,0.02,0.06,0.91
2657,-1.30,0.34,9.81,0.02,0.06,0.91
2660,-1.42,-0.42,9.73,0.02,0.06,0.91
2666,-1.42,0.11,8.89,0.02,0.06,0.91
2671,-1.27,-0.27,9.23,0.02,0.06,0.91
2676,0.42,-0.23,10.41,0.02,0.06,0.91
2681,2.53,-0.15,10.54,0.02,0.06,0.91
2685,3.37,0.54,10.04,0.02,0.06,0.91
2692,1.42,1.34,10.65,0.02,0.06,0.91
2696,-1.61,2.72,9.27,0.02,0.06,0.91
2700,-1.15,2.61,8.88,0.02,0.06,0.91
2706,-0.92,2.34,8.27,0.02,0.06,0.91
2712,-2.03,1.53,8.92,0.02,0.06,0.91
2717,-0.73,1.07,9.38,0.02,0.06,0.91
2721,-0.73,1.07,9.38,-0.23,0.16,0.23
2726,-0.73,1.07,9.38,-0.25,0.10,0.22
2731,0.08,1.80,10.61,-0.25,0.10,0.22
2737,-0.54,2.22,9.20,-0.25,0.10,0.22
2741,-0.54,2.22,9.20,-0.30,0.12,0.10
2746,-2.07,1.72,9.50,-0.30,0.12,0.10
2751,-2.64,0.84,8.04,-0.30,0.12,0.10
2757,-3.45,0.34,8.46,-0.30,0.12,0.10
2761,-3.45,0.34,8.46,-0.24,0.20,-0.06
2766,-3.14,0.61,5.59,-0.24,0.20,-0.06
2771,-1.38,-0.46,6.97,-0.24,0.20,-0.06
2777,-2.30,0.23,7.28,-0.24,0.20,-0.06
2781,-0.61,1.15,9.38,-0.24,0.20,-0.06
2786,1.07,1.30,11.45,-0.24,0.20,-0.06
2791,-0.04,1.91,11.96,-0.24,0.20,-0.06
2796,-0.73,1.30,12.87,-0.24,0.20,-0.06
2801,-0.80,0.08,11.76,-0.24,0.20,-0.06
2807,-2.57,0.54,10.49,-0.24,0.20,-0.06
2810,-2.57,0.54,10.49,-0.20,0.30,-0.14
2816,-1.84,-0.69,8.93,-0.20,0.30,-0.14
2821,-2.72,-0.46,7.62,-0.20,0.30,-0.14
2826,-4.18,-1.15,8.27,-0.20,0.30,-0.14
2831,-4.18,-1.15,8.27,-0.10,0.16,-0.09
2836,-2.84,0.08,8.43,-0.10,0.16,-0.09
2842,-3.41,0.30,9.23,-0.10,0.16,-0.09
2845,-3.41,0.30,9.23,-0.11,-0.01,0.00
2851,-3.41,0.30,9.23,-0.12,-0.04,0.02
2857,-2.07,0.65,9.08,-0.12,-0.04,0.02
2860,-2.07,0.65,9.08,-0.12,-0.01,0.02
2866,0.46,-0.42,7.35,-0.12,-0.01,0.02
2871,-0.30,-0.84,8.46,-0.12,-0.01,0.02
2877,0.65,-0.69,8.46,-0.12,-0.01,0.02
2880,0.65,-0.69,8.46,-0.03,-0.03,0.21
2885,-1.49,0.00,10.80,-0.03,-0.03,0.21
2892,-1.99,-0.88,10.46,-0.03,-0.03,0.21
2896,-1.99,-0.88,10.46,-0.00,0.08,0.21
2901,0.77,-1.65,9.80,-0.00,0.08,0.21
2907,1.42,-2.41,10.42,-0.00,0.08,0.21
2910,1.42,-2.41,10.42,0.00,-0.02,0.36
2916,1.42,-2.41,10.42,0.00,-0.03,0.36
2921,1.72,-2.68,8.96,0.00,-0.03,0.36
2927,0.77,-3.07,9.88,0.00,-0.03,0.36
2931,0.77,-3.07,9.88,0.07,-0.02,0.40
2936,1.46,-3.14,11.41,0.07,-0.02,0.40
2942,1.23,-2.41,10.38,0.07,-0.02,0.40
2945,1.23,-2.41,10.38,0.13,0.08,0.51
2951,1.23,-2.41,10.38,0.17,0.14,0.52
2956,-1.49,-0.27,7.35,0.17,0.14,0.52
2962,-1.88,-1.07,6.70,0.17,0.14,0.52
2966,-1.88,-1.07,6.70,0.19,0.10,0.54
2971,-1.88,-1.07,6.70,0.15,0.03,0.51
2977,0.57,-1.27,4.45,0.15,0.03,0.51
2980,0.57,-1.27,4.45,0.09,-0.26,0.43
2986,0.57,-1.27,4.45,0.06,-0.35,0.40
2991,-4.55,1.07,3.07,0.06,-0.35,0.40
2997,-0.92,1.65,1.42,0.06,-0.35,0.40
3001,-0.92,1.65,1.42,-0.02,-0.37,0.20
3006,2.38,-1.04,12.98,-0.02,-0.37,0.20
3010,8.27,-2.76,17.89,-0.02,-0.37,0.20
3017,8.54,-2.45,18.96,-0.02,-0.37,0.20
3021,8.54,-2.45,18.96,-0.10,-0.24,0.38
3026,1.91,-0.08,18.16,-0.10,-0.24,0.38
3031,2.26,0.50,15.66,-0.10,-0.24,0.38
3037,2.26,0.50,15.66,0.08,0.44,0.53
3043,-1.99,-0.34,10.57,0.08,0.44,0.53
3046,-1.99,-0.34,10.57,0.28,0.61,0.53
3051,-1.99,-0.34,10.57,0.31,0.54,0.60
3056,-1.99,-0.34,10.57,0.31,0.37,0.70
3062,-0.73,-0.30,8.54,0.31,0.37,0.70
3066,-0.73,-0.30,8.54,0.17,0.07,0.74
3071,-0.73,-0.30,8.54,0.03,-0.01,0.61
3076,-2.80,2.76,9.43,0.03,-0.01,0.61
3082,-2.72,1.00,8.58,0.03,-0.01,0.61
3086,-2.72,1.00,8.58,-0.11,-0.06,0.22
3091,-2.72,1.00,8.58,-0.11,-0.11,0.21
3097,-1.11,-0.65,4.25,-0.11,-0.11,0.21
3101,-1.11,-0.65,4.25,-0.09,-0.27,0.22
3106,-1.11,-0.65,4.25,-0.10,-0.33,0.18
3110,-1.11,-0.65,4.25,-0.10,-0.36,0.12
3117,-4.90,3.45,3.18,-0.10,-0.36,0.12
3120,-4.90,3.45,3.18,-0.08,-0.21,-0.07
3126,-2.34,0.77,6.59,-0.08,-0.21,-0.07
3131,-1.04,0.69,9.58,-0.08,-0.21,-0.07
3137,0.46,-0.34,12.49,-0.08,-0.21,-0.07
3141,0.46,-0.34,12.49,-0.24,-0.36,-0.17
3146,9.00,-2.68,21.30,-0.24,-0.36,-0.17
3151,7.62,0.46,23.41,-0.24,-0.36,-0.17
3157,7.01,1.34,23.10,-0.24,-0.36,-0.17
3161,2.84,-0.04,17.66,-0.24,-0.36,-0.17
3166,0.19,-0.23,14.60,-0.24,-0.36,-0.17
3171,0.19,-0.23,14.60,0.15,0.71,0.33
3175,0.19,-0.23,14.60,0.32,0.86,0.43
3181,-2.84,-1.23,3.75,0.32,0.86,0.43
3187,-0.77,-2.22,4.71,0.32,0.86,0.43
3191,-0.77,-2.22,4.71,0.36,0.58,0.67
3196,0.61,1.53,5.02,0.36,0.58,0.67
3202,2.18,3.14,6.32,0.36,0.58,0.67
3205,2.18,3.14,6.32,-0.08,-0.05,0.37
3211,2.18,3.14,6.32,-0.18,-0.08,0.22
3217,-8.96,2.26,5.90,-0.18,-0.08,0.22
3221,-8.96,2.26,5.90,-0.17,0.08,-0.02
3226,-8.96,2.26,5.90,-0.14,0.16,-0.14
3231,-8.96,2.26,5.90,-0.12,0.13,-0.22
3237,-1.65,-2.68,7.81,-0.12,0.13,-0.22
3241,-1.65,-2.68,7.81,-0.13,-0.29,-0.19
3246,-1.65,-2.68,7.81,-0.17,-0.49,-0.07
3251,-1.76,1.11,7.51,-0.17,-0.49,-0.07
3257,-5.02,3.41,7.05,-0.17,-0.49,-0.07
3261,-5.02,3.41,7.05,-0.03,-0.39,0.05
3266,-6.32,3.41,5.71,-0.03,-0.39,0.05
3272,-5.98,2.87,6.40,-0.03,-0.39,0.05
3276,-5.98,2.87,6.40,0.02,0.01,0.02
3281,1.84,-2.11,8.78,0.02,0.01,0.02
3287,3.26,-2.41,8.28,0.02,0.01,0.02
3291,3.26,-2.41,8.28,0.03,-0.33,0.25
3296,3.26,-2.41,8.28,0.04,-0.37,0.36
3301,-0.27,3.79,8.20,0.04,-0.37,0.36
3307,0.30,3.48,9.93,0.04,-0.37,0.36
3310,0.30,3.48,9.93,0.00,-0.04,0.29
3316,4.48,-1.72,13.02,0.00,-0.04,0.29
3322,7.66,-3.79,13.17,0.00,-0.04,0.29
3326,7.66,-3.79,13.17,0.01,0.03,0.43
3331,7.66,-3.79,13.17,0.05,0.01,0.64
3336,6.02,-0.92,16.25,0.05,0.01,0.64
3342,1.49,-0.15,17.96,0.05,0.01,0.64
3346,1.49,-0.15,17.96,0.18,0.59,0.92
3351,1.49,-0.15,17.96,0.24,0.92,0.82
3357,-14.48,1.57,13.60,0.24,0.92,0.82
3361,-14.48,1.57,13.60,0.35,1.31,0.59
3366,-14.48,1.57,13.60,0.35,1.17,0.54
3371,-14.48,1.57,13.60,0.31,0.76,0.54
3377,4.79,-6.97,2.84,0.31,0.76,0.54
3381,4.79,-6.97,2.84,0.15,-0.34,0.64
3386,4.79,-6.97,2.84,0.05,-0.69,0.65
3392,-0.50,5.21,-0.50,0.05,-0.69,0.65
3396,-0.50,5.21,-0.50,-0.10,-0.79,0.35
3401,-0.50,5.21,-0.50,-0.13,-0.67,0.14
3407,-1.95,-2.87,7.32,-0.13,-0.67,0.14
3411,-1.95,-2.87,7.32,-0.21,-0.59,-0.07
3416,-1.95,-2.87,7.32,-0.17,-0.66,-0.03
3421,8.85,-5.86,15.97,-0.17,-0.66,-0.03
3427,9.46,-4.48,14.75,-0.17,-0.66,-0.03
3431,9.46,-4.48,14.75,-0.01,-0.74,0.45
3437,9.46,-4.48,14.75,0.00,-0.55,0.52
3442,4.29,4.67,11.19,0.00,-0.55,0.52
3446,4.29,4.67,11.19,0.05,0.08,0.45
3450,4.29,4.67,11.19,0.08,0.31,0.42
3456,1.88,-3.07,12.83,0.08,0.31,0.42
3462,3.18,-3.41,12.52,0.08,0.31,0.42
3466,3.18,-3.41,12.52,0.26,0.32,0.75
3471,3.18,-3.41,12.52,0.27,0.23,0.96
3477,0.88,0.92,7.93,0.27,0.23,0.96
3481,0.88,0.92,7.93,0.19,0.17,1.06
3485,0.88,0.92,7.93,0.13,0.17,0.93
3491,0.88,0.92,7.93,0.10,0.19,0.74
3497,-4.94,1.95,5.75,0.10,0.19,0.74
3501,-4.94,1.95,5.75,0.07,0.13,0.59
3506,-4.94,1.95,5.75,-0.01,0.03,0.66
3511,-4.94,1.95,5.75,-0.05,-0.08,0.75
3517,1.57,1.38,12.60,-0.05,-0.08,0.75
3521,1.57,1.38,12.60,-0.14,-0.11,0.80
3526,1.57,1.38,12.60,-0.15,0.00,0.73
3530,-5.55,3.71,7.86,-0.15,0.00,0.73
3536,-5.55,3.71,7.86,-0.12,0.16,0.66
3542,-5.55,3.71,7.86,-0.09,0.32,0.59
3547,-10.07,1.27,7.70,-0.09,0.32,0.59
3551,-10.07,1.27,7.70,-0.05,0.46,0.46
3556,-10.07,1.27,7.70,-0.10,0.32,0.45
3562,-0.80,0.34,9.04,-0.10,0.32,0.45
3566,-0.80,0.34,9.04,-0.22,-0.19,0.45
3571,-0.80,0.34,9.04,-0.30,-0.37,0.41
3576,-0.80,0.34,9.04,-0.32,-0.46,0.32
3582,-3.22,-0.34,2.61,-0.32,-0.46,0.32
3585,-3.22,-0.34,2.61,-0.31,-0.49,0.03
3591,-3.22,-0.34,2.61,-0.33,-0.46,-0.06
3597,11.72,-4.33,18.50,-0.33,-0.46,-0.06
3601,11.72,-4.33,18.50,-0.29,-0.44,0.07
3606,11.72,-4.33,18.50,-0.12,-0.14,0.25
3611,11.72,-4.33,18.50,-0.21,0.39,0.33
3617,3.10,2.87,18.77,-0.21,0.39,0.33
3621,3.10,2.87,18.77,-0.10,0.90,0.30
3626,3.10,2.87,18.77,-0.06,1.00,0.24
3631,3.10,2.87,18.77,0.04,1.06,0.14
3637,-2.03,-3.64,6.36,0.04,1.06,0.14
3641,-2.03,-3.64,6.36,0.14,0.82,0.05
3646,-2.03,-3.64,6.36,0.14,0.55,0.13
3652,-1.95,0.77,10.30,0.14,0.55,0.13
3656,-1.95,0.77,10.30,-0.08,0.15,0.22
3661,-1.95,0.77,10.30,-0.19,0.09,0.12
3667,-5.29,6.05,8.82,-0.19,0.09,0.12
3671,-5.29,6.05,8.82,-0.28,0.07,-0.18
3676,-5.29,6.05,8.82,-0.30,0.02,-0.19
3681,1.65,-0.30,7.89,-0.30,0.02,-0.19
3687,2.22,-0.34,6.29,-0.30,0.02,-0.19
3691,2.22,-0.34,6.29,-0.26,-0.30,0.11
3696,2.22,-0.34,6.29,-0.22,-0.33,0.17
3702,-3.03,1.95,12.06,-0.22,-0.33,0.17
3706,-3.03,1.95,12.06,-0.14,-0.08,0.24
3711,-3.03,1.95,12.06,-0.11,0.09,0.25
3716,-4.71,1.88,12.34,-0.11,0.09,0.25
3722,-3.60,0.61,11.96,-0.11,0.09,0.25
3726,-3.60,0.61,11.96,-0.10,0.32,0.23
3732,-3.60,0.61,11.96,-0.12,0.22,0.27
3737,1.46,-1.80,7.51,-0.12,0.22,0.27
3741,1.46,-1.80,7.51,-0.15,0.03,0.31
3746,1.46,-1.80,7.51,-0.17,0.00,0.29
3751,1.46,-1.80,7.51,-0.13,0.07,0.28
3757,-2.22,-1.19,7.89,-0.13,0.07,0.28
3761,-2.22,-1.19,7.89,-0.11,0.18,0.34
3766,-2.22,-1.19,7.89,-0.07,0.20,0.36
3772,-2.22,-1.19,7.89,-0.07,0.17,0.39
3776,-2.22,-1.19,7.89,-0.08,0.13,0.46
3781,-2.22,-1.19,7.89,-0.10,0.08,0.54
3786,1.99,-0.73,7.01,-0.10,0.08,0.54
3792,-7.70,1.19,9.61,-0.10,0.08,0.54
3795,-7.70,1.19,9.61,0.01,0.58,0.55
3801,-19.12,3.56,4.56,0.01,0.58,0.55
3807,-12.87,-0.08,7.66,0.01,0.58,0.55
3811,-12.87,-0.08,7.66,0.00,0.73,0.28
3816,-12.87,-0.08,7.66,-0.11,0.30,0.28
3822,10.80,-5.59,13.06,-0.11,0.30,0.28
3826,10.80,-5.59,13.06,-0.24,-0.66,0.46
3831,10.80,-5.59,13.06,-0.26,-0.86,0.51
3836,10.80,-5.59,13.06,-0.23,-0.84,0.49
3842,-3.45,2.18,7.35,-0.23,-0.84,0.49
3846,-3.45,2.18,7.35,-0.12,-0.21,0.26
3851,-3.45,2.18,7.35,-0.06,0.23,0.24
3857,0.46,-1.99,18.46,-0.06,0.23,0.24
3861,0.46,-1.99,18.46,0.02,0.58,0.34
3866,0.46,-1.99,18.46,0.03,0.52,0.37
3871,0.46,-1.99,18.46,-0.06,0.39,0.36
3877,6.66,-1.19,11.00,-0.06,0.39,0.36
3881,6.66,-1.19,11.00,-0.13,0.14,0.18
3886,6.66,-1.19,11.00,-0.12,0.12,0.11
3892,-2.07,4.94,7.24,-0.12,0.12,0.11
3896,-2.07,4.94,7.24,-0.19,0.32,0.12
3901,-2.07,4.94,7.24,-0.23,0.38,0.12
3906,-3.45,3.07,11.11,-0.23,0.38,0.12
3912,0.69,0.77,11.19,-0.23,0.38,0.12
3916,0.69,0.77,11.19,-0.30,0.05,-0.03
3921,0.69,0.77,11.19,-0.25,-0.17,0.05
3927,4.10,1.88,5.70,-0.25,-0.17,0.05
3931,4.10,1.88,5.70,-0.25,-0.37,0.26
3936,4.10,1.88,5.70,-0.29,-0.34,0.25
3941,0.34,4.33,9.23,-0.29,-0.34,0.25
3947,0.69,3.03,11.26,-0.29,-0.34,0.25
3951,0.69,3.03,11.26,-0.38,-0.04,-0.02
3956,0.69,3.03,11.26,-0.32,0.05,-0.02
3961,-2.99,-1.11,10.61,-0.32,0.05,-0.02
3966,-2.99,-1.11,10.61,-0.22,0.16,0.06
3971,-2.99,-1.11,10.61,-0.23,0.16,0.04
3976,-3.79,1.84,2.76,-0.23,0.16,0.04
3981,-4.86,2.57,3.10,-0.23,0.16,0.04
3986,-4.86,2.57,3.10,-0.36,0.01,-0.24
3991,-4.86,2.57,3.10,-0.39,-0.04,-0.30
3997,-1.11,-0.80,9.61,-0.39,-0.04,-0.30
4001,-1.11,-0.80,9.61,-0.38,-0.13,-0.31
4006,-1.11,-0.80,9.61,-0.37,-0.19,-0.27
4011,-1.11,-0.80,9.61,-0.33,-0.19,-0.22
4017,-0.96,-0.42,11.11,-0.33,-0.19,-0.22
4021,-0.96,-0.42,11.11,-0.27,0.05,-0.24
4026,-0.96,-0.42,11.11,-0.24,0.21,-0.27
4032,-3.75,-0.38,11.42,-0.24,0.21,-0.27
4036,-3.75,-0.38,11.42,-0.17,0.39,-0.19
4041,-3.75,-0.38,11.42,-0.16,0.38,-0.12
4046,-0.88,0.08,9.65,-0.16,0.38,-0.12
4052,-0.88,0.23,8.27,-0.16,0.38,-0.12
4056,-0.88,0.23,8.27,-0.14,0.15,-0.04
4061,4.25,0.38,6.40,-0.14,0.15,-0.04
4067,3.37,1.30,6.40,-0.14,0.15,-0.04
4071,3.37,1.30,6.40,-0.15,-0.10,0.13
4076,3.37,1.30,6.40,-0.15,-0.02,0.16
4082,-5.86,2.95,8.08,-0.15,-0.02,0.16
4085,-5.86,2.95,8.08,-0.15,0.26,0.15
4091,-5.86,2.95,8.08,-0.14,0.31,0.16
4096,-5.86,2.95,8.08,-0.14,0.25,0.19
4102,0.27,-0.27,9.12,-0.14,0.25,0.19
4106,0.27,-0.27,9.12,-0.19,-0.11,0.27
4111,0.27,-0.27,9.12,-0.22,-0.29,0.29
4117,0.88,0.88,8.42,-0.22,-0.29,0.29
4121,0.88,0.88,8.42,-0.23,-0.36,0.26
4126,0.88,0.88,8.42,-0.23,-0.31,0.26
4131,0.88,0.88,8.42,-0.19,-0.22,0.28
4137,-2.22,-2.41,15.13,-0.19,-0.22,0.28
4141,-2.22,-2.41,15.13,-0.16,0.03,0.28
4146,-2.22,-2.41,15.13,-0.17,0.04,0.28
4152,6.66,-2.87,12.91,-0.17,0.04,0.28
4156,6.66,-2.87,12.91,-0.13,-0.08,0.30
4161,6.66,-2.87,12.91,-0.09,-0.06,0.31
4166,6.66,-2.87,12.91,-0.07,0.00,0.33
4171,-4.29,-1.57,8.54,-0.07,0.00,0.33
4176,-4.29,-1.57,8.54,-0.04,0.30,0.34
4181,-4.29,-1.57,8.54,-0.06,0.36,0.31
4187,-1.80,-1.27,9.42,-0.06,0.36,0.31
4191,-1.80,-1.27,9.42,-0.14,0.14,0.21
4196,-1.80,-1.27,9.42,-0.15,-0.01,0.13
4201,-1.80,-1.27,9.42,-0.18,-0.12,0.11
4206,-1.80,-1.27,9.42,-0.18,-0.17,0.10
4211,-1.80,-1.27,9.42,-0.18,-0.17,0.13
4216,-1.80,-1.27,9.42,-0.17,-0.13,0.14
4221,0.92,-0.34,10.39,-0.17,-0.13,0.14
4226,0.92,-0.34,10.39,-0.16,-0.01,0.12
4230,0.92,-0.34,10.39,-0.17,0.05,0.10
4236,0.92,-0.34,10.39,-0.17,0.11,0.08
4242,-3.95,1.34,9.04,-0.17,0.11,0.08
4246,-3.95,1.34,9.04,-0.19,0.15,0.03
4251,-3.95,1.34,9.04,-0.18,0.07,0.02
4256,1.42,1.00,7.93,-0.18,0.07,0.02
4261,1.42,1.00,7.93,-0.19,-0.06,0.04
4266,1.42,1.00,7.93,-0.21,-0.05,0.02
4272,1.42,1.00,7.93,-0.21,0.01,-0.01
4276,1.42,1.00,7.93,-0.23,0.10,-0.06
4281,1.42,1.00,7.93,-0.23,0.16,-0.09
4286,1.42,1.00,7.93,-0.22,0.18,-0.10
4292,1.11,0.80,9.92,-0.22,0.18,-0.10
4296,1.11,0.80,9.92,-0.19,0.12,-0.04
4301,1.11,0.80,9.92,-0.20,0.09,-0.02
4307,1.11,0.80,9.92,-0.20,0.05,-0.01
4311,1.11,0.80,9.92,-0.21,0.07,-0.02
4316,1.11,0.80,9.92,-0.22,0.14,-0.05
4321,1.11,0.80,9.92,-0.21,0.22,-0.05
4327,-1.76,1.61,11.96,-0.21,0.22,-0.05
4331,-1.76,1.61,11.96,-0.21,0.29,-0.03
4336,-1.76,1.61,11.96,-0.23,0.25,-0.05
4341,-1.76,1.61,11.96,-0.23,0.21,-0.07
4346,-1.76,1.61,11.96,-0.22,0.17,-0.09
4351,-1.76,1.61,11.96,-0.24,0.16,-0.09
4356,-1.76,1.61,11.96,-0.24,0.13,-0.07
4362,-0.15,-0.80,8.12,-0.24,0.13,-0.07
4366,-0.15,-0.80,8.12,-0.24,0.01,-0.08
4371,-0.15,-0.80,8.12,-0.23,-0.00,-0.10
4377,-0.15,-0.80,8.12,-0.21,0.01,-0.09
4381,-0.15,-0.80,8.12,-0.19,0.06,-0.09
4386,-0.15,-0.80,8.12,-0.18,0.10,-0.09
4391,-0.15,-0.80,8.12,-0.16,0.10,-0.08
4396,-0.15,-0.80,8.12,-0.15,0.08,-0.06
4401,-0.15,-0.80,8.12,-0.13,0.07,-0.03
4406,-0.15,-0.80,8.12,-0.10,0.11,-0.03
4412,0.19,-1.11,8.96,-0.10,0.11,-0.03
4416,0.19,-1.11,8.96,-0.11,0.17,-0.03
4421,0.19,-1.11,8.96,-0.11,0.14,-0.00
4427,0.19,-1.11,8.96,-0.09,0.10,0.02
4431,0.19,-1.11,8.96,-0.09,0.05,0.04
4436,0.19,-1.11,8.96,-0.10,0.03,0.03
4441,0.19,-1.11,8.96,-0.10,0.03,0.02
4447,-0.50,-1.00,7.77,-0.10,0.03,0.02
4451,-0.50,-1.00,7.77,-0.05,0.05,0.06
4456,-0.50,-1.00,7.77,-0.04,0.07,0.09
4461,-0.50,-1.00,7.77,-0.02,0.09,0.10
4466,-0.50,-1.00,7.77,-0.05,0.09,0.10
4471,-0.50,-1.00,7.77,-0.05,0.05,0.08
4476,-0.50,-1.00,7.77,-0.07,-0.03,0.06
4482,1.65,-1.19,11.04,-0.07,-0.03,0.06
4486,1.65,-1.19,11.04,-0.05,-0.12,0.09
4491,1.65,-1.19,11.04,-0.05,-0.05,0.09
4496,1.65,-1.19,11.04,-0.06,0.03,0.08
4501,1.65,-1.19,11.04,-0.06,0.10,0.05
4506,1.65,-1.19,11.04,-0.07,0.14,-0.00
4511,1.65,-1.19,11.04,-0.06,0.14,-0.02
4517,-1.76,-2.11,11.07,-0.06,0.14,-0.02
4521,-1.76,-2.11,11.07,-0.05,0.07,-0.00
4526,-1.76,-2.11,11.07,-0.04,0.00,-0.00
4531,-1.76,-2.11,11.07,-0.05,-0.04,-0.01
4536,-1.76,-2.11,11.07,-0.03,-0.01,-0.01
4541,-1.76,-2.11,11.07,-0.02,0.05,-0.02
4546,-1.76,-2.11,11.07,0.01,0.12,-0.01
4552,-3.41,0.30,8.62,0.01,0.12,-0.01
4556,-3.41,0.30,8.62,0.03,0.14,0.01
4561,-3.41,0.30,8.62,0.03,0.10,0.03
4566,-3.41,0.30,8.62,0.02,0.03,0.04
4571,-3.41,0.30,8.62,-0.01,-0.02,0.01
4576,-3.41,0.30,8.62,-0.01,-0.09,-0.01
4581,-3.41,0.30,8.62,-0.02,-0.17,-0.02
4586,1.53,-0.73,8.27,-0.02,-0.17,-0.02
4591,1.53,-0.73,8.27,-0.03,-0.25,0.01
4596,1.53,-0.73,8.27,-0.03,-0.23,0.02
4601,1.53,-0.73,8.27,-0.03,-0.18,0.04
4606,1.53,-0.73,8.27,-0.02,-0.15,0.04
4611,1.53,-0.73,8.27,0.01,-0.08,0.05
4616,1.53,-0.73,8.27,0.02,0.05,0.04
4621,1.53,-0.73,8.27,0.04,0.19,0.04
4626,1.53,-0.73,8.27,0.06,0.32,0.06
4631,1.53,-0.73,8.27,0.08,0.35,0.08
4636,1.53,-0.73,8.27,0.08,0.28,0.11
4641,1.53,-0.73,8.27,0.06,0.15,0.13
4646,1.53,-0.73,8.27,0.06,-0.00,0.15
4651,1.53,-0.73,8.27,0.05,-0.11,0.17
4656,1.53,-0.73,8.27,0.02,-0.14,0.17
4661,1.53,-0.73,8.27,0.00,-0.13,0.16
4666,1.53,-0.73,8.27,0.01,-0.10,0.16
4672,-3.10,-1.00,9.16,0.01,-0.10,0.16
4676,-3.10,-1.00,9.16,0.05,0.02,0.20
4681,-3.10,-1.00,9.16,0.04,0.03,0.23
4685,-3.10,-1.00,9.16,0.04,-0.05,0.24
4691,1.95,-1.72,9.46,0.04,-0.05,0.24
4696,1.95,-1.72,9.46,0.02,-0.19,0.25
4701,1.95,-1.72,9.46,0.04,-0.17,0.25
4706,-0.88,-0.77,7.85,0.04,-0.17,0.25
4711,-0.88,-0.77,7.85,0.05,-0.03,0.30
4716,-0.88,-0.77,7.85,0.06,0.00,0.32
4721,-0.88,-0.77,7.85,0.05,0.01,0.32
4726,-0.88,-0.77,7.85,0.04,0.00,0.31
4731,-0.88,-0.77,7.85,0.03,-0.02,0.31
4736,-0.88,-0.77,7.85,0.02,-0.03,0.31
4742,1.04,-1.95,8.96,0.02,-0.03,0.31
4746,1.04,-1.95,8.96,0.04,-0.08,0.38
4751,1.04,-1.95,8.96,0.05,-0.10,0.41
4756,1.04,-1.95,8.96,0.06,-0.09,0.44
4761,1.04,-1.95,8.96,0.06,-0.08,0.45
4766,1.04,-1.95,8.96,0.04,-0.09,0.44
4771,1.04,-1.95,8.96,0.03,-0.12,0.44
4777,2.18,-0.77,11.80,0.03,-0.12,0.44
4781,2.18,-0.77,11.80,0.01,-0.12,0.45
4786,2.18,-0.77,11.80,0.01,-0.07,0.45
4791,2.18,-0.77,11.80,-0.01,0.02,0.42
4796,2.18,-0.77,11.80,0.01,0.06,0.40
4801,2.18,-0.77,11.80,-0.00,0.04,0.39
4806,2.18,-0.77,11.80,-0.02,-0.01,0.37
4812,0.34,0.00,10.69,-0.02,-0.01,0.37
4816,0.34,0.00,10.69,-0.06,-0.08,0.33
4821,0.34,0.00,10.69,-0.09,-0.09,0.30
4826,0.34,0.00,10.69,-0.10,-0.08,0.27
4831,0.34,0.00,10.69,-0.10,-0.04,0.24
4836,0.34,0.00,10.69,-0.09,0.01,0.21
4841,0.34,0.00,10.69,-0.08,0.07,0.21
4847,-2.57,1.46,7.89,-0.08,0.07,0.21
4851,-2.57,1.46,7.89,-0.09,0.09,0.18
4856,-2.57,1.46,7.89,-0.13,0.04,0.13
4862,-2.57,1.46,7.89,-0.17,-0.01,0.05
4866,-2.57,1.46,7.89,-0.20,-0.04,-0.01
4871,-2.57,1.46,7.89,-0.20,-0.04,-0.04
4876,-2.57,1.46,7.89,-0.19,0.00,-0.04
4882,-2.49,1.19,10.42,-0.19,0.00,-0.04
4886,-2.49,1.19,10.42,-0.23,0.05,-0.07
4891,-2.49,1.19,10.42,-0.25,0.04,-0.13
4897,-2.49,1.19,10.42,-0.27,0.02,-0.18
4901,-2.49,1.19,10.42,-0.29,0.03,-0.22
4906,-2.49,1.19,10.42,-0.27,0.04,-0.22
4911,-2.49,1.19,10.42,-0.25,0.08,-0.19
4916,-2.49,1.19,10.42,-0.24,0.13,-0.15
4921,-2.49,1.19,10.42,-0.23,0.19,-0.15
4826,0.34,0.00,10.69,-0.10,-0.08,0.27
4831,0.34,0.00,10.69,-0.10,-0.04,0.24
4836,0.34,0.00,10.69,-0.09,0.01,0.21
4841,0.34,0.00,10.69,-0.08,0.07,0.21
4847,-2.57,1.46,7.89,-0.08,0.07,0.21
4851,-2.57,1.46,7.89,-0.09,0.09,0.18
4856,-2.57,1.46,7.89,-0.13,0.04,0.13
4862,-2.57,1.46,7.89,-0.17,-0.01,0.05
4866,-2.57,1.46,7.89,-0.20,-0.04,-0.01
4871,-2.57,1.46,7.89,-0.20,-0.04,-0.04
4876,-2.57,1.46,7.89,-0.19,0.00,-0.04
4882,-2.49,1.19,10.42,-0.19,0.00,-0.04
4886,-2.49,1.19,10.42,-0.23,0.05,-0.07
4891,-2.49,1.19,10.42,-0.25,0.04,-0.13
4897,-2.49,1.19,10.42,-0.27,0.02,-0.18
4901,-2.49,1.19,10.42,-0.29,0.03,-0.22
