timestamp,accX,accY,accZ,gyroX,gyroY,gyroZ
Right
7,-0.88,1.76,8.20,0.11,0.01,-0.27
19,0.96,0.23,10.42,0.11,0.01,-0.27
20,0.96,0.23,10.42,-0.12,-0.09,0.10
22,0.96,0.23,10.42,-0.11,-0.10,0.11
26,0.96,0.23,10.42,-0.10,-0.10,0.14
31,0.27,-1.49,10.50,-0.10,-0.10,0.14
36,-0.08,-0.92,9.96,-0.10,-0.10,0.14
43,0.42,-0.77,10.15,-0.10,-0.10,0.14
46,0.42,-0.77,10.15,-0.05,-0.03,0.14
51,-0.54,-0.15,11.19,-0.05,-0.03,0.14
57,-0.46,-0.84,10.91,-0.05,-0.03,0.14
61,-0.46,-0.84,10.91,-0.05,0.14,0.10
66,-0.46,-0.84,10.91,-0.05,0.17,0.09
72,-0.30,-0.50,8.58,-0.05,0.17,0.09
76,-0.30,-0.50,8.58,-0.06,0.11,0.11
81,-0.30,-0.50,8.58,-0.09,0.04,0.11
86,-0.30,-0.50,8.58,-0.11,-0.02,0.09
92,1.53,0.11,9.65,-0.11,-0.02,0.09
96,1.53,0.11,9.65,-0.12,-0.08,0.07
101,1.53,0.11,9.65,-0.11,-0.06,0.08
107,-1.04,-0.27,10.53,-0.11,-0.06,0.08
111,-1.04,-0.27,10.53,-0.08,0.04,0.11
116,-1.04,-0.27,10.53,-0.07,0.10,0.11
121,-1.04,-0.27,10.53,-0.07,0.13,0.11
127,-2.34,0.34,8.70,-0.07,0.13,0.11
131,-2.34,0.34,8.70,-0.09,0.11,0.12
136,-2.34,0.34,8.70,-0.11,0.06,0.12
142,-0.08,0.00,7.63,-0.11,0.06,0.12
146,-0.08,0.00,7.63,-0.14,-0.11,0.10
151,-0.08,0.00,7.63,-0.14,-0.16,0.12
156,-0.08,0.00,7.63,-0.14,-0.20,0.14
162,0.69,-0.11,11.64,-0.14,-0.20,0.14
166,0.69,-0.11,11.64,-0.13,-0.11,0.12
171,0.69,-0.11,11.64,-0.09,-0.02,0.11
177,-0.50,-1.34,10.53,-0.09,-0.02,0.11
181,-0.50,-1.34,10.53,-0.05,0.12,0.16
186,-0.50,-1.34,10.53,-0.04,0.16,0.18
192,-0.50,-1.34,10.53,-0.06,0.17,0.17
196,-0.50,-1.34,10.53,-0.09,0.13,0.18
201,-0.50,-1.34,10.53,-0.11,0.08,0.17
206,-0.50,-1.34,10.53,-0.13,0.03,0.14
211,-0.73,-1.61,8.27,-0.13,0.03,0.14
216,-0.73,-1.61,8.27,-0.12,-0.00,0.13
221,-0.73,-1.61,8.27,-0.11,0.01,0.16
227,-0.30,-0.30,8.92,-0.11,0.01,0.16
231,-0.30,-0.30,8.92,-0.10,-0.00,0.20
237,-0.30,-0.30,8.92,-0.09,-0.03,0.19
241,-0.30,-0.30,8.92,-0.09,-0.03,0.15
247,-1.72,-0.65,8.74,-0.09,-0.03,0.15
251,-1.72,-0.65,8.74,-0.08,0.05,0.12
256,-1.72,-0.65,8.74,-0.08,0.09,0.15
262,-1.72,-0.65,8.74,-0.07,0.12,0.15
266,-1.72,-0.65,8.74,-0.08,0.12,0.14
271,-1.72,-0.65,8.74,-0.11,0.08,0.11
276,-1.72,-0.65,8.74,-0.14,-0.00,0.05
282,2.14,-0.84,9.27,-0.14,-0.00,0.05
286,2.14,-0.84,9.27,-0.17,-0.11,-0.03
291,2.14,-0.84,9.27,-0.15,-0.10,-0.02
297,2.14,-0.84,9.27,-0.13,-0.05,0.00
301,2.14,-0.84,9.27,-0.13,0.04,0.00
306,2.14,-0.84,9.27,-0.13,0.12,-0.01
311,2.14,-0.84,9.27,-0.16,0.18,-0.03
317,-0.96,1.38,10.77,-0.16,0.18,-0.03
321,-0.96,1.38,10.77,-0.18,0.18,-0.10
326,-0.96,1.38,10.77,-0.17,0.16,-0.13
331,-0.96,1.38,10.77,-0.16,0.13,-0.12
336,-0.96,1.38,10.77,-0.18,0.09,-0.09
341,-0.96,1.38,10.77,-0.21,0.04,-0.05
346,-0.96,1.38,10.77,-0.24,-0.01,-0.06
352,-1.23,1.99,8.16,-0.24,-0.01,-0.06
356,-1.23,1.99,8.16,-0.28,-0.04,-0.19
361,-1.23,1.99,8.16,-0.28,-0.02,-0.21
367,-1.42,0.92,9.20,-0.28,-0.02,-0.21
371,-1.42,0.92,9.20,-0.29,0.00,-0.19
376,-1.42,0.92,9.20,-0.31,0.01,-0.22
382,-1.42,0.92,9.20,-0.30,0.02,-0.27
387,-1.42,0.92,9.20,-0.29,0.03,-0.28
391,-1.42,0.92,9.20,-0.26,0.02,-0.26
396,-1.42,0.92,9.20,-0.23,-0.03,-0.20
402,-1.42,0.92,9.20,-0.20,-0.06,-0.21
406,-1.42,0.92,9.20,-0.22,-0.00,-0.29
411,-1.42,0.92,9.20,-0.22,0.05,-0.32
417,-1.42,0.92,9.20,-0.21,0.11,-0.29
421,-1.42,0.92,9.20,-0.20,0.19,-0.28
426,-1.42,0.92,9.20,-0.22,0.19,-0.27
431,-1.42,0.92,9.20,-0.22,0.17,-0.25
437,-1.19,1.61,9.08,-0.22,0.17,-0.25
441,-1.19,1.61,9.08,-0.25,0.05,-0.26
446,-1.19,1.61,9.08,-0.25,-0.05,-0.28
451,-1.19,1.61,9.08,-0.25,-0.10,-0.30
456,-1.19,1.61,9.08,-0.24,-0.09,-0.32
461,-1.19,1.61,9.08,-0.22,-0.08,-0.29
466,-1.19,1.61,9.08,-0.17,-0.04,-0.22
471,-1.49,-1.00,8.70,-0.17,-0.04,-0.22
476,-1.49,-1.00,8.70,-0.17,0.05,-0.16
481,-1.49,-1.00,8.70,-0.18,0.06,-0.17
487,-1.49,-1.00,8.70,-0.18,0.07,-0.19
491,-1.49,-1.00,8.70,-0.18,0.07,-0.21
496,-1.49,-1.00,8.70,-0.18,0.08,-0.20
501,-1.49,-1.00,8.70,-0.15,0.06,-0.16
507,-0.34,-1.57,9.27,-0.15,0.06,-0.16
511,-0.34,-1.57,9.27,-0.10,0.01,-0.07
516,-0.34,-1.57,9.27,-0.09,0.01,-0.05
522,-0.34,-1.57,9.27,-0.09,0.01,-0.04
526,-0.34,-1.57,9.27,-0.10,0.01,-0.04
531,-0.34,-1.57,9.27,-0.10,-0.00,-0.05
536,-0.34,-1.57,9.27,-0.10,0.02,-0.08
542,-1.23,-1.46,9.73,-0.10,0.02,-0.08
546,-1.23,-1.46,9.73,-0.09,0.07,-0.03
551,-1.23,-1.46,9.73,-0.08,0.11,0.01
557,-1.23,-1.46,9.73,-0.08,0.10,0.02
561,-1.23,-1.46,9.73,-0.08,0.09,0.03
566,-1.23,-1.46,9.73,-0.10,0.05,0.03
571,-1.23,-1.46,9.73,-0.10,-0.01,0.04
577,-1.11,-1.23,8.43,-0.10,-0.01,0.04
581,-1.11,-1.23,8.43,-0.09,-0.16,0.14
586,-1.11,-1.23,8.43,-0.08,-0.22,0.17
591,-1.11,-1.23,8.43,-0.07,-0.24,0.15
596,-1.11,-1.23,8.43,-0.05,-0.21,0.12
601,-1.11,-1.23,8.43,-0.01,-0.14,0.09
606,-1.11,-1.23,8.43,0.02,-0.03,0.07
612,-1.07,-1.27,9.89,0.02,-0.03,0.07
616,-1.07,-1.27,9.89,0.00,0.24,0.06
621,-1.07,-1.27,9.89,-0.04,0.30,0.05
626,-1.07,-1.27,9.89,-0.09,0.30,0.04
631,-1.07,-1.27,9.89,-0.14,0.24,-0.01
636,-1.07,-1.27,9.89,-0.17,0.15,-0.07
641,-1.07,-1.27,9.89,-0.19,0.06,-0.13
646,-1.07,-1.27,9.89,-0.16,-0.00,-0.13
651,-1.07,-1.27,9.89,-0.13,-0.03,-0.09
656,-1.07,-1.27,9.89,-0.12,-0.02,-0.01
662,-1.61,1.53,7.55,-0.12,-0.02,-0.01
666,-1.61,1.53,7.55,-0.13,-0.03,0.08
671,-1.61,1.53,7.55,-0.14,-0.07,0.04
676,-1.61,1.53,7.55,-0.15,-0.11,0.01
682,0.23,0.61,9.34,-0.15,-0.11,0.01
686,0.23,0.61,9.34,-0.15,-0.14,0.02
691,0.23,0.61,9.34,-0.14,-0.12,0.03
696,-0.54,-0.04,11.41,-0.14,-0.12,0.03
701,-0.54,-0.04,11.41,-0.14,0.02,-0.00
706,-0.54,-0.04,11.41,-0.13,0.05,-0.03
711,-0.54,-0.04,11.41,-0.15,0.07,-0.07
716,-0.54,-0.04,11.41,-0.17,0.08,-0.13
721,-0.54,-0.04,11.41,-0.20,0.07,-0.16
726,-0.54,-0.04,11.41,-0.21,0.06,-0.16
732,-0.04,-0.65,9.16,-0.21,0.06,-0.16
736,-0.04,-0.65,9.16,-0.21,0.03,-0.18
741,-0.04,-0.65,9.16,-0.22,0.02,-0.22
746,-0.04,-0.65,9.16,-0.21,0.02,-0.28
751,-0.04,-0.65,9.16,-0.21,0.04,-0.32
756,-0.04,-0.65,9.16,-0.20,0.09,-0.35
760,-0.04,-0.65,9.16,-0.18,0.14,-0.34
765,-1.42,1.07,7.85,-0.18,0.14,-0.34
771,-1.42,1.07,7.85,-0.20,0.14,-0.25
777,-0.88,1.65,7.59,-0.20,0.14,-0.25
781,-0.88,1.65,7.59,-0.27,0.04,-0.32
786,-0.88,1.65,7.59,-0.29,-0.01,-0.40
791,-0.88,1.65,7.59,-0.28,-0.02,-0.43
796,-0.88,1.65,7.59,-0.25,-0.01,-0.37
802,-0.73,-0.19,9.27,-0.25,-0.01,-0.37
806,-0.73,-0.19,9.27,-0.22,-0.02,-0.25
811,-0.73,-0.19,9.27,-0.22,-0.01,-0.28
816,-0.73,-0.19,9.27,-0.21,-0.03,-0.29
821,-0.73,-0.19,9.27,-0.21,-0.07,-0.28
826,-0.73,-0.19,9.27,-0.19,-0.10,-0.27
831,-0.73,-0.19,9.27,-0.17,-0.09,-0.30
836,-0.73,-0.19,9.27,-0.17,-0.01,-0.32
841,-0.73,-0.19,9.27,-0.16,0.10,-0.31
846,-0.73,-0.19,9.27,-0.17,0.19,-0.27
852,-0.73,-0.19,9.27,-0.17,0.22,-0.24
856,-0.73,-0.19,9.27,-0.18,0.21,-0.26
861,-0.73,-0.19,9.27,-0.20,0.14,-0.29
866,-0.73,-0.19,9.27,-0.22,0.05,-0.29
871,-0.73,-0.19,9.27,-0.22,-0.04,-0.30
876,-0.73,-0.19,9.27,-0.23,-0.12,-0.30
881,-0.73,-0.19,9.27,-0.24,-0.14,-0.31
886,-0.73,-0.19,9.27,-0.22,-0.14,-0.31
891,-0.73,-0.19,9.27,-0.18,-0.09,-0.29
896,-0.73,-0.19,9.27,-0.16,0.00,-0.27
901,-0.73,-0.19,9.27,-0.15,0.09,-0.24
906,-0.73,-0.19,9.27,-0.14,0.15,-0.24
911,-0.73,-0.19,9.27,-0.14,0.18,-0.24
916,-0.73,-0.19,9.27,-0.14,0.17,-0.24
922,-0.73,-0.19,9.27,-0.15,0.16,-0.26
926,-0.73,-0.19,9.27,-0.17,0.14,-0.29
931,-0.73,-0.19,9.27,-0.15,0.10,-0.29
936,-0.73,-0.19,9.27,-0.12,0.04,-0.24
942,-0.57,-0.57,8.62,-0.12,0.04,-0.24
946,-0.57,-0.57,8.62,-0.10,-0.06,-0.16
951,-0.57,-0.57,8.62,-0.13,-0.05,-0.18
957,-0.15,0.77,10.04,-0.13,-0.05,-0.18
961,-0.15,0.77,10.04,-0.14,-0.02,-0.25
966,-0.15,0.77,10.04,-0.14,0.02,-0.28
971,-0.15,0.77,10.04,-0.13,0.05,-0.29
976,-0.15,0.77,10.04,-0.14,0.11,-0.29
982,-0.15,0.77,10.04,-0.13,0.17,-0.30
986,-0.15,0.77,10.04,-0.12,0.21,-0.31
992,-2.45,0.54,7.01,-0.12,0.21,-0.31
996,-2.45,0.54,7.01,-0.15,0.17,-0.28
1001,-2.45,0.54,7.01,-0.18,0.10,-0.27
1006,-2.45,0.54,7.01,-0.18,0.01,-0.27
1012,1.15,0.54,10.54,-0.18,0.01,-0.27
1016,1.15,0.54,10.54,-0.18,-0.17,-0.25
1021,1.15,0.54,10.54,-0.16,-0.21,-0.27
1027,2.38,-1.53,13.67,-0.16,-0.21,-0.27
1031,2.38,-1.53,13.67,-0.10,-0.09,-0.34
1036,2.38,-1.53,13.67,-0.07,0.05,-0.34
1042,2.38,-1.53,13.67,-0.07,0.20,-0.31
1047,-2.57,-0.04,7.77,-0.07,0.20,-0.31
1051,-2.57,-0.04,7.77,-0.11,0.32,-0.30
1056,-2.57,-0.04,7.77,-0.16,0.28,-0.33
1062,-0.27,0.92,8.35,-0.16,0.28,-0.33
1066,-0.27,0.92,8.35,-0.21,0.09,-0.43
1071,-0.27,0.92,8.35,-0.20,0.00,-0.44
1076,-0.27,0.92,8.35,-0.18,-0.05,-0.41
1082,-0.04,-1.19,10.03,-0.18,-0.05,-0.41
1086,-0.04,-1.19,10.03,-0.10,-0.08,-0.26
1091,-0.04,-1.19,10.03,-0.08,-0.06,-0.22
1097,0.80,0.00,10.54,-0.08,-0.06,-0.22
1101,0.80,0.00,10.54,-0.07,0.00,-0.27
1106,0.80,0.00,10.54,-0.09,0.04,-0.29
1112,0.80,0.00,10.54,-0.09,0.07,-0.29
1116,0.80,0.00,10.54,-0.07,0.10,-0.25
1121,0.80,0.00,10.54,-0.10,0.12,-0.22
1126,0.80,0.00,10.54,-0.11,0.12,-0.22
1132,0.15,0.15,10.77,-0.11,0.12,-0.22
1136,0.15,0.15,10.77,-0.12,0.04,-0.27
1141,0.15,0.15,10.77,-0.12,-0.03,-0.30
1147,0.15,0.15,10.77,-0.11,-0.08,-0.29
1151,0.15,0.15,10.77,-0.09,-0.10,-0.27
1156,0.15,0.15,10.77,-0.07,-0.07,-0.26
1161,0.15,0.15,10.77,-0.07,-0.00,-0.25
1167,-1.42,-1.23,10.00,-0.07,-0.00,-0.25
1171,-1.42,-1.23,10.00,-0.07,0.15,-0.28
1176,-1.42,-1.23,10.00,-0.08,0.18,-0.29
1182,-1.68,-0.80,9.00,-0.08,0.18,-0.29
1186,-1.68,-0.80,9.00,-0.07,0.18,-0.32
1192,-1.68,-0.80,9.00,-0.06,0.16,-0.29
1196,-1.68,-0.80,9.00,-0.04,0.12,-0.24
1202,-0.08,-1.46,8.42,-0.04,0.12,-0.24
1206,-0.08,-1.46,8.42,-0.06,0.01,-0.15
1211,-0.08,-1.46,8.42,-0.07,-0.04,-0.17
1217,-1.00,-2.22,9.65,-0.07,-0.04,-0.17
1221,-1.00,-2.22,9.65,-0.06,-0.06,-0.16
1226,-1.00,-2.22,9.65,-0.03,-0.06,-0.10
1232,-1.00,-2.22,9.65,-0.03,-0.03,-0.08
1237,-0.38,-1.65,10.00,-0.03,-0.03,-0.08
1241,-0.38,-1.65,10.00,-0.01,0.01,-0.09
1246,-0.38,-1.65,10.00,-0.01,0.02,-0.08
1252,1.68,-2.26,11.22,-0.01,0.02,-0.08
1256,1.68,-2.26,11.22,0.03,0.01,-0.09
1261,1.68,-2.26,11.22,0.02,0.06,-0.12
1266,1.68,-2.26,11.22,0.01,0.13,-0.13
1272,-1.99,-1.34,7.51,0.01,0.13,-0.13
1276,-1.99,-1.34,7.51,-0.00,0.17,-0.03
1281,-1.99,-1.34,7.51,-0.01,0.13,-0.01
1287,-1.91,0.30,8.04,-0.01,0.13,-0.01
1291,-1.91,0.30,8.04,-0.04,-0.01,-0.04
1296,-1.91,0.30,8.04,-0.04,-0.08,-0.03
1301,-1.91,0.30,8.04,-0.04,-0.15,0.01
1307,0.88,-1.27,10.84,-0.04,-0.15,0.01
1312,0.88,-1.27,10.84,-0.02,-0.12,0.03
1316,0.88,-1.27,10.84,-0.00,-0.07,0.03
1322,-0.42,-2.11,9.34,-0.00,-0.07,0.03
1326,-0.42,-2.11,9.34,0.01,0.08,0.06
1331,-0.42,-2.11,9.34,-0.00,0.12,0.05
1337,-0.42,-2.11,9.34,0.01,0.13,0.05
1342,-1.53,0.19,8.70,0.01,0.13,0.05
1346,-1.53,0.19,8.70,-0.04,0.15,0.04
1351,-1.53,0.19,8.70,-0.04,0.13,0.03
1357,-1.34,-0.88,9.12,-0.04,0.13,0.03
1361,-1.34,-0.88,9.12,-0.05,0.05,0.03
1366,-1.34,-0.88,9.12,-0.02,-0.01,0.07
1372,-1.34,-0.88,9.12,-0.02,-0.06,0.11
1376,-1.34,-0.88,9.12,-0.03,-0.08,0.12
1381,-1.34,-0.88,9.12,-0.04,-0.07,0.09
1387,-1.34,-0.88,9.12,-0.04,-0.07,0.06
1392,0.38,-1.04,10.03,-0.04,-0.07,0.06
1396,0.38,-1.04,10.03,-0.06,0.01,0.02
1401,0.38,-1.04,10.03,-0.09,0.09,0.01
1407,0.38,-1.04,10.03,-0.08,0.14,-0.01
1411,0.38,-1.04,10.03,-0.11,0.17,-0.02
1416,0.38,-1.04,10.03,-0.14,0.16,-0.04
1422,0.38,-1.04,10.03,-0.16,0.13,-0.06
1427,-1.80,0.50,7.20,-0.16,0.13,-0.06
1431,-1.80,0.50,7.20,-0.20,-0.00,-0.09
1436,-1.80,0.50,7.20,-0.19,-0.08,-0.05
1442,-1.80,0.50,7.20,-0.18,-0.15,-0.03
1446,-1.80,0.50,7.20,-0.18,-0.18,-0.05
1451,-1.80,0.50,7.20,-0.18,-0.15,-0.11
1457,-1.80,0.50,7.20,-0.15,-0.11,-0.18
1462,-0.57,-0.84,10.96,-0.15,-0.11,-0.18
1466,-0.57,-0.84,10.96,-0.15,0.10,-0.25
1471,-0.57,-0.84,10.96,-0.15,0.18,-0.25
1477,-1.27,1.61,6.36,-0.15,0.18,-0.25
1481,-1.27,1.61,6.36,-0.27,0.21,-0.32
1486,-1.27,1.61,6.36,-0.33,0.17,-0.41
1491,-1.27,1.61,6.36,-0.35,0.12,-0.50
1496,0.30,0.00,9.93,-0.35,0.12,-0.50
1500,0.30,0.00,9.93,-0.33,0.02,-0.54
1506,0.30,0.00,9.93,-0.30,0.00,-0.50
1510,-0.77,-0.04,10.50,-0.30,0.00,-0.50
1517,-0.77,-0.04,10.50,-0.25,0.01,-0.47
1521,-0.77,-0.04,10.50,-0.24,0.04,-0.44
1526,-0.77,-0.04,10.50,-0.24,0.04,-0.48
1531,-1.11,1.65,8.62,-0.24,0.04,-0.48
1536,-1.11,1.65,8.62,-0.27,0.09,-0.58
1541,-1.11,1.65,8.62,-0.27,0.10,-0.55
1547,-2.53,1.72,8.88,-0.27,0.10,-0.55
1551,-2.53,1.72,8.88,-0.30,0.12,-0.53
1556,-2.53,1.72,8.88,-0.31,0.10,-0.56
1561,-2.53,1.72,8.88,-0.31,0.06,-0.61
1567,1.91,0.30,10.39,-0.31,0.06,-0.61
1572,1.91,0.30,10.39,-0.32,-0.02,-0.71
1577,1.91,0.30,10.39,-0.30,-0.04,-0.72
1582,0.23,-0.61,10.88,-0.30,-0.04,-0.72
1586,0.23,-0.61,10.88,-0.28,0.09,-0.76
1591,0.23,-0.61,10.88,-0.28,0.18,-0.77
1596,0.23,-0.61,10.88,-0.27,0.24,-0.77
1602,-1.76,1.00,9.58,-0.27,0.24,-0.77
1606,-1.76,1.00,9.58,-0.30,0.26,-0.83
1611,-1.76,1.00,9.58,-0.29,0.22,-0.87
1617,0.30,1.04,9.16,-0.29,0.22,-0.87
1621,0.30,1.04,9.16,-0.28,0.14,-0.87
1626,0.30,1.04,9.16,-0.27,0.11,-0.82
1632,0.23,0.15,9.38,-0.27,0.11,-0.82
1636,0.23,0.15,9.38,-0.25,0.08,-0.76
1641,0.23,0.15,9.38,-0.25,0.09,-0.76
1646,0.23,0.15,9.38,-0.24,0.13,-0.73
1652,-1.49,-0.08,9.04,-0.24,0.13,-0.73
1656,-1.49,-0.08,9.04,-0.23,0.12,-0.65
1661,-1.49,-0.08,9.04,-0.23,0.09,-0.64
1667,1.68,-0.46,11.15,-0.23,0.09,-0.64
1671,1.68,-0.46,11.15,-0.19,0.02,-0.59
1676,1.68,-0.46,11.15,-0.16,-0.01,-0.57
1681,1.68,-0.46,11.15,-0.13,0.01,-0.57
1687,-1.07,-1.76,10.07,-0.13,0.01,-0.57
1691,-1.07,-1.76,10.07,-0.11,0.17,-0.54
1696,-1.07,-1.76,10.07,-0.11,0.25,-0.48
1702,-1.07,-1.76,10.07,-0.12,0.27,-0.44
1706,-1.07,-1.76,10.07,-0.13,0.24,-0.42
1711,-1.07,-1.76,10.07,-0.13,0.17,-0.45
1716,-1.07,-1.76,10.07,-0.13,0.11,-0.48
1722,0.96,-2.30,11.45,-0.13,0.11,-0.48
1726,0.96,-2.30,11.45,-0.08,0.05,-0.46
1731,0.96,-2.30,11.45,-0.06,0.03,-0.41
1737,-0.27,-3.68,10.88,-0.06,0.03,-0.41
1741,-0.27,-3.68,10.88,-0.02,0.08,-0.36
1746,-0.27,-3.68,10.88,-0.01,0.11,-0.34
1751,-0.27,-3.68,10.88,-0.00,0.13,-0.31
1757,-1.95,-1.95,8.24,-0.00,0.13,-0.31
1761,-1.95,-1.95,8.24,-0.01,0.16,-0.27
1767,-1.95,-1.95,8.24,-0.02,0.17,-0.25
1772,-1.84,-1.30,9.23,-0.02,0.17,-0.25
1776,-1.84,-1.30,9.23,-0.01,0.23,-0.25
1781,-1.84,-1.30,9.23,0.01,0.23,-0.23
1786,-1.84,-1.30,9.23,0.05,0.19,-0.17
1791,-1.11,-2.76,10.69,0.05,0.19,-0.17
1796,-1.11,-2.76,10.69,0.10,0.01,-0.04
1801,-1.11,-2.76,10.69,0.09,-0.05,-0.04
1807,0.00,-0.92,10.41,0.09,-0.05,-0.04
1811,0.00,-0.92,10.41,0.07,-0.04,-0.06
1816,0.00,-0.92,10.41,0.05,0.02,-0.07
1822,0.00,-0.92,10.41,0.03,0.11,-0.10
1826,0.00,-0.92,10.41,0.03,0.19,-0.10
1831,0.00,-0.92,10.41,0.04,0.23,-0.07
1836,0.00,-0.92,10.41,0.02,0.26,-0.06
1842,0.00,-0.92,10.41,-0.02,0.23,-0.05
1846,0.00,-0.92,10.41,-0.05,0.17,-0.07
1851,0.00,-0.92,10.41,-0.06,0.09,-0.10
1856,2.22,-1.84,10.35,-0.06,0.09,-0.10
1862,3.14,-1.38,12.03,-0.06,0.09,-0.10
1866,3.14,-1.38,12.03,-0.01,-0.19,-0.07
1871,3.14,-1.38,12.03,-0.00,-0.17,-0.12
1877,1.23,-2.95,12.30,-0.00,-0.17,-0.12
1881,1.23,-2.95,12.30,0.06,0.02,-0.16
1886,1.23,-2.95,12.30,0.03,0.16,-0.15
1892,-2.30,1.46,6.97,0.03,0.16,-0.15
1896,-2.30,1.46,6.97,-0.07,0.34,-0.16
1901,-2.30,1.46,6.97,-0.13,0.34,-0.19
1906,-2.30,1.46,6.97,-0.19,0.28,-0.25
1912,-0.19,0.11,8.08,-0.19,0.28,-0.25
1916,-0.19,0.11,8.08,-0.20,0.10,-0.32
1920,-0.19,0.11,8.08,-0.16,0.05,-0.30
1926,-0.19,0.11,8.08,-0.12,0.01,-0.22
1931,-1.46,-1.07,8.82,-0.12,0.01,-0.22
1937,-1.46,-1.07,8.82,-0.07,0.01,-0.11
1942,-1.46,-1.07,8.82,-0.07,-0.03,-0.03
1946,-1.46,-1.07,8.82,-0.07,-0.05,-0.06
1951,-1.46,-1.07,8.82,-0.10,-0.06,-0.12
1956,-1.46,-1.07,8.82,-0.13,-0.04,-0.16
1962,-1.46,-1.07,8.82,-0.12,-0.01,-0.16
1966,-1.46,-1.07,8.82,-0.11,0.03,-0.12
1971,-1.46,-1.07,8.82,-0.16,0.07,-0.12
1976,-1.46,-1.07,8.82,-0.16,0.07,-0.16
1982,0.30,-0.08,10.46,-0.16,0.07,-0.16
1986,0.30,-0.08,10.46,-0.20,0.10,-0.32
1991,0.30,-0.08,10.46,-0.21,0.11,-0.37
1997,-0.34,-0.92,10.84,-0.21,0.11,-0.37
2001,-0.34,-0.92,10.84,-0.22,0.17,-0.39
2006,-0.34,-0.92,10.84,-0.23,0.22,-0.40
2012,-0.34,-0.92,10.84,-0.23,0.22,-0.41
2016,-0.34,-0.92,10.84,-0.24,0.19,-0.42
2021,-0.34,-0.92,10.84,-0.25,0.13,-0.46
2026,-0.34,-0.92,10.84,-0.25,0.09,-0.51
2031,-0.34,0.19,8.96,-0.25,0.09,-0.51
2036,-0.34,0.19,8.96,-0.24,0.10,-0.52
2041,-0.34,0.19,8.96,-0.23,0.09,-0.46
2047,-0.34,0.19,8.96,-0.26,0.08,-0.45
2051,-0.34,0.19,8.96,-0.29,0.08,-0.53
2056,-0.34,0.19,8.96,-0.28,0.07,-0.59
2061,-0.34,0.19,8.96,-0.29,0.07,-0.62
2067,-2.95,0.69,9.12,-0.29,0.07,-0.62
2071,-2.95,0.69,9.12,-0.30,0.15,-0.64
2076,-2.95,0.69,9.12,-0.31,0.16,-0.63
2082,-2.95,0.69,9.12,-0.30,0.14,-0.64
2086,-2.95,0.69,9.12,-0.33,0.11,-0.66
2091,-2.95,0.69,9.12,-0.31,0.05,-0.68
2096,-2.95,0.69,9.12,-0.30,-0.01,-0.71
2102,-2.95,0.69,9.12,-0.29,-0.01,-0.76
2106,-2.95,0.69,9.12,-0.31,0.07,-0.84
2111,-2.95,0.69,9.12,-0.31,0.16,-0.86
2116,-1.30,0.19,9.46,-0.31,0.16,-0.86
2122,-0.92,0.61,8.78,-0.31,0.16,-0.86
2126,-0.92,0.61,8.78,-0.35,0.29,-0.82
2131,-0.92,0.61,8.78,-0.38,0.28,-0.87
2137,0.92,2.49,10.19,-0.38,0.28,-0.87
2141,0.92,2.49,10.19,-0.43,0.22,-0.98
2146,0.92,2.49,10.19,-0.41,0.19,-1.02
2151,3.03,-1.00,11.04,-0.41,0.19,-1.02
2156,3.03,-1.00,11.04,-0.38,0.15,-1.04
2161,3.03,-1.00,11.04,-0.36,0.17,-1.04
2166,3.03,-1.00,11.04,-0.34,0.19,-1.05
2172,-0.38,-1.27,9.38,-0.34,0.19,-1.05
2176,-0.38,-1.27,9.38,-0.32,0.26,-0.99
2181,-1.19,2.26,10.61,-0.32,0.26,-0.99
2186,-1.19,2.26,10.61,-0.33,0.31,-1.02
2191,-1.19,2.26,10.61,-0.35,0.36,-1.07
2196,-1.19,2.26,10.61,-0.32,0.39,-1.07
2201,-1.19,2.26,10.61,-0.30,0.38,-1.02
2206,-1.19,2.26,10.61,-0.28,0.30,-0.95
2211,0.57,-1.23,10.46,-0.28,0.30,-0.95
2217,0.57,-1.23,10.46,-0.23,0.10,-0.89
2222,0.57,-1.23,10.46,-0.22,0.06,-0.88
2226,1.80,-1.38,11.26,-0.22,0.06,-0.88
2231,1.80,-1.38,11.26,-0.22,0.11,-0.88
2236,1.80,-1.38,11.26,-0.21,0.19,-0.88
2241,-0.54,-1.88,11.72,-0.21,0.19,-0.88
2246,-0.54,-1.88,11.72,-0.20,0.35,-0.90
2251,-0.54,-1.88,11.72,-0.18,0.41,-0.90
2256,-2.87,-1.53,8.96,-0.18,0.41,-0.90
2261,-2.87,-1.53,8.96,-0.20,0.50,-0.88
2266,-2.87,-1.53,8.96,-0.18,0.44,-0.81
2271,-2.87,-1.53,8.96,-0.17,0.32,-0.77
2276,-2.87,-1.53,8.96,-0.16,0.21,-0.74
2281,-2.87,-1.53,8.96,-0.12,0.08,-0.77
2286,-2.87,-1.53,8.96,-0.09,0.02,-0.80
2291,0.46,-3.33,11.64,-0.09,0.02,-0.80
2296,0.46,-3.33,11.64,-0.03,0.14,-0.80
2301,0.46,-3.33,11.64,-0.03,0.27,-0.72
2306,0.46,-3.33,11.64,-0.07,0.37,-0.67
2311,0.46,-3.33,11.64,-0.11,0.42,-0.63
2316,0.46,-3.33,11.64,-0.15,0.41,-0.63
2322,0.46,-3.33,11.64,-0.19,0.38,-0.67
2326,0.46,-3.33,11.64,-0.17,0.31,-0.70
2331,0.46,-3.33,11.64,-0.12,0.20,-0.69
2336,0.46,-3.33,11.64,-0.06,0.13,-0.67
2341,0.46,-3.33,11.64,0.01,0.12,-0.63
2346,0.46,-3.33,11.64,0.08,0.12,-0.56
2351,0.46,-3.33,11.64,0.10,0.16,-0.51
2356,0.46,-3.33,11.64,0.09,0.22,-0.50
2361,0.46,-3.33,11.64,0.04,0.28,-0.53
2366,0.46,-3.33,11.64,0.01,0.34,-0.55
2371,0.46,-3.33,11.64,-0.01,0.37,-0.56
2376,-1.30,0.19,10.11,-0.01,0.37,-0.56
2381,-1.15,-0.96,9.77,-0.01,0.37,-0.56
2386,-1.15,-0.96,9.77,-0.04,0.38,-0.57
2391,-1.15,-0.96,9.77,-0.04,0.33,-0.58
2396,-1.15,-0.96,9.77,-0.02,0.27,-0.58
2401,-1.15,-0.96,9.77,-0.00,0.19,-0.55
2406,-1.15,-0.96,9.77,0.02,0.12,-0.51
2411,0.96,-2.49,10.61,0.02,0.12,-0.51
2416,0.96,-2.49,10.61,0.03,0.08,-0.51
2421,0.96,-2.49,10.61,0.03,0.14,-0.54
2426,0.96,-2.49,10.61,0.04,0.20,-0.53
2431,0.96,-2.49,10.61,0.04,0.28,-0.52
2436,0.96,-2.49,10.61,0.04,0.33,-0.54
2441,0.96,-2.49,10.61,0.04,0.36,-0.56
2446,-0.54,-0.96,9.42,0.04,0.36,-0.56
2451,-0.54,-0.96,9.42,0.02,0.37,-0.56
2456,-0.54,-0.96,9.42,0.04,0.36,-0.55
2461,-0.54,-0.96,9.42,0.04,0.32,-0.55
2466,-0.54,-0.96,9.42,0.02,0.29,-0.55
2471,-1.91,-1.15,8.50,0.02,0.29,-0.55
2476,-1.91,-1.15,8.50,0.02,0.21,-0.50
2482,-1.91,-1.15,8.50,0.02,0.19,-0.48
2486,-0.57,-0.84,10.69,0.02,0.19,-0.48
2491,-0.57,-0.84,10.69,0.03,0.16,-0.46
2496,-0.57,-0.84,10.69,0.06,0.11,-0.44
2501,2.26,-0.46,13.56,0.06,0.11,-0.44
2506,2.26,-0.46,13.56,0.09,0.10,-0.50
2511,2.26,-0.46,13.56,0.10,0.15,-0.53
2516,2.26,-0.46,13.56,0.07,0.22,-0.54
2520,0.77,-1.42,8.66,0.07,0.22,-0.54
2526,0.77,-1.42,8.66,0.05,0.30,-0.49
2532,0.77,-1.42,8.66,0.01,0.33,-0.51
2536,0.77,-1.42,8.66,-0.01,0.36,-0.55
2541,-1.04,0.61,10.84,-0.01,0.36,-0.55
2546,-1.04,0.61,10.84,0.01,0.40,-0.58
2552,-1.88,0.30,10.92,0.01,0.40,-0.58
2556,-1.04,-0.54,10.49,0.01,0.40,-0.58
2560,-0.92,-1.88,9.58,0.01,0.40,-0.58
2566,-0.92,-1.88,9.58,0.04,0.27,-0.51
2571,-0.92,-1.88,9.58,0.04,0.16,-0.50
2576,-0.92,-1.88,9.58,0.04,0.03,-0.51
2581,-0.92,-1.88,9.58,0.04,-0.04,-0.52
2586,-0.92,-1.88,9.58,0.06,-0.03,-0.53
2591,-0.92,-1.88,9.58,0.05,0.04,-0.55
2596,-0.92,-1.88,9.58,0.04,0.21,-0.57
2602,-0.92,-1.88,9.58,0.02,0.39,-0.58
2607,-0.92,-1.88,9.58,0.03,0.50,-0.57
2611,-1.19,0.34,9.96,0.03,0.50,-0.57
2616,-0.80,-0.27,9.96,0.03,0.50,-0.57
2622,-0.80,-0.27,9.96,0.02,0.48,-0.59
2626,-0.80,-0.27,9.96,0.04,0.37,-0.60
2631,0.65,-1.84,8.58,0.04,0.37,-0.60
2636,0.65,-1.84,8.58,0.04,0.15,-0.53
2641,0.65,-1.84,8.58,0.04,0.12,-0.51
2646,0.65,-1.84,8.58,0.05,0.13,-0.49
2651,0.65,-1.84,8.58,0.06,0.17,-0.48
2657,0.65,-1.84,8.58,0.06,0.26,-0.48
2661,-1.23,0.73,9.04,0.06,0.26,-0.48
2666,-0.96,0.92,8.66,0.06,0.26,-0.48
2672,-0.96,0.92,8.66,-0.02,0.36,-0.50
2676,2.30,-2.72,12.41,-0.02,0.36,-0.50
2681,2.64,-2.84,12.26,-0.02,0.36,-0.50
2687,2.64,-2.84,12.26,0.05,0.18,-0.50
2691,2.64,-2.84,12.26,0.08,0.16,-0.50
2696,-1.38,-2.26,8.92,0.08,0.16,-0.50
2701,-1.38,-2.26,8.92,0.08,0.27,-0.54
2707,-1.38,-2.26,8.92,0.06,0.34,-0.49
2711,-2.76,2.49,6.51,0.06,0.34,-0.49
2716,-1.53,2.38,7.27,0.06,0.34,-0.49
2722,-1.53,2.38,7.27,-0.07,0.34,-0.51
2727,-1.53,2.38,7.27,-0.10,0.28,-0.54
2731,1.42,-1.99,10.46,-0.10,0.28,-0.54
2736,1.72,-3.10,11.64,-0.10,0.28,-0.54
2742,1.72,-3.10,11.64,0.01,0.08,-0.56
2747,1.72,-3.10,11.64,0.07,0.07,-0.54
2751,2.91,-2.87,13.49,0.07,0.07,-0.54
2755,2.53,-2.03,13.60,0.07,0.07,-0.54
2762,2.53,-2.03,13.60,0.11,0.19,-0.55
2767,2.53,-2.03,13.60,0.05,0.31,-0.64
2771,0.15,1.27,11.19,0.05,0.31,-0.64
2776,-0.54,2.03,10.80,0.05,0.31,-0.64
2780,-0.54,2.03,10.80,-0.07,0.56,-0.73
2785,-0.19,0.92,10.84,-0.07,0.56,-0.73
2791,-0.19,0.92,10.84,-0.08,0.54,-0.76
2797,-1.07,0.46,8.50,-0.08,0.54,-0.76
2802,-1.07,0.46,8.50,-0.08,0.37,-0.81
2806,1.80,-0.61,9.65,-0.08,0.37,-0.81
2811,0.27,0.61,10.99,-0.08,0.37,-0.81
2816,-0.92,-1.00,8.96,-0.08,0.37,-0.81
2821,-0.92,-1.00,8.96,-0.04,0.10,-0.74
2826,-0.92,-1.00,8.96,-0.04,0.14,-0.74
2831,-0.92,-1.00,8.96,-0.01,0.17,-0.74
2836,-0.77,-0.19,9.42,-0.01,0.17,-0.74
2841,-1.76,0.00,9.16,-0.01,0.17,-0.74
2846,-1.76,0.00,9.16,-0.04,0.32,-0.79
2851,-1.76,0.00,9.16,-0.03,0.34,-0.77
2856,-1.76,0.00,9.16,-0.04,0.33,-0.73
2862,-1.76,0.00,9.16,-0.06,0.30,-0.73
2867,-0.88,-1.30,9.58,-0.06,0.30,-0.73
2870,-0.88,-1.30,9.58,-0.04,0.21,-0.74
2875,-1.38,-1.49,10.54,-0.04,0.21,-0.74
2882,-1.38,-1.49,10.54,-0.02,0.21,-0.74
2886,-0.88,-0.65,9.54,-0.02,0.21,-0.74
2890,1.42,-1.30,10.23,-0.02,0.21,-0.74
2896,1.42,-1.30,10.23,0.01,0.16,-0.70
2902,1.42,-1.30,10.23,-0.01,0.10,-0.69
2906,5.09,-0.69,13.71,-0.01,0.10,-0.69
2911,2.45,-1.15,12.14,-0.01,0.10,-0.69
2916,2.45,-1.15,12.14,0.02,0.23,-0.87
2921,2.45,-1.15,12.14,-0.00,0.39,-0.90
2927,2.45,-1.15,12.14,0.00,0.47,-0.86
2931,2.45,-1.15,12.14,0.03,0.51,-0.84
2936,2.87,0.80,15.10,0.03,0.51,-0.84
2940,3.52,0.19,14.21,0.03,0.51,-0.84
2946,3.52,0.19,14.21,-0.01,0.62,-1.10
2951,3.52,0.19,14.21,-0.02,0.68,-1.13
2956,-3.95,0.04,8.62,-0.02,0.68,-1.13
2961,-4.71,-0.11,7.93,-0.02,0.68,-1.13
2966,-4.71,-0.11,7.93,-0.02,0.81,-0.99
2971,-3.45,1.76,7.43,-0.02,0.81,-0.99
2975,-1.04,2.34,7.85,-0.02,0.81,-0.99
2981,-1.04,2.34,7.85,-0.05,0.39,-0.86
2986,-1.04,2.34,7.85,-0.03,0.20,-0.86
2991,-1.91,-0.61,8.93,-0.03,0.20,-0.86
2995,-1.80,-1.76,9.16,-0.03,0.20,-0.86
3001,-1.80,-1.76,9.16,0.06,-0.02,-0.72
3005,-1.80,-1.76,9.16,0.10,0.01,-0.61
3011,-1.80,-1.76,9.16,0.13,0.05,-0.50
3017,-1.80,-1.76,9.16,0.11,0.08,-0.44
3022,-1.80,-1.76,9.16,0.08,0.10,-0.46
3026,2.07,0.96,11.80,0.08,0.10,-0.46
3031,2.18,-1.11,11.11,0.08,0.10,-0.46
3036,2.18,-1.11,11.11,0.03,0.22,-0.74
3041,0.11,-3.48,9.04,0.03,0.22,-0.74
3045,-0.27,-4.52,9.77,0.03,0.22,-0.74
3051,-0.27,-4.52,9.77,0.05,0.40,-0.62
3056,-0.27,-4.52,9.77,0.07,0.46,-0.61
3061,-2.34,-0.61,7.51,0.07,0.46,-0.61
3066,-2.87,-0.88,7.51,0.07,0.46,-0.61
3071,-2.87,-0.88,7.51,0.04,0.56,-0.67
3076,0.11,-1.15,9.54,0.04,0.56,-0.67
3080,-0.23,-2.45,11.53,0.04,0.56,-0.67
3086,-0.23,-2.45,11.53,0.12,0.32,-0.58
3091,-0.23,-2.45,11.53,0.19,0.25,-0.53
3097,0.57,-3.68,12.38,0.19,0.25,-0.53
3101,-0.08,-2.30,10.03,0.19,0.25,-0.53
3105,-0.84,-1.27,8.82,0.19,0.25,-0.53
3111,-0.84,-1.27,8.82,0.24,0.35,-0.46
3116,-0.84,-1.27,8.82,0.22,0.41,-0.45
3122,-0.84,-1.27,8.82,0.18,0.44,-0.44
3126,-0.80,1.23,8.58,0.18,0.44,-0.44
3131,-0.80,1.23,8.58,0.09,0.38,-0.50
3136,-2.45,-1.00,10.57,0.09,0.38,-0.50
3141,-1.19,-2.26,10.80,0.09,0.38,-0.50
3146,-0.50,-2.72,11.22,0.09,0.38,-0.50
3151,0.04,-2.41,11.88,0.09,0.38,-0.50
3156,1.15,-2.87,11.91,0.09,0.38,-0.50
3161,1.15,-2.87,11.91,0.23,0.11,-0.38
3166,-0.23,-2.41,9.39,0.23,0.11,-0.38
3171,-1.30,-2.68,7.93,0.23,0.11,-0.38
3176,-1.30,-2.68,7.93,0.20,0.12,-0.51
3181,-0.84,-1.00,8.35,0.20,0.12,-0.51
3186,2.99,-0.77,9.20,0.20,0.12,-0.51
3191,2.99,-0.77,9.20,0.10,0.08,-0.52
3196,5.02,-2.53,11.92,0.10,0.08,-0.52
3201,5.94,-4.29,12.64,0.10,0.08,-0.52
3206,6.32,-5.09,12.34,0.10,0.08,-0.52
3211,3.52,-5.90,12.07,0.10,0.08,-0.52
3215,2.87,-5.29,11.30,0.10,0.08,-0.52
3222,2.87,-5.29,11.30,0.22,0.21,-0.87
3226,2.87,-5.29,11.30,0.25,0.33,-0.79
3231,-0.88,-0.50,9.69,0.25,0.33,-0.79
3236,-1.57,0.23,8.84,0.25,0.33,-0.79
3241,-1.53,0.15,8.96,0.25,0.33,-0.79
3246,1.30,1.23,8.62,0.25,0.33,-0.79
3251,0.15,1.07,9.46,0.25,0.33,-0.79
3256,-0.88,0.80,9.46,0.25,0.33,-0.79
3261,0.38,0.04,9.20,0.25,0.33,-0.79
3266,0.80,-0.30,9.89,0.25,0.33,-0.79
3271,-1.61,0.19,9.27,0.25,0.33,-0.79
3276,-1.61,0.77,9.08,0.25,0.33,-0.79
3280,-1.99,1.72,9.38,0.25,0.33,-0.79
3285,-1.99,1.72,9.38,0.18,0.18,-0.61
3290,-3.45,2.18,8.12,0.18,0.18,-0.61
3297,-3.45,2.18,8.12,0.14,0.22,-0.62
3301,-7.55,14.40,11.91,0.14,0.22,-0.62
3305,-7.55,14.40,11.91,0.04,0.46,-0.56
3311,-3.75,2.76,14.05,0.04,0.46,-0.56
3316,3.95,-0.23,9.69,0.04,0.46,-0.56
3321,-1.07,-0.27,8.36,0.04,0.46,-0.56
3326,-5.59,-2.49,8.32,0.04,0.46,-0.56
3331,-5.59,-2.49,8.32,0.01,0.15,-0.73
3336,-4.98,-3.64,9.00,0.01,0.15,-0.73
3341,-5.98,-4.94,9.20,0.01,0.15,-0.73
3346,-6.70,-1.38,9.12,0.01,0.15,-0.73
3351,-3.52,2.99,11.98,0.01,0.15,-0.73
3356,-3.52,2.99,11.98,0.10,0.37,-0.27
3361,-1.99,-2.45,12.53,0.10,0.37,-0.27
3366,-1.99,-2.45,12.53,0.11,0.38,-0.43
3371,-0.84,-8.81,10.88,0.11,0.38,-0.43
3377,-0.92,-9.39,11.45,0.11,0.38,-0.43
3381,0.69,-8.08,9.23,0.11,0.38,-0.43
3386,2.03,-7.93,8.27,0.11,0.38,-0.43
3391,2.87,-4.67,8.35,0.11,0.38,-0.43
3396,3.45,-2.72,8.54,0.11,0.38,-0.43
3401,3.45,-1.49,9.93,0.11,0.38,-0.43
3406,3.87,-2.18,9.16,0.11,0.38,-0.43
3411,0.57,-1.88,9.88,0.11,0.38,-0.43
3416,1.34,-2.57,9.50,0.11,0.38,-0.43
3421,1.34,-2.57,9.50,0.21,0.36,-0.46
3426,3.10,-1.30,10.99,0.21,0.36,-0.46
3431,4.33,0.15,10.95,0.21,0.36,-0.46
3436,5.44,-0.27,10.92,0.21,0.36,-0.46
3441,6.28,0.80,10.41,0.21,0.36,-0.46
3446,5.25,0.84,10.19,0.21,0.36,-0.46
3506,5.25,0.84,10.19,0.24,0.10,-0.41
3518,2.41,0.08,10.00,0.24,0.10,-0.41
3521,2.41,0.08,10.00,0.10,-0.03,-0.55
3522,2.41,0.08,10.00,0.05,0.14,-0.66
3526,-3.68,-0.27,7.55,0.05,0.14,-0.66
3530,-3.68,-0.27,7.55,-0.01,0.23,-0.72
3536,-2.80,-0.15,8.24,-0.01,0.23,-0.72
3541,-2.80,-0.15,8.24,-0.04,0.27,-0.79
3546,-1.19,-0.38,9.08,-0.04,0.27,-0.79
3551,-0.15,-2.57,10.19,-0.04,0.27,-0.79
3556,0.00,-3.37,11.04,-0.04,0.27,-0.79
3561,-0.65,-3.33,11.15,-0.04,0.27,-0.79
3566,-1.15,-3.07,11.11,-0.04,0.27,-0.79
3571,-0.08,-3.29,11.34,-0.04,0.27,-0.79
3576,-0.19,-0.96,11.98,-0.04,0.27,-0.79
3581,-0.19,-0.96,11.98,0.15,0.25,-0.82
3586,-0.27,0.57,11.88,0.15,0.25,-0.82
3591,0.04,1.19,11.11,0.15,0.25,-0.82
3596,-0.96,1.53,9.84,0.15,0.25,-0.82
3601,-0.96,1.53,9.84,0.09,0.40,-0.84
3606,-1.61,1.46,9.73,0.09,0.40,-0.84
3611,-1.61,1.46,9.73,0.07,0.42,-0.82
3617,-1.61,1.46,9.73,0.06,0.42,-0.79
3621,-2.99,-0.15,10.42,0.06,0.42,-0.79
3626,-2.68,-0.30,10.42,0.06,0.42,-0.79
3631,-1.61,-0.42,9.80,0.06,0.42,-0.79
3636,-0.69,-1.30,11.03,0.06,0.42,-0.79
3641,-0.46,-1.42,11.99,0.06,0.42,-0.79
3646,0.54,-0.27,11.30,0.06,0.42,-0.79
3651,0.54,-0.27,11.30,0.18,0.16,-0.53
3656,0.54,-0.27,11.30,0.19,0.19,-0.54
3661,-2.11,-1.80,10.04,0.19,0.19,-0.54
3666,-1.53,-2.30,9.61,0.19,0.19,-0.54
3671,-2.84,-2.14,9.69,0.19,0.19,-0.54
3676,-2.87,-2.14,10.15,0.19,0.19,-0.54
3681,-0.96,-0.96,9.12,0.19,0.19,-0.54
3686,-0.96,-0.96,9.12,0.18,0.24,-0.38
3691,-0.61,-2.53,9.38,0.18,0.24,-0.38
3696,-0.08,-2.38,10.07,0.18,0.24,-0.38
3701,-1.53,-3.98,10.27,0.18,0.24,-0.38
3706,-3.14,-3.56,9.43,0.18,0.24,-0.38
3711,-2.11,-3.26,9.04,0.18,0.24,-0.38
3717,-3.22,-2.76,8.35,0.18,0.24,-0.38
3721,-3.22,-2.76,8.35,0.31,0.24,-0.17
3726,-2.84,-1.65,8.39,0.31,0.24,-0.17
3731,-1.80,-1.76,9.38,0.31,0.24,-0.17
3736,-0.38,-2.49,10.61,0.31,0.24,-0.17
3741,1.95,-2.38,12.38,0.31,0.24,-0.17
3746,-0.50,-2.18,12.95,0.31,0.24,-0.17
3752,-1.30,-2.68,11.61,0.31,0.24,-0.17
3756,-1.30,-2.68,11.61,0.31,0.25,-0.23
3761,-3.52,-1.91,8.43,0.31,0.25,-0.23
3766,-2.03,-0.50,8.70,0.31,0.25,-0.23
3772,-2.26,-0.65,7.43,0.31,0.25,-0.23
3775,-2.26,-0.65,7.43,0.26,0.35,-0.18
3782,-2.34,0.00,6.97,0.26,0.35,-0.18
3787,-1.72,-0.50,8.92,0.26,0.35,-0.18
3791,-1.72,-0.50,8.92,0.25,0.14,-0.27
3796,-1.72,-0.50,8.92,0.26,0.12,-0.25
3801,-2.76,-1.38,10.31,0.26,0.12,-0.25
3806,-3.91,-1.23,10.07,0.26,0.12,-0.25
3811,-2.38,-0.96,9.65,0.26,0.12,-0.25
3817,-0.15,-1.15,8.12,0.26,0.12,-0.25
3821,-0.15,-1.15,8.12,0.25,0.00,-0.21
3826,-0.15,-1.15,8.12,0.21,-0.06,-0.26
3831,2.91,-2.38,7.77,0.21,-0.06,-0.26
3836,1.11,-2.30,9.84,0.21,-0.06,-0.26
3842,-0.11,-2.49,9.58,0.21,-0.06,-0.26
3846,-1.95,-2.03,10.11,0.21,-0.06,-0.26
3851,-1.65,-1.72,10.42,0.21,-0.06,-0.26
3856,-1.68,-0.73,10.73,0.21,-0.06,-0.26
3862,-1.00,0.50,10.95,0.21,-0.06,-0.26
3866,1.23,-0.42,9.65,0.21,-0.06,-0.26
3872,2.45,0.08,9.84,0.21,-0.06,-0.26
3876,2.45,0.08,9.84,0.17,0.14,-0.70
3881,2.80,-2.07,10.19,0.17,0.14,-0.70
3887,2.38,-2.26,10.96,0.17,0.14,-0.70
3891,2.38,-2.26,10.96,0.20,0.06,-0.78
3896,2.38,-2.26,10.96,0.22,0.15,-0.77
3901,-0.77,-1.00,10.15,0.22,0.15,-0.77
3907,-1.15,0.23,8.89,0.22,0.15,-0.77
3911,-1.15,0.23,8.89,0.21,0.33,-0.88
3916,-1.15,0.23,8.89,0.16,0.34,-0.89
3922,-0.04,2.14,8.04,0.16,0.34,-0.89
3926,-0.04,2.14,8.04,0.11,0.15,-0.91
3931,-0.04,2.14,8.04,0.12,0.04,-0.93
3935,3.98,-1.61,13.91,0.12,0.04,-0.93
3941,3.98,-1.61,13.91,0.14,-0.05,-0.93
3946,3.98,-1.61,13.91,0.24,-0.03,-0.87
3951,-0.30,-1.65,12.14,0.24,-0.03,-0.87
3956,-0.92,0.34,11.15,0.24,-0.03,-0.87
3962,-1.27,1.11,10.00,0.24,-0.03,-0.87
3966,-1.27,1.11,10.00,0.28,0.39,-0.84
3971,-0.34,2.76,7.55,0.28,0.39,-0.84
3977,0.23,2.30,7.39,0.28,0.39,-0.84
3981,0.23,2.30,7.39,0.13,0.24,-1.02
3986,-0.50,-0.88,8.70,0.13,0.24,-1.02
3991,-1.04,-1.80,9.00,0.13,0.24,-1.02
3996,-1.04,-1.80,9.00,0.22,0.15,-0.94
4002,-1.00,-1.72,10.39,0.22,0.15,-0.94
4007,-0.34,-0.80,10.50,0.22,0.15,-0.94
4011,-0.34,-0.80,10.50,0.31,0.12,-0.84
4016,-0.34,-0.80,10.50,0.32,0.08,-0.86
4021,1.15,-1.49,11.45,0.32,0.08,-0.86
4027,-0.15,-1.95,10.46,0.32,0.08,-0.86
4031,-0.15,-1.95,10.46,0.39,0.20,-0.83
4036,-0.15,-1.95,10.46,0.43,0.29,-0.74
4041,-1.61,-1.15,8.96,0.43,0.29,-0.74
4047,-2.22,-0.80,9.31,0.43,0.29,-0.74
4051,-2.22,-0.80,9.31,0.43,0.36,-0.63
4056,-1.53,-0.84,8.73,0.43,0.36,-0.63
4062,-1.84,-1.04,9.04,0.43,0.36,-0.63
4066,-1.84,-1.04,9.04,0.42,0.19,-0.60
4071,-0.11,-2.76,10.46,0.42,0.19,-0.60
4076,-0.11,-2.53,10.34,0.42,0.19,-0.60
4082,-1.04,-2.30,10.73,0.42,0.19,-0.60
4086,-1.04,-2.30,10.73,0.52,0.12,-0.29
4091,-2.11,-2.49,11.38,0.52,0.12,-0.29
4096,-2.49,-2.68,11.42,0.52,0.12,-0.29
4102,-3.18,-2.91,11.04,0.52,0.12,-0.29
4106,-2.68,-2.57,10.11,0.52,0.12,-0.29
4112,-3.45,-1.49,9.46,0.52,0.12,-0.29
4116,-3.45,-1.49,9.46,0.65,0.29,0.07
4121,-3.45,-1.49,9.46,0.62,0.26,0.13
4126,-3.10,-0.80,7.32,0.62,0.26,0.13
4132,-1.88,-0.80,6.82,0.62,0.26,0.13
4136,-1.88,-0.80,6.82,0.55,0.00,0.23
4141,-3.56,-2.38,8.31,0.55,0.00,0.23
4147,-2.30,-2.87,7.97,0.55,0.00,0.23
4151,-2.30,-2.87,7.97,0.59,-0.04,0.39
4156,-2.30,-2.87,7.97,0.62,-0.00,0.46
4162,-2.18,-1.76,8.08,0.62,-0.00,0.46
4166,-2.18,-1.76,8.08,0.60,-0.01,0.55
4171,-2.18,-1.76,8.08,0.60,-0.05,0.55
4176,-2.18,-1.76,8.08,0.61,-0.06,0.54
4182,-0.77,-3.14,10.27,0.61,-0.06,0.54
4186,-0.77,-3.14,10.27,0.61,-0.00,0.55
4191,-4.14,-0.73,7.81,0.61,-0.00,0.55
4195,-4.86,-0.61,6.89,0.61,-0.00,0.55
4201,-4.86,-0.61,6.89,0.63,0.14,0.59
4206,-4.86,-0.61,6.89,0.59,0.10,0.64
4212,-1.84,-0.80,6.24,0.59,0.10,0.64
4217,-1.34,-1.11,6.97,0.59,0.10,0.64
4221,-1.34,-1.11,6.97,0.46,-0.08,0.48
4226,-1.53,-3.26,10.35,0.46,-0.08,0.48
4231,-1.99,-1.84,10.46,0.46,-0.08,0.48
4236,-1.99,-1.84,10.46,0.49,-0.03,0.51
4241,-1.99,-1.84,10.46,0.47,0.02,0.53
4246,-2.68,-0.42,9.54,0.47,0.02,0.53
4252,-1.61,-0.92,8.84,0.47,0.02,0.53
4256,-1.61,-0.92,8.84,0.39,0.03,0.44
4261,-1.15,-0.38,7.81,0.39,0.03,0.44
4267,-0.96,-1.15,8.08,0.39,0.03,0.44
4271,-0.96,-1.15,8.08,0.36,-0.06,0.46
4276,-0.96,-1.15,8.08,0.33,-0.07,0.45
4281,-2.03,-0.11,9.00,0.33,-0.07,0.45
4287,-1.76,0.15,8.66,0.33,-0.07,0.45
4291,-1.76,0.15,8.66,0.28,0.01,0.34
4296,-1.76,0.15,8.66,0.27,0.00,0.36
4302,0.23,0.69,10.30,0.27,0.00,0.36
4306,0.23,0.69,10.30,0.23,-0.08,0.30
4311,0.23,0.69,10.30,0.20,-0.12,0.22
4316,0.23,0.69,10.30,0.17,-0.10,0.12
4322,0.46,0.23,10.84,0.17,-0.10,0.12
4326,0.46,0.23,10.84,0.14,0.03,0.05
4331,-1.19,0.19,9.12,0.14,0.03,0.05
4337,-0.57,0.15,8.39,0.14,0.03,0.05
4341,-0.57,0.15,8.39,0.08,0.13,-0.13
4347,-0.57,0.15,8.39,0.06,0.11,-0.21
4352,-0.19,-0.04,7.12,0.06,0.11,-0.21
4356,-0.19,-0.04,7.12,0.01,-0.02,-0.29
4361,-0.19,-0.04,7.12,0.00,-0.09,-0.33
4366,1.76,-0.46,10.39,0.00,-0.09,-0.33
4372,2.03,-0.65,12.02,0.00,-0.09,-0.33
4376,2.03,-0.65,12.02,0.03,-0.15,-0.42
4382,2.03,-0.65,12.02,0.06,-0.09,-0.40
4387,2.26,-0.57,14.13,0.06,-0.09,-0.40
4391,2.26,-0.57,14.13,0.09,0.07,-0.43
4396,2.26,-0.57,14.13,0.08,0.16,-0.48
4401,0.88,0.61,8.39,0.08,0.16,-0.48
4407,-0.11,0.54,7.47,0.08,0.16,-0.48
4411,-0.11,0.54,7.47,0.04,0.24,-0.53
4416,-0.11,0.54,7.47,0.01,0.19,-0.54
4422,-1.19,-0.57,8.12,0.01,0.19,-0.54
4427,-1.19,-0.57,8.12,0.01,0.07,-0.60
4431,-1.19,-0.57,8.12,0.04,0.02,-0.59
4436,-1.19,-0.57,8.12,0.09,-0.02,-0.54
4442,-0.77,-0.38,9.23,0.09,-0.02,-0.54
4447,-0.77,-0.38,9.23,0.12,-0.03,-0.40
4452,-0.77,-0.38,9.23,0.12,-0.02,-0.38
4457,1.07,1.11,9.89,0.12,-0.02,-0.38
4461,1.07,1.11,9.89,0.12,-0.02,-0.35
4466,1.07,1.11,9.89,0.14,-0.02,-0.31
4471,-1.30,0.61,9.34,0.14,-0.02,-0.31
4477,-1.34,0.23,9.88,0.14,-0.02,-0.31
4481,-1.34,0.23,9.88,0.16,0.10,-0.16
4486,-1.34,0.23,9.88,0.14,0.11,-0.13
4492,-0.77,0.50,10.19,0.14,0.11,-0.13
4497,-0.77,0.50,10.19,0.12,0.08,-0.14
4501,-0.77,0.50,10.19,0.13,0.06,-0.13
4506,-0.46,-0.69,9.84,0.13,0.06,-0.13
4512,-1.53,-0.69,9.89,0.13,0.06,-0.13
4516,-1.53,-0.69,9.89,0.17,0.00,0.05
4521,-1.53,-0.69,9.89,0.15,-0.01,0.06
4527,-1.11,-0.65,9.88,0.15,-0.01,0.06
4531,-1.11,-0.65,9.88,0.14,0.01,0.02
4536,-1.11,-0.65,9.88,0.13,0.03,0.01
4542,-2.30,-3.10,10.57,0.13,0.03,0.01
4546,-2.30,-3.10,10.57,0.17,0.06,0.07
4551,-2.30,-3.10,10.57,0.19,0.08,0.07
4556,-2.30,-3.10,10.57,0.20,0.08,0.09
4562,-2.99,-0.96,7.85,0.20,0.08,0.09
4566,-2.99,-0.96,7.85,0.18,0.06,0.11
4571,-2.99,-0.96,7.85,0.16,-0.02,0.11
4576,-2.99,-0.96,7.85,0.15,-0.07,0.09
4582,-1.38,-3.03,8.62,0.15,-0.07,0.09
4586,-1.38,-3.03,8.62,0.18,-0.06,0.12
4591,-1.38,-3.03,8.62,0.20,-0.01,0.17
4597,-2.99,-1.95,8.42,0.20,-0.01,0.17
4601,-2.99,-1.95,8.42,0.22,0.03,0.26
4606,-2.99,-1.95,8.42,0.20,-0.01,0.26
4612,-0.77,-2.64,9.04,0.20,-0.01,0.26
4616,-0.77,-2.64,9.04,0.20,-0.14,0.27
4622,-0.77,-2.64,9.04,0.20,-0.17,0.28
4626,-1.23,-1.99,11.46,0.20,-0.17,0.28
4631,-1.88,-1.65,11.07,0.20,-0.17,0.28
4636,-1.88,-1.65,11.07,0.23,-0.01,0.36
4641,-1.88,-1.65,11.07,0.23,0.06,0.36
4647,-1.84,-1.38,9.12,0.23,0.06,0.36
4652,-1.84,-1.38,9.12,0.21,0.09,0.34
4656,-1.84,-1.38,9.12,0.20,0.03,0.33
4661,-1.65,-2.57,7.85,0.20,0.03,0.33
4667,-2.07,-1.80,8.12,0.20,0.03,0.33
4671,-2.07,-1.80,8.12,0.19,-0.12,0.34
4676,-2.07,-1.80,8.12,0.18,-0.12,0.32
4682,-4.37,-2.41,10.19,0.18,-0.12,0.32
4686,-4.37,-2.41,10.19,0.19,-0.05,0.34
4691,-4.37,-2.41,10.19,0.20,-0.04,0.38
4696,-4.37,-2.41,10.19,0.20,-0.05,0.38
4702,-2.41,-2.61,8.54,0.20,-0.05,0.38
4706,-2.41,-2.61,8.54,0.18,-0.11,0.35
4711,-2.41,-2.61,8.54,0.19,-0.12,0.37
4717,-1.30,-2.68,8.84,0.19,-0.12,0.37
4721,-1.30,-2.68,8.84,0.21,-0.11,0.41
4726,-1.30,-2.68,8.84,0.21,-0.06,0.40
4731,-3.79,-2.18,8.46,0.21,-0.06,0.40
4737,-4.33,-1.07,9.23,0.21,-0.06,0.40
4741,-4.33,-1.07,9.23,0.20,0.02,0.36
4746,-4.33,-1.07,9.23,0.19,-0.04,0.36
4752,1.23,-2.80,9.85,0.19,-0.04,0.36
4756,1.23,-2.80,9.85,0.16,-0.20,0.29
4761,1.23,-2.80,9.85,0.16,-0.21,0.22
4767,0.50,-2.14,11.38,0.16,-0.21,0.22
4771,0.50,-2.14,11.38,0.18,-0.10,0.19
4776,0.50,-2.14,11.38,0.17,-0.01,0.19
4781,-1.00,-1.11,9.12,0.17,-0.01,0.19
4787,-1.88,-0.92,8.35,0.17,-0.01,0.19
4791,-1.88,-0.92,8.35,0.14,0.12,0.00
4796,-1.88,-0.92,8.35,0.13,0.10,-0.04
4802,-1.84,0.57,4.90,0.13,0.10,-0.04
4806,-1.84,0.57,4.90,0.06,-0.03,-0.04
4811,-1.84,0.57,4.90,0.04,-0.14,-0.05
4816,-1.84,0.57,4.90,0.03,-0.24,-0.09
4822,3.71,-0.15,13.29,0.03,-0.24,-0.09
4826,3.71,-0.15,13.29,0.05,-0.34,-0.08
4831,3.71,-0.15,13.29,0.08,-0.30,-0.06
4836,3.71,-0.15,13.29,0.09,-0.18,-0.08
4843,1.19,0.69,12.83,0.09,-0.18,-0.08
4846,1.19,0.69,12.83,0.11,0.14,-0.15
4851,-1.19,2.68,7.51,0.11,0.14,-0.15
4858,-1.42,2.41,6.44,0.11,0.14,-0.15
4861,-1.42,2.41,6.44,0.01,0.31,-0.12
4866,-1.42,2.41,6.44,-0.04,0.21,-0.13
4872,-0.34,3.29,8.12,-0.04,0.21,-0.13
4876,-0.34,3.29,8.12,-0.12,-0.03,-0.27
4881,-0.34,3.29,8.12,-0.09,-0.11,-0.29
4886,-0.23,0.57,11.45,-0.09,-0.11,-0.29
4892,0.23,0.88,11.22,-0.09,-0.11,-0.29
4896,0.23,0.88,11.22,-0.01,-0.12,-0.08
4901,0.23,0.88,11.22,-0.02,-0.09,-0.05
4907,0.92,2.61,9.50,-0.02,-0.09,-0.05
4911,0.92,2.61,9.50,-0.05,-0.04,-0.13
4916,0.92,2.61,9.50,-0.07,-0.01,-0.15
4922,-1.42,0.34,8.12,-0.07,-0.01,-0.15
4926,-1.42,0.34,8.12,-0.09,0.03,-0.12
4931,-1.42,0.34,8.12,-0.10,0.03,-0.13
4936,-1.42,0.34,8.12,-0.12,0.02,-0.19
4942,-1.07,0.11,9.73,-0.12,0.02,-0.19
4946,-1.07,0.11,9.73,-0.12,-0.00,-0.32
4951,-1.07,0.11,9.73,-0.10,0.01,-0.31
4956,-1.07,0.11,9.73,-0.10,-0.00,-0.27
4962,-0.77,-1.42,9.61,-0.10,-0.00,-0.27
4966,-0.77,-1.42,9.61,-0.09,-0.03,-0.28
4971,-0.77,-1.42,9.61,-0.08,-0.02,-0.34
4977,-1.91,-1.46,9.46,-0.08,-0.02,-0.34
4981,-1.91,-1.46,9.46,-0.06,0.07,-0.35
4986,-1.91,-1.46,9.46,-0.04,0.10,-0.31
4991,-0.73,-0.84,9.50,-0.04,0.10,-0.31
4997,-1.23,-0.11,9.89,-0.04,0.10,-0.31
5001,-1.23,-0.11,9.89,-0.03,0.11,-0.33
4907,0.92,2.61,9.50,-0.02,-0.09,-0.05
4911,0.92,2.61,9.50,-0.05,-0.04,-0.13
