timestamp,accX,accY,accZ,gyroX,gyroY,gyroZ
Left
6,-1.07,1.07,6.47,-0.17,-0.17,-0.08
20,-0.69,0.19,9.30,-0.17,-0.17,-0.08
21,0.54,-0.15,10.19,-0.17,-0.17,-0.08
24,0.54,-0.15,10.19,0.02,0.10,0.12
25,-0.54,-0.34,9.16,0.02,0.10,0.12
30,-0.54,-0.34,9.16,0.02,0.07,0.10
36,-0.30,-0.46,9.46,0.02,0.07,0.10
42,0.77,0.11,9.61,0.02,0.07,0.10
46,0.92,0.96,11.03,0.02,0.07,0.10
51,0.92,1.80,11.30,0.02,0.07,0.10
57,1.49,1.23,11.88,0.02,0.07,0.10
61,1.49,1.23,11.88,-0.10,0.08,0.00
66,0.19,1.00,10.07,-0.10,0.08,0.00
72,-0.46,1.15,8.77,-0.10,0.08,0.00
76,-0.46,1.15,8.77,-0.08,0.15,0.00
81,-1.46,-0.11,8.24,-0.08,0.15,0.00
86,-1.49,-0.19,8.31,-0.08,0.15,0.00
91,-1.49,-0.19,8.31,-0.02,0.06,0.01
96,-1.49,-0.19,8.31,-0.02,0.03,0.01
101,-0.65,0.92,9.61,-0.02,0.03,0.01
107,-1.19,1.11,9.84,-0.02,0.03,0.01
111,-1.19,1.11,9.84,-0.05,0.02,0.00
116,-1.46,1.30,9.20,-0.05,0.02,0.00
122,-2.45,1.38,8.54,-0.05,0.02,0.00
126,-2.45,1.38,8.54,-0.07,0.09,-0.06
131,-2.45,1.38,8.54,-0.08,0.08,-0.10
136,-0.19,-0.50,8.70,-0.08,0.08,-0.10
142,0.50,-0.73,9.20,-0.08,0.08,-0.10
146,0.50,-0.73,9.20,-0.10,-0.07,-0.12
151,0.50,-0.73,9.20,-0.09,-0.06,-0.11
157,-1.23,-0.04,10.27,-0.09,-0.06,-0.11
161,-1.23,-0.04,10.27,-0.08,0.08,-0.11
166,-1.23,-0.04,10.27,-0.06,0.14,-0.12
171,-2.41,-0.23,8.85,-0.06,0.14,-0.12
177,-2.30,-0.42,9.00,-0.06,0.14,-0.12
181,-2.30,-0.42,9.00,-0.03,0.09,-0.08
186,-1.99,-0.57,7.32,-0.03,0.09,-0.08
192,-2.84,0.19,7.27,-0.03,0.09,-0.08
196,-2.84,0.19,7.27,0.01,-0.01,-0.07
201,-1.99,0.77,7.93,0.01,-0.01,-0.07
207,-2.03,0.50,8.58,0.01,-0.01,-0.07
211,-2.03,0.50,8.58,-0.03,-0.04,-0.12
216,-2.03,0.50,8.58,-0.05,-0.06,-0.12
221,0.00,0.38,11.11,-0.05,-0.06,-0.12
227,-0.04,0.69,12.18,-0.05,-0.06,-0.12
231,-0.04,0.69,12.18,-0.07,0.01,-0.12
236,-0.77,-0.27,9.54,-0.07,0.01,-0.12
242,-0.80,0.00,8.73,-0.07,0.01,-0.12
246,-0.80,0.00,8.73,0.04,0.10,-0.04
251,-0.80,0.00,8.73,0.05,0.08,-0.02
256,-0.80,0.50,9.23,0.05,0.08,-0.02
262,-0.23,0.65,9.16,0.05,0.08,-0.02
266,-0.23,0.65,9.16,0.03,-0.05,-0.03
271,-0.23,0.65,9.16,0.01,-0.08,-0.02
277,-0.27,0.54,9.58,0.01,-0.08,-0.02
281,-0.27,0.54,9.58,0.01,-0.03,-0.06
286,-0.27,0.54,9.58,0.02,0.02,-0.08
291,-0.27,0.54,9.58,0.03,0.06,-0.11
297,-2.30,1.57,8.08,0.03,0.06,-0.11
301,-2.30,1.57,8.08,0.01,0.00,-0.16
306,-1.04,1.34,10.57,0.01,0.00,-0.16
311,-0.65,1.42,9.73,0.01,0.00,-0.16
317,-0.88,0.61,9.77,0.01,0.00,-0.16
321,-0.88,0.61,9.77,-0.05,-0.09,-0.22
326,0.57,1.11,10.69,-0.05,-0.09,-0.22
332,-0.27,0.92,10.35,-0.05,-0.09,-0.22
336,-0.27,0.92,10.35,-0.05,0.01,-0.20
341,-1.65,1.49,8.85,-0.05,0.01,-0.20
346,-1.53,0.73,9.00,-0.05,0.01,-0.20
351,-1.53,0.73,9.00,0.01,0.11,-0.23
356,-1.53,0.73,9.00,0.02,0.05,-0.22
362,-2.07,0.08,8.81,0.02,0.05,-0.22
366,-2.07,0.08,8.81,0.02,-0.01,-0.25
371,-2.07,0.08,8.81,0.02,-0.04,-0.27
376,-2.45,0.84,9.04,0.02,-0.04,-0.27
382,-0.50,0.80,9.58,0.02,-0.04,-0.27
386,-0.50,0.80,9.58,-0.02,-0.10,-0.32
391,-0.50,0.80,9.58,-0.04,-0.13,-0.33
397,0.30,-0.23,10.00,-0.04,-0.13,-0.33
401,0.30,-0.23,10.00,-0.01,-0.06,-0.28
406,0.30,-0.23,10.00,0.03,0.02,-0.26
411,0.30,-0.23,10.00,0.05,0.08,-0.23
417,-0.38,-0.42,8.58,0.05,0.08,-0.23
421,-0.38,-0.42,8.58,0.09,0.07,-0.14
426,1.00,-0.57,8.73,0.09,0.07,-0.14
431,-0.11,-0.61,9.30,0.09,0.07,-0.14
437,-0.42,-0.88,9.12,0.09,0.07,-0.14
441,-0.42,-0.88,9.12,0.11,-0.05,-0.02
446,-1.84,-0.27,7.63,0.11,-0.05,-0.02
452,-1.38,-1.19,8.16,0.11,-0.05,-0.02
456,-1.38,-1.19,8.16,0.14,-0.06,0.01
461,-1.38,-1.19,8.16,0.15,-0.10,0.02
467,0.88,-2.68,10.77,0.15,-0.10,0.02
471,0.88,-2.68,10.77,0.12,-0.16,0.05
477,0.88,-2.68,10.77,0.14,-0.16,0.08
482,2.84,-2.76,13.06,0.14,-0.16,0.08
486,2.84,-2.76,13.06,0.21,-0.02,0.24
490,2.84,-2.76,13.06,0.22,0.10,0.30
497,-0.65,-1.72,10.84,0.22,0.10,0.30
502,-1.46,-2.34,8.62,0.22,0.10,0.30
506,-1.46,-2.34,8.62,0.33,0.23,0.33
511,-1.46,-2.34,8.62,0.36,0.15,0.37
517,-1.04,-2.76,8.04,0.36,0.15,0.37
521,-1.04,-2.76,8.04,0.36,-0.11,0.43
526,-1.04,-2.76,8.04,0.34,-0.17,0.43
531,-1.04,-2.76,8.04,0.30,-0.17,0.42
537,-0.34,-0.50,9.89,0.30,-0.17,0.42
541,-0.34,-0.50,9.89,0.26,-0.06,0.39
546,-0.34,-0.50,9.89,0.27,-0.01,0.38
551,-0.34,-0.50,9.89,0.27,0.01,0.39
557,-1.72,-1.19,8.85,0.27,0.01,0.39
561,-1.72,-1.19,8.85,0.31,-0.01,0.44
566,-1.72,-1.19,8.85,0.33,-0.04,0.49
572,-0.57,-1.42,10.15,0.33,-0.04,0.49
576,-0.57,-1.42,10.15,0.33,-0.06,0.53
581,-0.57,-1.42,10.15,0.33,-0.05,0.54
587,-0.46,-0.04,9.30,0.33,-0.05,0.54
591,-0.46,-0.04,9.30,0.33,-0.04,0.62
596,-0.46,-0.04,9.30,0.33,-0.04,0.64
601,-1.95,0.27,7.59,0.33,-0.04,0.64
607,-1.19,-0.30,8.46,0.33,-0.04,0.64
611,-1.19,-0.30,8.46,0.29,-0.08,0.60
616,-1.19,-0.30,8.46,0.29,-0.13,0.64
622,1.99,-1.38,11.80,0.29,-0.13,0.64
626,1.99,-1.38,11.80,0.25,-0.12,0.70
631,1.99,-1.38,11.80,0.26,-0.06,0.73
638,-0.80,-0.15,13.37,0.26,-0.06,0.73
641,-0.80,-0.15,13.37,0.28,0.16,0.79
646,-0.80,-0.15,13.37,0.28,0.21,0.78
650,-0.80,-0.15,13.37,0.33,0.24,0.80
655,-0.69,-1.07,10.07,0.33,0.24,0.80
661,-0.69,-1.07,10.07,0.34,0.21,0.84
666,-0.69,-1.07,10.07,0.35,0.17,0.88
673,-3.22,-1.07,7.32,0.35,0.17,0.88
677,-3.60,-0.80,6.02,0.35,0.17,0.88
681,-3.60,-0.80,6.02,0.30,-0.02,0.75
686,-3.60,-0.80,6.02,0.25,-0.10,0.70
692,-1.15,-0.38,11.19,0.25,-0.10,0.70
696,-1.15,-0.38,11.19,0.13,-0.17,0.66
701,-1.15,-0.38,11.19,0.09,-0.15,0.65
706,0.46,0.11,15.36,0.09,-0.15,0.65
712,-0.42,-0.04,13.21,0.09,-0.15,0.65
716,-0.42,-0.04,13.21,0.11,0.19,0.63
721,-0.42,-0.04,13.21,0.17,0.31,0.66
727,-3.03,-0.84,9.31,0.17,0.31,0.66
731,-3.03,-0.84,9.31,0.24,0.41,0.65
736,-3.03,-0.84,9.31,0.25,0.37,0.65
742,-1.68,-2.03,7.66,0.25,0.37,0.65
746,-1.68,-2.03,7.66,0.22,0.16,0.66
751,-1.68,-2.03,7.66,0.19,0.05,0.67
756,-1.68,-2.03,7.66,0.15,-0.03,0.65
762,-1.27,2.07,7.59,0.15,-0.03,0.65
766,-1.27,2.07,7.59,0.06,-0.05,0.54
771,-1.27,2.07,7.59,0.03,-0.01,0.49
777,-0.96,0.27,10.77,0.03,-0.01,0.49
781,-0.96,0.27,10.77,-0.01,0.01,0.40
786,-0.96,0.27,10.77,-0.01,0.04,0.41
791,-0.96,0.27,10.77,-0.00,0.04,0.43
797,0.30,-0.77,11.60,-0.00,0.04,0.43
801,0.30,-0.77,11.60,0.01,0.12,0.45
806,0.30,-0.77,11.60,0.03,0.20,0.46
811,0.30,-0.77,11.60,0.04,0.27,0.45
817,-1.91,0.00,10.84,0.04,0.27,0.45
821,-1.91,0.00,10.84,0.05,0.33,0.43
826,-1.91,0.00,10.84,0.04,0.31,0.45
833,-2.61,-1.15,10.88,0.04,0.31,0.45
836,-2.61,-1.15,10.88,0.04,0.22,0.47
841,-2.61,-1.15,10.88,0.05,0.19,0.43
847,-5.05,-1.04,9.77,0.05,0.19,0.43
851,-5.05,-1.04,9.77,0.05,0.19,0.38
856,-5.05,-1.04,9.77,0.06,0.15,0.33
861,-4.60,-0.96,10.34,0.06,0.15,0.33
867,-3.79,-1.53,9.80,0.06,0.15,0.33
871,-3.79,-1.53,9.80,0.04,0.15,0.25
876,-3.79,-1.53,9.80,0.07,0.17,0.20
882,-3.75,-0.30,8.31,0.07,0.17,0.20
886,-3.75,-0.30,8.31,0.05,0.16,0.16
891,-3.75,-0.30,8.31,0.05,0.11,0.13
896,-1.53,-1.04,7.93,0.05,0.11,0.13
903,-0.77,-0.23,7.66,0.05,0.11,0.13
906,-0.77,-0.23,7.66,0.05,0.01,0.12
911,-0.77,-0.23,7.66,0.04,0.03,0.12
917,-0.61,-0.54,8.50,0.04,0.03,0.12
921,-0.61,-0.54,8.50,0.03,0.06,0.08
926,-0.61,-0.54,8.50,0.04,0.08,0.09
931,-0.61,-0.54,8.50,0.05,0.08,0.13
938,0.38,-1.80,11.92,0.05,0.08,0.13
941,0.38,-1.80,11.92,0.08,0.03,0.20
946,1.65,-0.27,11.22,0.08,0.03,0.20
952,1.65,-0.27,11.22,0.10,0.02,0.31
956,1.65,-0.27,11.22,0.12,0.06,0.34
961,1.65,-0.27,11.22,0.11,0.08,0.33
967,0.92,-1.38,8.39,0.11,0.08,0.33
971,0.92,-1.38,8.39,0.18,0.07,0.41
976,0.92,-1.38,8.39,0.19,0.03,0.45
981,1.30,-0.77,9.69,0.19,0.03,0.45
987,1.11,-0.73,10.00,0.19,0.03,0.45
991,1.11,-0.73,10.00,0.16,-0.07,0.53
996,1.11,-0.73,10.00,0.14,-0.04,0.52
1002,1.11,0.15,10.92,0.14,-0.04,0.52
1006,1.11,0.15,10.92,0.12,0.04,0.51
1011,1.11,0.15,10.92,0.12,0.07,0.53
1016,1.11,0.15,10.92,0.12,0.08,0.53
1022,1.11,-2.11,12.52,0.12,0.08,0.53
1026,1.11,-2.11,12.52,0.16,0.07,0.64
1030,1.11,-2.11,12.52,0.17,0.10,0.69
1035,1.11,-2.11,12.52,0.17,0.11,0.70
1041,-2.49,-0.34,9.43,0.17,0.11,0.70
1047,-2.49,-0.34,9.43,0.19,0.17,0.70
1052,-2.49,-0.34,9.43,0.23,0.20,0.68
1056,-2.49,-0.34,9.43,0.25,0.15,0.66
1061,-2.49,-0.34,9.43,0.24,0.07,0.64
1066,-2.49,-0.34,9.43,0.20,-0.04,0.60
1072,0.42,-1.04,6.82,0.20,-0.04,0.60
1076,0.42,-1.04,6.82,0.11,-0.24,0.54
1081,0.42,-1.04,6.82,0.05,-0.27,0.51
1086,1.04,0.77,11.38,0.05,-0.27,0.51
1092,-0.19,0.61,11.72,0.05,-0.27,0.51
1096,-0.19,0.61,11.72,0.01,-0.02,0.45
1101,-0.19,0.61,11.72,0.04,0.11,0.45
1107,-0.57,-1.49,12.68,0.04,0.11,0.45
1111,-0.57,-1.49,12.68,0.11,0.26,0.52
1116,-0.57,-1.49,12.68,0.14,0.28,0.56
1122,-1.07,-0.50,7.55,0.14,0.28,0.56
1126,-1.07,-0.50,7.55,0.22,0.23,0.63
1131,-1.07,-0.50,7.55,0.23,0.19,0.64
1136,-1.07,-0.50,7.55,0.23,0.17,0.60
1142,-5.18,1.91,1.15,0.23,0.17,0.60
1146,-5.18,1.91,1.15,0.16,0.02,0.42
1151,-5.18,1.91,1.15,0.10,-0.11,0.35
1157,1.27,-0.92,12.18,0.10,-0.11,0.35
1161,1.27,-0.92,12.18,-0.08,-0.35,0.28
1166,1.27,-0.92,12.18,-0.16,-0.37,0.28
1171,1.27,-0.92,12.18,-0.13,-0.29,0.31
1177,2.61,0.34,16.78,-0.13,-0.29,0.31
1181,2.61,0.34,16.78,-0.02,0.08,0.42
1186,2.61,0.34,16.78,0.04,0.34,0.45
1192,2.61,0.34,16.78,0.13,0.54,0.44
1196,2.61,0.34,16.78,0.22,0.62,0.45
1201,2.61,0.34,16.78,0.27,0.59,0.49
1206,2.61,0.34,16.78,0.29,0.48,0.56
1212,-2.03,0.77,5.94,0.29,0.48,0.56
1216,-2.03,0.77,5.94,0.19,0.16,0.59
1221,-2.03,0.77,5.94,0.09,0.06,0.49
1227,-2.99,2.87,8.12,0.09,0.06,0.49
1231,-2.99,2.87,8.12,-0.08,-0.05,0.20
1236,-2.99,2.87,8.12,-0.12,-0.07,0.12
1241,-2.99,2.87,8.12,-0.11,-0.10,0.09
1247,-1.34,-1.34,9.92,-0.11,-0.10,0.09
1251,-1.34,-1.34,9.92,-0.06,-0.19,0.10
1256,-1.34,-1.34,9.92,-0.02,-0.20,0.13
1262,-0.30,0.11,12.79,-0.02,-0.20,0.13
1266,-0.30,0.11,12.79,-0.01,-0.05,0.18
1271,-0.30,0.11,12.79,0.03,0.05,0.19
1277,-0.04,1.07,10.80,0.03,0.05,0.19
1281,-0.04,1.07,10.80,0.06,0.20,0.29
1286,-0.04,1.07,10.80,0.08,0.20,0.32
1291,-0.04,1.07,10.80,0.08,0.19,0.36
1297,-1.30,1.07,7.73,0.08,0.19,0.36
1301,-1.30,1.07,7.73,0.05,0.13,0.34
1306,-1.30,1.07,7.73,0.06,0.07,0.32
1312,-1.30,1.07,7.73,0.04,0.04,0.31
1316,-1.30,1.07,7.73,0.02,-0.02,0.30
1321,-1.30,1.07,7.73,0.03,-0.06,0.32
1326,-1.30,1.07,7.73,0.02,-0.04,0.34
1332,-1.91,0.57,8.92,0.02,-0.04,0.34
1336,-1.91,0.57,8.92,0.02,0.00,0.28
1341,-1.91,0.57,8.92,0.03,0.03,0.26
1347,-1.91,0.57,8.92,0.02,0.01,0.23
1351,-1.91,0.57,8.92,0.03,-0.02,0.21
1356,-1.91,0.57,8.92,0.02,-0.07,0.25
1361,-1.91,0.57,8.92,0.02,-0.10,0.30
1367,-0.04,-0.84,10.07,0.02,-0.10,0.30
1371,-0.04,-0.84,10.07,0.05,-0.04,0.35
1376,-0.04,-0.84,10.07,0.06,0.02,0.37
1381,-0.04,-0.84,10.07,0.08,0.07,0.41
1386,-0.04,-0.84,10.07,0.10,0.06,0.43
1391,-0.04,-0.84,10.07,0.13,0.05,0.48
1396,-0.04,-0.84,10.07,0.14,0.09,0.54
1402,-0.77,-1.68,9.61,0.14,0.09,0.54
1406,-0.77,-1.68,9.61,0.18,0.14,0.54
1411,-0.77,-1.68,9.61,0.18,0.19,0.59
1417,-0.77,-1.68,9.61,0.19,0.19,0.60
1421,-0.77,-1.68,9.61,0.15,0.09,0.58
1426,-0.77,-1.68,9.61,0.14,-0.05,0.57
1431,-0.77,-1.68,9.61,0.15,-0.16,0.63
1437,3.75,-2.03,8.54,0.15,-0.16,0.63
1441,3.75,-2.03,8.54,0.19,-0.25,0.78
1446,3.75,-2.03,8.54,0.19,-0.21,0.83
1450,3.75,-2.03,8.54,0.21,-0.12,0.88
1455,1.91,-0.46,11.00,0.21,-0.12,0.88
1461,1.91,-0.46,11.00,0.20,-0.03,0.91
1467,1.91,-0.46,11.00,0.22,0.12,1.01
1472,-0.77,-3.71,11.07,0.22,0.12,1.01
1476,-0.77,-3.71,11.07,0.28,0.13,1.12
1481,-0.77,-3.71,11.07,0.30,0.08,1.16
1487,0.30,-1.38,7.89,0.30,0.08,1.16
1491,0.30,-1.38,7.89,0.33,-0.05,1.21
1496,0.30,-1.38,7.89,0.30,-0.13,1.23
1501,0.30,-1.38,7.89,0.26,-0.18,1.23
1506,0.30,-1.38,7.89,0.23,-0.15,1.25
1511,0.30,-1.38,7.89,0.22,-0.07,1.27
1516,0.30,-1.38,7.89,0.21,0.03,1.28
1521,-1.42,-1.00,9.61,0.21,0.03,1.28
1527,-1.42,-1.00,9.61,0.23,0.18,1.28
1531,-1.42,-1.00,9.61,0.24,0.17,1.28
1537,-1.42,-1.00,9.61,0.23,0.11,1.25
1541,-1.42,-1.00,9.61,0.21,0.04,1.25
1546,-1.42,-1.00,9.61,0.21,0.03,1.26
1551,-1.42,-1.00,9.61,0.17,0.04,1.26
1557,-0.92,2.11,10.53,0.17,0.04,1.26
1561,-0.92,2.11,10.53,0.11,0.19,1.18
1566,-0.92,2.11,10.53,0.09,0.23,1.12
1572,-0.92,2.11,10.53,0.07,0.21,1.08
1576,-0.92,2.11,10.53,0.05,0.19,1.06
1581,-0.92,2.11,10.53,0.04,0.17,1.02
1586,-0.92,2.11,10.53,0.03,0.14,0.96
1592,-0.92,2.11,10.53,-0.01,0.12,0.90
1596,-0.92,2.11,10.53,-0.05,0.12,0.83
1601,-0.92,2.11,10.53,-0.11,0.11,0.75
1606,-0.92,2.11,10.53,-0.16,0.10,0.69
1610,-0.92,2.11,10.53,-0.21,0.12,0.64
1615,1.57,2.18,13.52,-0.21,0.12,0.64
1621,1.57,2.18,13.52,-0.23,0.19,0.60
1627,-1.68,2.80,12.26,-0.23,0.19,0.60
1631,-1.68,2.80,12.26,-0.22,0.38,0.56
1636,-1.68,2.80,12.26,-0.18,0.42,0.50
1641,-1.68,2.80,12.26,-0.18,0.41,0.48
1646,-1.68,2.80,12.26,-0.18,0.42,0.48
1651,-1.68,2.80,12.26,-0.21,0.38,0.45
1656,-1.68,2.80,12.26,-0.24,0.34,0.43
1662,-2.49,2.84,9.89,-0.24,0.34,0.43
1666,-2.49,2.84,9.89,-0.29,0.28,0.35
1671,-2.49,2.84,9.89,-0.31,0.23,0.31
1676,-2.49,2.84,9.89,-0.34,0.20,0.27
1681,-2.49,2.84,9.89,-0.33,0.15,0.23
1686,-2.49,2.84,9.89,-0.34,0.13,0.18
1691,-2.49,2.84,9.89,-0.37,0.14,0.14
1697,0.00,2.03,9.20,-0.37,0.14,0.14
1701,0.00,2.03,9.20,-0.40,0.17,0.03
1706,0.00,2.03,9.20,-0.40,0.23,0.00
1711,0.00,2.03,9.20,-0.38,0.24,-0.02
1716,0.00,2.03,9.20,-0.40,0.26,-0.05
1721,0.00,2.03,9.20,-0.40,0.25,-0.07
1726,0.00,2.03,9.20,-0.40,0.20,-0.12
1732,-3.14,1.68,7.66,-0.40,0.20,-0.12
1737,-3.14,1.68,7.66,-0.42,0.17,-0.18
1741,-3.14,1.68,7.66,-0.43,0.13,-0.24
1746,0.69,-0.80,11.26,-0.43,0.13,-0.24
1751,0.69,-0.80,11.26,-0.44,0.10,-0.22
1756,0.69,-0.80,11.26,-0.42,0.12,-0.20
1761,0.69,-0.80,11.26,-0.37,0.20,-0.18
1766,0.69,-0.80,11.26,-0.34,0.29,-0.18
1771,0.69,-0.80,11.26,-0.29,0.34,-0.20
1776,0.69,-0.80,11.26,-0.27,0.35,-0.20
1782,-2.64,-1.61,8.81,-0.27,0.35,-0.20
1786,-2.64,-1.61,8.81,-0.25,0.20,-0.20
1791,-2.64,-1.61,8.81,-0.27,0.10,-0.17
1796,-2.64,-1.61,8.81,-0.26,0.02,-0.11
1801,-2.64,-1.61,8.81,-0.24,-0.03,-0.07
1806,-2.64,-1.61,8.81,-0.24,-0.04,-0.05
1811,-2.64,-1.61,8.81,-0.23,-0.01,-0.04
1817,-0.92,-1.49,9.04,-0.23,-0.01,-0.04
1821,-0.92,-1.49,9.04,-0.16,0.09,0.02
1826,-0.92,-1.49,9.04,-0.12,0.15,0.06
1831,-0.92,-1.49,9.04,-0.08,0.18,0.10
1836,-0.92,-1.49,9.04,-0.05,0.19,0.13
1841,-0.92,-1.49,9.04,-0.03,0.17,0.15
1846,-0.92,-1.49,9.04,-0.03,0.11,0.16
1852,0.50,-3.29,10.15,-0.03,0.11,0.16
1856,0.50,-3.29,10.15,-0.06,-0.07,0.23
1861,0.50,-3.29,10.15,-0.07,-0.11,0.30
1866,0.50,-3.29,10.15,-0.08,-0.08,0.35
1871,0.50,-3.29,10.15,-0.03,-0.01,0.41
1876,0.50,-3.29,10.15,0.04,0.10,0.47
1881,0.50,-3.29,10.15,0.11,0.23,0.54
1887,-0.65,-3.79,10.46,0.11,0.23,0.54
1891,-0.65,-3.79,10.46,0.24,0.32,0.64
1896,-0.65,-3.79,10.46,0.29,0.31,0.72
1902,-0.65,-3.79,10.46,0.31,0.24,0.77
1906,-0.65,-3.79,10.46,0.30,0.13,0.79
1911,-0.65,-3.79,10.46,0.27,0.01,0.77
1916,-0.65,-3.79,10.46,0.23,-0.10,0.73
1922,-0.73,-0.27,6.79,0.23,-0.10,0.73
1926,-0.73,-0.27,6.79,0.13,-0.22,0.67
1931,-0.73,-0.27,6.79,0.10,-0.24,0.64
1937,-0.73,-0.27,6.79,0.11,-0.22,0.62
1941,-0.73,-0.27,6.79,0.10,-0.18,0.62
1946,-0.73,-0.27,6.79,0.12,-0.13,0.64
1951,-0.73,-0.27,6.79,0.12,-0.10,0.66
1956,-0.73,-0.27,6.79,0.14,-0.06,0.72
1961,-0.73,-0.27,6.79,0.14,-0.01,0.76
1966,-0.73,-0.27,6.79,0.14,0.04,0.80
1972,-0.73,-0.27,6.79,0.17,0.09,0.85
1976,-0.73,-0.27,6.79,0.20,0.14,0.93
1981,-0.73,-0.27,6.79,0.25,0.19,1.00
1986,-0.73,-0.27,6.79,0.29,0.23,1.02
1992,-0.69,-0.04,10.80,0.29,0.23,1.02
1996,-0.69,-0.04,10.80,0.25,0.22,0.99
2001,-0.69,-0.04,10.80,0.20,0.16,0.99
2006,0.69,-1.38,9.65,0.20,0.16,0.99
2010,0.69,-1.38,9.65,0.17,-0.01,1.00
2015,2.61,-1.80,9.27,0.17,-0.01,1.00
2021,2.61,-1.80,9.27,0.16,-0.09,1.05
2027,0.46,-0.92,11.15,0.16,-0.09,1.05
2031,0.46,-0.92,11.15,0.13,0.00,1.05
2036,0.46,-0.92,11.15,0.12,0.05,1.03
2042,-0.88,-0.42,14.52,0.12,0.05,1.03
2046,-0.88,-0.42,14.52,0.15,0.23,1.08
2051,-0.88,-0.42,14.52,0.16,0.27,1.11
2056,-0.88,-0.42,14.52,0.19,0.27,1.12
2062,-0.08,-3.33,10.73,0.19,0.27,1.12
2066,-0.08,-3.33,10.73,0.25,0.22,1.15
2071,-0.08,-3.33,10.73,0.27,0.19,1.16
2077,0.61,-1.46,8.96,0.27,0.19,1.16
2081,0.61,-1.46,8.96,0.24,0.12,1.12
2086,0.61,-1.46,8.96,0.21,0.14,1.08
2091,0.61,-1.46,8.96,0.15,0.19,1.01
2097,-5.02,2.30,8.85,0.15,0.19,1.01
2101,-5.02,2.30,8.85,0.05,0.22,0.79
2106,-5.02,2.30,8.85,0.02,0.15,0.71
2112,-1.04,0.04,7.73,0.02,0.15,0.71
2116,-1.04,0.04,7.73,-0.03,0.03,0.70
2121,-1.04,0.04,7.73,-0.05,0.01,0.66
2126,-1.04,0.04,7.73,-0.07,0.02,0.61
2132,-1.15,1.07,8.01,-0.07,0.02,0.61
2136,-1.15,1.07,8.01,-0.02,0.14,0.58
2141,-1.15,1.07,8.01,-0.00,0.21,0.57
2147,-4.06,2.41,7.97,-0.00,0.21,0.57
2151,-4.06,2.41,7.97,-0.03,0.30,0.48
2156,-4.06,2.41,7.97,-0.04,0.28,0.45
2161,-4.06,2.41,7.97,-0.08,0.23,0.43
2167,-1.72,1.19,9.46,-0.08,0.23,0.43
2171,-1.72,1.19,9.46,-0.10,0.16,0.42
2176,-1.72,1.19,9.46,-0.13,0.15,0.37
2182,-3.45,2.99,8.39,-0.13,0.15,0.37
2186,-3.45,2.99,8.39,-0.19,0.11,0.20
2191,-3.45,2.99,8.39,-0.21,0.07,0.18
2197,-3.45,2.99,8.39,-0.21,0.05,0.22
2201,-3.45,2.99,8.39,-0.21,0.05,0.24
2206,-3.45,2.99,8.39,-0.20,0.04,0.26
2211,-3.45,2.99,8.39,-0.18,0.06,0.33
2217,3.29,-0.34,13.14,-0.18,0.06,0.33
2221,3.29,-0.34,13.14,-0.17,0.16,0.46
2226,3.29,-0.34,13.14,-0.17,0.25,0.50
2232,3.29,-0.34,13.14,-0.13,0.38,0.55
2236,3.29,-0.34,13.14,-0.10,0.47,0.59
2241,3.29,-0.34,13.14,-0.04,0.51,0.62
2246,3.29,-0.34,13.14,-0.02,0.55,0.67
2252,-2.03,-0.88,12.22,-0.02,0.55,0.67
2256,-2.03,-0.88,12.22,-0.04,0.41,0.69
2261,-2.03,-0.88,12.22,-0.07,0.30,0.68
2266,-2.03,-0.88,12.22,-0.09,0.12,0.68
2270,-2.03,-0.88,12.22,-0.10,-0.03,0.69
2275,4.37,0.34,8.42,-0.10,-0.03,0.69
2282,4.37,0.34,8.42,-0.17,-0.14,0.71
2287,3.64,0.42,11.84,-0.17,-0.14,0.71
2291,3.64,0.42,11.84,-0.23,-0.09,0.71
2296,3.64,0.42,11.84,-0.23,0.06,0.73
2302,-1.84,0.50,13.75,-0.23,0.06,0.73
2306,-1.84,0.50,13.75,-0.21,0.38,0.76
2311,-1.84,0.50,13.75,-0.16,0.46,0.73
2316,-1.84,0.50,13.75,-0.15,0.45,0.74
2322,0.73,-0.04,10.03,-0.15,0.45,0.74
2326,0.73,-0.04,10.03,-0.14,0.28,0.81
2331,0.73,-0.04,10.03,-0.15,0.19,0.82
2337,0.15,5.09,5.09,-0.15,0.19,0.82
2341,0.15,5.09,5.09,-0.26,0.14,0.76
2346,0.15,5.09,5.09,-0.32,0.17,0.70
2351,0.15,5.09,5.09,-0.38,0.17,0.61
2357,-1.95,0.80,6.44,-0.38,0.17,0.61
2361,-1.95,0.80,6.44,-0.42,0.16,0.52
2366,-1.95,0.80,6.44,-0.39,0.11,0.52
2372,0.96,0.19,8.88,-0.39,0.11,0.52
2376,0.96,0.19,8.88,-0.41,-0.02,0.54
2381,0.96,0.19,8.88,-0.46,-0.07,0.52
2386,0.96,0.19,8.88,-0.51,-0.08,0.51
2392,6.82,0.11,18.70,-0.51,-0.08,0.51
2396,6.82,0.11,18.70,-0.63,0.12,0.56
2401,6.82,0.11,18.70,-0.57,0.31,0.59
2407,-0.27,-8.96,11.76,-0.57,0.31,0.59
2411,-0.27,-8.96,11.76,-0.30,0.65,0.69
2416,-0.27,-8.96,11.76,-0.12,0.75,0.80
2421,-0.27,-8.96,11.76,0.01,0.80,0.92
2427,-2.53,3.75,3.10,0.01,0.80,0.92
2431,-2.53,3.75,3.10,-0.10,0.72,0.73
2436,-2.53,3.75,3.10,-0.18,0.67,0.48
2442,-8.89,8.43,-7.66,-0.18,0.67,0.48
2446,-8.89,8.43,-7.66,-0.38,0.45,0.09
2451,-8.89,8.43,-7.66,-0.47,0.31,-0.06
2457,-8.89,8.43,-7.66,-0.67,0.10,-0.25
2461,-8.89,8.43,-7.66,-0.91,-0.24,-0.52
2466,-8.89,8.43,-7.66,-1.09,-0.59,-0.79
2471,-8.89,8.43,-7.66,-1.17,-0.88,-0.93
2477,4.98,0.73,24.28,-1.17,-0.88,-0.93
2481,4.98,0.73,24.28,-1.07,-0.84,-0.73
2486,4.98,0.73,24.28,-0.93,-0.56,-0.58
2492,4.98,0.73,24.28,-0.74,-0.20,-0.46
2496,4.98,0.73,24.28,-0.52,0.16,-0.38
2501,4.98,0.73,24.28,-0.32,0.44,-0.27
2506,4.98,0.73,24.28,-0.21,0.61,-0.13
2512,5.71,5.21,8.24,-0.21,0.61,-0.13
2516,5.71,5.21,8.24,-0.32,0.66,-0.01
2521,5.71,5.21,8.24,-0.48,0.68,-0.12
2527,5.71,5.21,8.24,-0.71,0.71,-0.32
2531,5.71,5.21,8.24,-0.82,0.72,-0.58
2536,5.71,5.21,8.24,-0.90,0.71,-0.78
2541,5.71,5.21,8.24,-0.98,0.63,-0.92
2547,4.64,0.77,9.96,-0.98,0.63,-0.92
2551,4.64,0.77,9.96,-0.97,0.18,-0.94
2556,4.64,0.77,9.96,-0.95,-0.06,-0.91
2562,5.21,1.34,9.23,-0.95,-0.06,-0.91
2566,5.21,1.34,9.23,-0.81,-0.29,-0.90
2570,5.21,1.34,9.23,-0.75,-0.24,-0.90
2576,5.21,1.34,9.23,-0.65,-0.19,-0.88
2581,0.15,0.08,8.01,-0.65,-0.19,-0.88
2587,0.15,0.08,8.01,-0.59,-0.16,-0.84
2591,0.15,0.08,8.01,-0.62,-0.16,-0.87
2596,0.15,0.08,8.01,-0.64,-0.15,-0.92
2601,0.15,0.08,8.01,-0.70,-0.13,-1.01
2606,0.15,0.08,8.01,-0.74,-0.11,-1.12
2611,0.15,0.08,8.01,-0.74,-0.06,-1.22
2617,-4.25,1.27,4.94,-0.74,-0.06,-1.22
2621,-4.25,1.27,4.94,-0.67,0.00,-1.31
2627,-4.25,1.27,4.94,-0.62,-0.02,-1.29
2632,-1.27,-0.23,7.55,-0.62,-0.02,-1.29
2636,-1.27,-0.23,7.55,-0.55,-0.09,-1.22
2641,-1.27,-0.23,7.55,-0.52,-0.11,-1.20
2646,-1.27,-0.23,7.55,-0.47,-0.09,-1.18
2652,-3.79,-0.08,7.05,-0.47,-0.09,-1.18
2656,-3.79,-0.08,7.05,-0.35,0.05,-1.06
2661,-3.79,-0.08,7.05,-0.29,0.16,-1.00
2667,-8.27,2.61,10.84,-0.29,0.16,-1.00
2671,-8.27,2.61,10.84,-0.28,0.29,-0.90
2676,-8.27,2.61,10.84,-0.30,0.25,-0.88
2682,-8.27,2.61,10.84,-0.34,0.15,-0.85
2686,-8.27,2.61,10.84,-0.35,0.02,-0.81
2691,-8.27,2.61,10.84,-0.34,-0.12,-0.72
2696,-8.27,2.61,10.84,-0.31,-0.24,-0.61
2702,3.45,-0.23,9.31,-0.31,-0.24,-0.61
2706,3.45,-0.23,9.31,-0.26,-0.23,-0.44
2711,3.45,-0.23,9.31,-0.18,-0.13,-0.35
2717,-1.04,0.96,10.35,-0.18,-0.13,-0.35
2721,-1.04,0.96,10.35,-0.13,0.23,-0.14
2726,-1.04,0.96,10.35,-0.10,0.42,-0.07
2731,-1.04,0.96,10.35,-0.09,0.49,-0.03
2737,-3.33,-0.04,10.69,-0.09,0.49,-0.03
2741,-3.33,-0.04,10.69,-0.08,0.33,0.04
2746,-3.33,-0.04,10.69,-0.08,0.14,0.08
2752,-3.33,-0.04,10.69,-0.08,-0.07,0.15
2756,-3.33,-0.04,10.69,-0.06,-0.23,0.18
2761,-3.33,-0.04,10.69,-0.08,-0.38,0.20
2766,-3.33,-0.04,10.69,-0.12,-0.46,0.20
2772,-1.30,-2.64,8.54,-0.12,-0.46,0.20
2776,-1.30,-2.64,8.54,-0.11,-0.55,0.19
2781,-1.30,-2.64,8.54,-0.08,-0.51,0.18
2786,-1.11,-3.64,11.96,-0.08,-0.51,0.18
2792,-1.84,-3.45,12.03,-0.08,-0.51,0.18
2796,-1.84,-3.45,12.03,0.01,-0.21,0.10
2801,-1.84,-3.45,12.03,0.00,-0.09,0.03
2807,-1.46,-3.07,10.11,0.00,-0.09,0.03
2811,-1.46,-3.07,10.11,0.03,0.02,-0.03
2816,-1.46,-3.07,10.11,0.01,0.02,-0.04
2822,0.38,-4.21,10.11,0.01,0.02,-0.04
2826,0.38,-4.21,10.11,0.04,-0.05,-0.11
2831,0.38,-4.21,10.11,0.06,-0.03,-0.16
2836,0.38,-4.21,10.11,0.07,0.05,-0.19
2841,-0.96,-2.99,10.04,0.07,0.05,-0.19
2846,-0.96,-2.99,10.04,0.12,0.19,-0.22
2851,-0.96,-2.99,10.04,0.13,0.24,-0.25
2857,-2.38,-1.76,8.73,0.13,0.24,-0.25
2861,-2.38,-1.76,8.73,0.14,0.23,-0.28
2866,-2.38,-1.76,8.73,0.12,0.19,-0.30
2871,-2.38,-1.76,8.73,0.12,0.14,-0.32
2877,-1.53,-1.19,8.93,0.12,0.14,-0.32
2881,-1.53,-1.19,8.93,0.12,0.01,-0.34
2886,-1.53,-1.19,8.93,0.12,-0.06,-0.31
2892,-1.53,-1.19,8.93,0.14,-0.12,-0.26
2896,-1.53,-1.19,8.93,0.14,-0.11,-0.23
2901,-1.53,-1.19,8.93,0.16,-0.09,-0.17
2906,-0.38,-1.15,12.98,0.16,-0.09,-0.17
2912,-2.11,-0.88,11.99,0.16,-0.09,-0.17
2916,-2.11,-0.88,11.99,0.23,0.27,-0.00
2921,-2.11,-0.88,11.99,0.30,0.32,0.03
2927,-2.18,-1.27,9.04,0.30,0.32,0.03
2931,-2.18,-1.27,9.04,0.36,0.29,0.15
2936,-2.18,-1.27,9.04,0.38,0.22,0.22
2941,-6.59,1.99,5.94,0.38,0.22,0.22
2946,-6.59,1.99,5.94,0.39,0.18,0.25
2951,-6.59,1.99,5.94,0.38,0.19,0.25
2956,-6.59,1.99,5.94,0.38,0.16,0.25
2961,-6.21,0.00,6.79,0.38,0.16,0.25
2966,-6.21,0.00,6.79,0.32,-0.10,0.26
2971,-6.21,0.00,6.79,0.32,-0.29,0.29
2977,2.64,-0.61,7.78,0.32,-0.29,0.29
2981,2.64,-0.61,7.78,0.32,-0.56,0.41
2986,2.64,-0.61,7.78,0.33,-0.58,0.45
2991,2.64,-0.61,7.78,0.36,-0.52,0.50
2997,-1.49,-3.79,9.96,0.36,-0.52,0.50
3001,-1.49,-3.79,9.96,0.41,-0.23,0.55
3006,-1.49,-3.79,9.96,0.43,-0.08,0.52
3012,-1.49,-3.79,9.96,0.45,0.04,0.50
3016,-1.49,-3.79,9.96,0.46,0.12,0.51
3021,-1.49,-3.79,9.96,0.46,0.14,0.53
3026,-1.49,-3.79,9.96,0.46,0.14,0.52
3032,-1.53,-1.88,8.32,0.46,0.14,0.52
3036,-1.53,-1.88,8.32,0.39,0.05,0.44
3041,-1.53,-1.88,8.32,0.37,-0.03,0.42
3046,1.99,-2.53,13.37,0.37,-0.03,0.42
3051,1.99,-2.53,13.37,0.36,-0.06,0.41
3056,1.99,-2.53,13.37,0.37,-0.00,0.40
3061,1.99,-2.53,13.37,0.39,0.07,0.44
3066,1.99,-2.53,13.37,0.42,0.15,0.47
3071,1.99,-2.53,13.37,0.43,0.20,0.51
3076,1.99,-2.53,13.37,0.41,0.21,0.55
3081,0.96,0.04,7.09,0.41,0.21,0.55
3086,0.96,0.04,7.09,0.38,0.15,0.59
3091,0.96,0.04,7.09,0.35,0.10,0.58
3096,0.96,0.04,7.09,0.34,0.05,0.58
3101,0.96,0.04,7.09,0.34,-0.02,0.58
3106,0.96,0.04,7.09,0.34,-0.10,0.60
3111,0.96,0.04,7.09,0.35,-0.16,0.61
3116,1.65,-2.03,9.69,0.35,-0.16,0.61
3121,1.65,-2.03,9.69,0.35,-0.19,0.65
3126,1.65,-2.03,9.69,0.34,-0.18,0.68
3131,1.65,-2.03,9.69,0.36,-0.14,0.68
3136,1.65,-2.03,9.69,0.37,-0.07,0.68
3141,1.65,-2.03,9.69,0.35,-0.03,0.67
3146,1.65,-2.03,9.69,0.35,-0.04,0.67
3151,1.65,-2.03,9.69,0.36,-0.09,0.69
3156,1.65,-2.03,9.69,0.36,-0.14,0.69
3161,1.65,-2.03,9.69,0.37,-0.18,0.68
3166,2.80,-1.99,8.66,0.37,-0.18,0.68
3171,1.19,-0.54,8.12,0.37,-0.18,0.68
3176,1.34,-0.46,7.01,0.37,-0.18,0.68
3181,1.34,-0.46,7.01,0.33,-0.11,0.68
3186,-3.29,-0.42,8.39,0.33,-0.11,0.68
3191,-3.29,-0.42,8.39,0.25,0.01,0.59
3196,-3.29,-0.42,8.39,0.24,-0.00,0.57
3201,-0.19,-2.11,10.84,0.24,-0.00,0.57
3206,-0.19,-2.11,10.84,0.26,-0.10,0.60
3211,-0.19,-2.11,10.84,0.28,-0.11,0.64
3216,-0.19,-2.11,10.84,0.29,-0.10,0.65
3221,-1.99,0.00,9.16,0.29,-0.10,0.65
3226,-1.99,0.00,9.16,0.33,0.05,0.65
3231,-1.99,0.00,9.16,0.34,0.10,0.68
3236,-5.02,1.27,6.70,0.34,0.10,0.68
3241,-5.02,1.27,6.70,0.34,0.16,0.73
3246,-5.02,1.27,6.70,0.30,0.13,0.73
3251,-5.02,1.27,6.70,0.29,0.08,0.72
3256,-5.02,1.27,6.70,0.26,-0.01,0.71
3261,-5.02,1.27,6.70,0.25,-0.06,0.70
3266,-5.02,1.27,6.70,0.25,-0.04,0.71
3271,-5.02,1.27,6.70,0.24,0.02,0.71
3276,-5.02,1.27,6.70,0.22,0.12,0.71
3281,-5.02,1.27,6.70,0.22,0.16,0.69
3286,-5.02,1.27,6.70,0.19,0.18,0.67
3291,-3.45,-0.15,11.34,0.19,0.18,0.67
3296,-3.45,-0.15,11.34,0.18,0.08,0.69
3301,-3.45,-0.15,11.34,0.19,0.04,0.70
3306,0.04,-0.27,12.18,0.19,0.04,0.70
3311,0.04,-0.27,12.18,0.21,0.03,0.70
3316,0.04,-0.27,12.18,0.22,0.12,0.68
3321,0.04,-0.27,12.18,0.20,0.20,0.65
3326,0.04,-0.27,12.18,0.18,0.26,0.61
3331,0.04,-0.27,12.18,0.19,0.28,0.59
3336,0.04,-0.27,12.18,0.16,0.26,0.58
3341,-5.40,1.88,6.71,0.16,0.26,0.58
3346,-5.40,1.88,6.71,0.06,0.18,0.49
3351,-5.40,1.88,6.71,0.02,0.10,0.43
3356,-5.40,1.88,6.71,-0.02,0.03,0.34
3361,-5.40,1.88,6.71,-0.04,-0.04,0.28
3366,-5.40,1.88,6.71,-0.07,-0.06,0.25
3371,-5.40,1.88,6.71,-0.08,-0.07,0.22
3376,-1.00,0.96,10.65,-0.08,-0.07,0.22
3381,-1.00,0.96,10.65,-0.10,-0.13,0.18
3386,-1.00,0.96,10.65,-0.10,-0.16,0.16
3391,-1.00,0.96,10.65,-0.10,-0.15,0.14
3396,-1.00,0.96,10.65,-0.10,-0.12,0.16
3401,-1.00,0.96,10.65,-0.11,-0.05,0.18
3406,-1.00,0.96,10.65,-0.12,0.05,0.19
3411,-1.00,0.96,10.65,-0.12,0.17,0.18
3416,-1.00,0.96,10.65,-0.14,0.26,0.15
3421,-1.00,0.96,10.65,-0.13,0.29,0.15
3426,-1.00,0.96,10.65,-0.17,0.27,0.15
3431,-0.11,2.30,10.35,-0.17,0.27,0.15
3436,-0.11,2.30,10.35,-0.23,0.04,0.12
3441,-0.11,2.30,10.35,-0.22,-0.08,0.08
3446,-0.11,2.30,10.35,-0.26,-0.16,0.07
3451,-0.11,2.30,10.35,-0.24,-0.14,0.08
3456,-0.11,2.30,10.35,-0.23,-0.09,0.08
3461,-0.11,2.30,10.35,-0.21,-0.03,0.11
3465,-1.00,0.38,9.30,-0.21,-0.03,0.11
3471,-1.00,0.38,9.30,-0.18,0.10,0.16
3476,-1.00,0.38,9.30,-0.17,0.13,0.16
3481,-1.00,0.38,9.30,-0.15,0.10,0.17
3486,-1.00,0.38,9.30,-0.14,0.02,0.17
3491,-1.00,0.38,9.30,-0.12,-0.07,0.17
3496,1.00,-0.96,9.61,-0.12,-0.07,0.17
3501,1.00,-0.96,9.61,-0.13,-0.16,0.21
3506,1.00,-0.96,9.61,-0.10,-0.14,0.25
3511,1.00,-0.96,9.61,-0.10,-0.07,0.28
3516,1.00,-0.96,9.61,-0.06,0.03,0.30
3521,1.00,-0.96,9.61,-0.05,0.13,0.32
3526,1.00,-0.96,9.61,-0.01,0.20,0.36
3531,1.00,-0.96,9.61,0.02,0.21,0.40
3536,1.00,-0.96,9.61,0.04,0.19,0.46
3541,1.00,-0.96,9.61,0.04,0.13,0.49
3546,1.00,-0.96,9.61,0.04,0.04,0.52
3552,1.00,-0.96,9.61,0.04,-0.03,0.55
3556,1.00,-0.96,9.61,0.02,-0.04,0.58
3561,1.27,-0.84,9.46,0.02,-0.04,0.58
3566,1.27,-0.84,9.46,0.04,0.08,0.67
3571,1.27,-0.84,9.46,0.06,0.10,0.72
3575,1.27,-0.84,9.46,0.09,0.15,0.76
3581,1.27,-0.84,9.46,0.08,0.18,0.79
3586,0.23,0.96,7.05,0.08,0.18,0.79
3591,0.23,0.96,7.05,0.09,0.13,0.88
3596,0.23,0.96,7.05,0.09,0.12,0.90
3602,0.23,0.96,7.05,0.05,0.14,0.90
3606,-4.25,1.80,10.07,0.05,0.14,0.90
3610,-4.48,0.73,9.12,0.05,0.14,0.90
3616,-4.48,0.73,9.12,0.00,0.17,0.85
3621,-4.48,0.73,9.12,-0.03,0.15,0.81
3626,-4.48,0.73,9.12,-0.05,0.09,0.76
3631,-4.48,0.73,9.12,-0.07,0.00,0.70
3637,-4.48,0.73,9.12,-0.11,-0.07,0.62
3641,0.54,-1.68,9.81,-0.11,-0.07,0.62
3645,-0.15,-2.34,11.15,-0.11,-0.07,0.62
3652,-0.15,-2.34,11.15,-0.12,-0.03,0.49
3657,-0.15,-2.34,11.15,-0.11,0.03,0.45
3661,-2.49,-0.77,10.49,-0.11,0.03,0.45
3665,-4.14,-0.42,10.84,-0.11,0.03,0.45
3672,-4.14,-0.42,10.84,-0.08,0.32,0.35
3677,-4.14,-0.42,10.84,-0.06,0.32,0.32
3681,-0.23,-0.73,11.26,-0.06,0.32,0.32
3686,-0.19,-0.38,8.82,-0.06,0.32,0.32
3691,-0.19,-0.38,8.82,-0.10,0.16,0.19
3696,-0.19,-0.38,8.82,-0.11,0.14,0.15
3701,-0.19,-0.38,8.82,-0.12,0.16,0.11
3706,-0.19,-0.38,8.82,-0.14,0.22,0.06
3711,-7.16,2.38,8.42,-0.14,0.22,0.06
3715,-8.70,1.76,8.04,-0.14,0.22,0.06
3721,-8.70,1.76,8.04,-0.17,0.32,-0.08
3727,-8.70,1.76,8.04,-0.18,0.26,-0.11
3731,-3.79,1.99,5.75,-0.18,0.26,-0.11
3736,-0.96,1.11,7.97,-0.18,0.26,-0.11
3741,-0.96,1.11,7.97,-0.22,-0.19,-0.25
3746,-0.96,1.11,7.97,-0.24,-0.35,-0.27
3751,-0.96,1.11,7.97,-0.25,-0.43,-0.28
3756,-0.96,1.11,7.97,-0.24,-0.38,-0.29
3761,-1.15,1.46,13.95,-0.24,-0.38,-0.29
3765,-1.04,0.96,13.25,-0.24,-0.38,-0.29
3772,-1.04,0.96,13.25,-0.17,0.12,-0.26
3776,-1.04,0.96,13.25,-0.15,0.25,-0.24
3781,-1.91,0.73,9.93,-0.15,0.25,-0.24
3785,-2.87,0.69,8.12,-0.15,0.25,-0.24
3791,-2.87,0.69,8.12,-0.13,0.29,-0.23
3796,-2.87,0.69,8.12,-0.14,0.20,-0.25
3801,-2.30,0.00,8.24,-0.14,0.20,-0.25
3805,-2.03,0.11,8.73,-0.14,0.20,-0.25
3811,-2.03,0.11,8.73,-0.15,-0.04,-0.25
3816,-2.03,0.11,8.73,-0.14,-0.06,-0.24
3821,-1.72,-0.84,9.96,-0.14,-0.06,-0.24
3826,-0.65,-1.15,10.04,-0.14,-0.06,-0.24
3831,-1.27,-1.34,9.08,-0.14,-0.06,-0.24
3836,-1.27,-1.34,9.08,0.01,-0.03,-0.06
3841,-1.27,-1.34,9.08,0.03,-0.03,-0.02
3846,-1.27,-1.34,9.08,0.06,-0.04,0.03
3851,-0.77,-0.54,8.27,0.06,-0.04,0.03
3856,-0.34,-0.19,8.62,0.06,-0.04,0.03
3861,-0.34,-0.19,8.62,0.12,-0.05,0.18
3866,-1.76,-0.61,9.04,0.12,-0.05,0.18
3870,-2.87,-0.96,8.88,0.12,-0.05,0.18
3876,-2.87,-0.96,8.88,0.15,0.02,0.35
3881,-2.87,-0.96,8.88,0.15,0.00,0.39
3886,-0.96,-2.57,9.35,0.15,0.00,0.39
3891,1.19,-2.57,9.39,0.15,0.00,0.39
3896,1.19,-2.57,9.39,0.19,-0.18,0.50
3901,1.76,-2.41,10.04,0.19,-0.18,0.50
3906,0.42,-3.26,10.00,0.19,-0.18,0.50
3911,-0.92,-3.22,10.04,0.19,-0.18,0.50
3916,-0.92,-3.22,10.04,0.27,-0.06,0.65
3921,-2.07,-3.37,10.04,0.27,-0.06,0.65
3925,-2.41,-2.38,9.08,0.27,-0.06,0.65
3931,-2.41,-2.38,9.08,0.32,0.11,0.74
3936,-2.41,-2.38,9.08,0.33,0.07,0.75
3941,0.46,-3.83,7.78,0.33,0.07,0.75
3946,0.54,-3.95,7.97,0.33,0.07,0.75
3951,0.54,-3.95,7.97,0.34,-0.16,0.76
3956,0.54,-3.95,7.97,0.34,-0.19,0.77
3961,0.80,-3.18,10.42,0.34,-0.19,0.77
3966,-0.50,-2.99,12.30,0.34,-0.19,0.77
3970,-1.30,-2.18,12.41,0.34,-0.19,0.77
3976,-1.30,-2.18,12.41,0.33,0.01,0.78
3982,-1.30,-2.18,12.41,0.33,0.06,0.74
3986,0.57,-2.61,11.54,0.33,0.06,0.74
3990,1.19,-2.72,10.84,0.33,0.06,0.74
3996,1.19,-2.72,10.84,0.38,0.05,0.81
4001,1.19,-2.72,10.84,0.38,0.02,0.82
4006,1.76,-0.19,9.31,0.38,0.02,0.82
4010,0.61,0.19,9.38,0.38,0.02,0.82
4016,0.61,0.19,9.38,0.34,0.01,0.79
4021,0.61,0.19,9.38,0.33,0.06,0.80
4026,-1.84,1.00,7.73,0.33,0.06,0.80
4031,-0.96,3.03,8.46,0.33,0.06,0.80
4036,-0.96,3.03,8.46,0.24,0.07,0.79
4041,-0.96,3.03,8.46,0.21,0.03,0.78
4046,-0.96,3.03,8.46,0.16,-0.01,0.75
4051,-0.96,3.03,8.46,0.13,-0.03,0.72
4055,-0.96,3.03,8.46,0.10,-0.04,0.71
4061,-0.96,3.03,8.46,0.09,-0.02,0.69
4066,-0.96,3.03,8.46,0.07,0.01,0.68
4071,-0.96,3.03,8.46,0.07,0.03,0.68
4076,0.50,0.23,11.57,0.07,0.03,0.68
4081,-0.08,0.77,11.04,0.07,0.03,0.68
4086,-0.08,0.77,11.04,0.05,0.11,0.59
4091,0.08,-0.50,9.46,0.05,0.11,0.59
4095,-0.27,-0.46,9.12,0.05,0.11,0.59
4101,-0.27,-0.46,9.12,0.04,0.14,0.55
4106,-0.27,-0.46,9.12,0.03,0.16,0.52
4111,-1.72,-0.42,9.54,0.03,0.16,0.52
4116,-2.61,-0.84,11.60,0.03,0.16,0.52
4121,-2.61,-0.84,11.60,0.02,0.15,0.50
4126,-0.92,-0.42,10.69,0.02,0.15,0.50
4130,-1.49,-0.15,9.93,0.02,0.15,0.50
4136,-1.49,-0.15,9.93,0.05,0.08,0.51
4141,-1.49,-0.15,9.93,0.06,0.08,0.52
4146,-2.22,1.65,8.27,0.06,0.08,0.52
4151,-1.38,1.42,9.12,0.06,0.08,0.52
4291,-0.84,0.57,9.61,0.06,0.08,0.52
4303,-1.34,1.30,9.65,0.06,0.08,0.52
4305,-2.14,1.88,10.61,0.06,0.08,0.52
4306,-2.14,1.88,10.61,-0.24,0.24,0.57
4310,-3.26,2.45,9.04,-0.24,0.24,0.57
4315,-3.26,2.45,9.04,-0.26,0.22,0.55
4320,-2.76,3.14,9.81,-0.26,0.22,0.55
4326,-2.76,3.14,9.81,-0.29,0.21,0.51
4331,-1.34,2.34,8.73,-0.29,0.21,0.51
4336,-0.15,2.68,9.35,-0.29,0.21,0.51
4341,0.92,2.22,10.03,-0.29,0.21,0.51
4346,0.92,2.22,10.03,-0.37,0.08,0.36
4350,-0.80,2.38,10.49,-0.37,0.08,0.36
4355,-0.80,2.38,10.49,-0.42,0.18,0.25
4360,-1.34,2.26,10.07,-0.42,0.18,0.25
4367,-2.14,2.72,9.50,-0.42,0.18,0.25
4371,-2.18,1.65,8.20,-0.42,0.18,0.25
4376,-0.69,2.18,6.97,-0.42,0.18,0.25
4381,0.50,2.34,7.62,-0.42,0.18,0.25
4386,0.65,3.07,7.73,-0.42,0.18,0.25
4391,1.46,2.61,8.62,-0.42,0.18,0.25
4396,1.88,1.99,10.42,-0.42,0.18,0.25
4401,2.76,1.57,11.76,-0.42,0.18,0.25
4406,2.76,1.57,11.76,-0.56,0.06,-0.09
4410,0.15,1.57,11.38,-0.56,0.06,-0.09
4416,0.15,1.57,11.38,-0.54,0.13,-0.12
4421,-0.65,1.00,9.85,-0.54,0.13,-0.12
4426,-0.65,1.00,9.85,-0.50,0.30,-0.14
4431,0.50,1.07,8.82,-0.50,0.30,-0.14
4436,0.15,1.27,8.04,-0.50,0.30,-0.14
4441,0.92,1.15,8.84,-0.50,0.30,-0.14
4446,0.34,1.46,8.04,-0.50,0.30,-0.14
4451,0.65,0.65,8.74,-0.50,0.30,-0.14
4456,-0.04,0.54,8.62,-0.50,0.30,-0.14
4461,-0.04,0.54,8.62,-0.52,0.11,-0.17
4465,0.00,0.23,9.34,-0.52,0.11,-0.17
4471,0.00,0.23,9.34,-0.51,0.11,-0.17
4476,0.15,-0.15,9.23,-0.51,0.11,-0.17
4481,-0.11,0.23,8.04,-0.51,0.11,-0.17
4486,0.04,0.15,8.24,-0.51,0.11,-0.17
4491,-0.27,0.73,7.73,-0.51,0.11,-0.17
4496,-1.27,-0.19,8.54,-0.51,0.11,-0.17
4501,-1.27,0.50,9.12,-0.51,0.11,-0.17
4506,-1.30,0.42,9.30,-0.51,0.11,-0.17
4511,-1.30,0.42,9.30,-0.43,0.08,-0.12
4516,0.42,-0.23,9.77,-0.43,0.08,-0.12
4521,0.77,-0.23,10.27,-0.43,0.08,-0.12
4526,-0.11,-0.11,9.65,-0.43,0.08,-0.12
4531,0.15,-0.42,9.04,-0.43,0.08,-0.12
4536,0.11,-0.54,8.42,-0.43,0.08,-0.12
4542,-2.14,0.69,8.70,-0.43,0.08,-0.12
4546,-2.14,0.69,8.70,-0.38,0.24,-0.10
4551,-2.57,0.27,9.42,-0.38,0.24,-0.10
4556,-1.84,1.23,9.85,-0.38,0.24,-0.10
4561,-1.23,0.57,10.50,-0.38,0.24,-0.10
4566,-1.15,-0.04,10.61,-0.38,0.24,-0.10
4571,0.61,-0.15,9.61,-0.38,0.24,-0.10
4576,0.57,1.00,8.96,-0.38,0.24,-0.10
4581,0.57,1.00,8.96,-0.35,0.02,-0.06
4586,0.57,1.00,8.96,-0.36,0.07,-0.09
4591,-1.34,0.88,8.42,-0.36,0.07,-0.09
4596,-1.91,0.50,8.82,-0.36,0.07,-0.09
4601,-2.03,0.61,8.04,-0.36,0.07,-0.09
4606,-2.22,-0.84,7.82,-0.36,0.07,-0.09
4611,-1.61,0.19,7.66,-0.36,0.07,-0.09
4616,-1.65,-0.04,7.74,-0.36,0.07,-0.09
4621,-0.73,-0.27,7.32,-0.36,0.07,-0.09
4626,-0.69,-0.19,9.23,-0.36,0.07,-0.09
4631,-0.08,-0.34,9.69,-0.36,0.07,-0.09
4636,-0.46,-0.84,10.45,-0.36,0.07,-0.09
4641,-1.04,-0.96,12.30,-0.36,0.07,-0.09
4646,-0.11,-0.11,12.03,-0.36,0.07,-0.09
4651,-0.96,0.04,11.72,-0.36,0.07,-0.09
4656,-1.49,-0.11,11.57,-0.36,0.07,-0.09
4662,-0.88,1.07,9.50,-0.36,0.07,-0.09
4666,-0.88,1.07,9.50,-0.27,0.11,-0.20
4671,-0.61,0.65,7.82,-0.27,0.11,-0.20
4676,-1.07,0.11,8.43,-0.27,0.11,-0.20
4681,-1.99,0.11,8.43,-0.27,0.11,-0.20
4687,-2.30,0.08,8.24,-0.27,0.11,-0.20
4591,-1.34,0.88,8.42,-0.36,0.07,-0.09
4596,-1.91,0.50,8.82,-0.36,0.07,-0.09
4601,-2.03,0.61,8.04,-0.36,0.07,-0.09
4606,-2.22,-0.84,7.82,-0.36,0.07,-0.09
4611,-1.61,0.19,7.66,-0.36,0.07,-0.09
4616,-1.65,-0.04,7.74,-0.36,0.07,-0.09
4621,-0.73,-0.27,7.32,-0.36,0.07,-0.09
4626,-0.69,-0.19,9.23,-0.36,0.07,-0.09
4631,-0.08,-0.34,9.69,-0.36,0.07,-0.09
4636,-0.46,-0.84,10.45,-0.36,0.07,-0.09
4641,-1.04,-0.96,12.30,-0.36,0.07,-0.09
4646,-0.11,-0.11,12.03,-0.36,0.07,-0.09
4651,-0.96,0.04,11.72,-0.36,0.07,-0.09
4656,-1.49,-0.11,11.57,-0.36,0.07,-0.09
4662,-0.88,1.07,9.50,-0.36,0.07,-0.09
4666,-0.88,1.07,9.50,-0.27,0.11,-0.20
4671,-0.61,0.65,7.82,-0.27,0.11,-0.20
4676,-1.07,0.11,8.43,-0.27,0.11,-0.20
4681,-1.99,0.11,8.43,-0.27,0.11,-0.20
4687,-2.30,0.08,8.24,-0.27,0.11,-0.20
4130,-1.49,-0.15,9.93,0.02,0.15,0.50
4136,-1.49,-0.15,9.93,0.05,0.08,0.51
4141,-1.49,-0.15,9.93,0.06,0.08,0.52
4146,-2.22,1.65,8.27,0.06,0.08,0.52
4151,-1.38,1.42,9.12,0.06,0.08,0.52
