timestamp,accX,accY,accZ,gyroX,gyroY,gyroZ
Right
7,0.50,-0.54,10.15,-0.15,0.15,-0.20
18,0.50,-0.54,10.15,-0.14,0.16,-0.21
20,0.50,-0.54,10.15,-0.11,-0.07,-0.21
21,0.50,-0.54,10.15,-0.09,-0.08,-0.22
25,0.27,1.23,12.18,-0.09,-0.08,-0.22
30,0.27,1.23,12.18,-0.09,-0.03,-0.25
35,0.19,0.92,11.46,-0.09,-0.03,-0.25
41,-1.07,0.46,9.50,-0.09,-0.03,-0.25
45,-1.07,0.46,9.50,-0.05,0.18,-0.22
51,-1.07,0.46,9.50,-0.06,0.21,-0.21
56,-0.19,1.49,8.01,-0.06,0.21,-0.21
60,-0.19,1.49,8.01,-0.11,0.11,-0.25
65,-0.19,1.49,8.01,-0.16,0.06,-0.32
71,-0.65,0.30,9.00,-0.16,0.06,-0.32
76,-0.65,0.38,9.46,-0.16,0.06,-0.32
80,-0.65,0.38,9.46,-0.16,-0.11,-0.35
86,-0.65,0.38,9.46,-0.15,-0.15,-0.35
92,0.27,0.08,10.19,-0.15,-0.15,-0.35
96,0.27,0.08,10.19,-0.15,-0.14,-0.40
100,0.27,0.08,10.19,-0.15,-0.09,-0.39
106,-0.54,-2.07,8.89,-0.15,-0.09,-0.39
112,0.92,-1.65,9.88,-0.15,-0.09,-0.39
115,0.92,-1.65,9.88,-0.09,0.03,-0.28
121,0.92,-1.65,9.88,-0.08,0.05,-0.28
127,0.50,-0.65,11.34,-0.08,0.05,-0.28
130,0.50,-0.65,11.34,-0.01,0.11,-0.30
135,0.50,-0.65,11.34,-0.01,0.15,-0.26
141,0.50,-0.65,11.34,0.00,0.17,-0.20
147,-1.11,-0.73,8.66,0.00,0.17,-0.20
150,-1.11,-0.73,8.66,-0.01,0.09,-0.12
155,-1.11,-0.73,8.66,-0.01,0.02,-0.14
160,0.11,-0.30,9.16,-0.01,0.02,-0.14
167,-1.07,-0.23,9.65,-0.01,0.02,-0.14
171,-1.07,-0.23,9.65,-0.01,-0.10,-0.13
175,-0.23,-2.18,10.07,-0.01,-0.10,-0.13
182,-1.88,-2.03,9.50,-0.01,-0.10,-0.13
186,-1.88,-2.03,9.50,0.03,-0.01,-0.03
190,-1.88,-2.03,9.50,0.06,0.00,0.01
195,-2.41,-0.46,7.24,0.06,0.00,0.01
202,-1.53,-0.84,8.27,0.06,0.00,0.01
206,-1.53,-0.84,8.27,0.04,-0.03,0.10
211,0.54,-1.88,10.11,0.04,-0.03,0.10
217,1.61,-2.41,11.26,0.04,-0.03,0.10
220,1.61,-2.41,11.26,0.10,-0.18,0.13
226,0.92,-3.37,13.02,0.10,-0.18,0.13
232,0.11,-3.56,12.14,0.10,-0.18,0.13
235,0.11,-3.56,12.14,0.18,-0.04,0.16
241,0.11,-3.56,12.14,0.18,0.05,0.16
247,-4.52,-1.38,7.51,0.18,0.05,0.16
250,-4.52,-1.38,7.51,0.11,0.20,0.18
255,-4.52,-1.38,7.51,0.08,0.16,0.25
261,-4.52,-1.38,7.51,0.07,0.07,0.29
267,1.95,-1.27,8.50,0.07,0.07,0.29
271,1.95,-1.27,8.50,0.07,-0.18,0.23
275,1.95,-1.27,8.50,0.10,-0.25,0.21
280,1.38,-4.33,10.61,0.10,-0.25,0.21
286,0.77,-3.60,10.23,0.10,-0.25,0.21
291,0.77,-3.60,10.23,0.26,-0.09,0.46
296,0.77,-3.60,10.23,0.25,0.03,0.49
302,-2.99,1.53,8.89,0.25,0.03,0.49
306,-2.99,1.53,8.89,0.17,0.19,0.42
311,-2.99,1.53,8.89,0.16,0.17,0.38
316,-0.50,1.23,8.39,0.16,0.17,0.38
321,-0.50,1.23,8.39,0.07,0.01,0.34
325,-0.50,1.23,8.39,0.09,-0.08,0.36
331,-0.46,-2.11,10.27,0.09,-0.08,0.36
337,-1.11,-2.38,10.23,0.09,-0.08,0.36
341,-1.11,-2.38,10.23,0.09,-0.12,0.37
346,-1.11,-2.38,10.23,0.13,-0.08,0.35
352,-1.38,-0.30,10.19,0.13,-0.08,0.35
355,-1.38,-0.30,10.19,0.08,0.02,0.24
361,-1.38,-0.30,10.19,0.07,0.06,0.21
367,-2.18,-0.04,8.16,0.07,0.06,0.21
370,-2.18,-0.04,8.16,0.03,0.07,0.19
375,-2.18,-0.04,8.16,0.01,0.03,0.18
381,-2.18,-0.04,8.16,-0.00,-0.03,0.15
387,2.26,-1.30,12.18,-0.00,-0.03,0.15
391,2.26,-1.30,12.18,0.03,-0.13,0.09
395,2.26,-1.30,12.18,0.05,-0.12,0.06
401,2.26,-1.30,12.18,0.10,-0.06,0.03
407,-0.73,0.80,10.15,0.10,-0.06,0.03
411,-0.73,0.80,10.15,0.06,0.13,0.05
416,-0.73,0.80,10.15,0.01,0.19,0.04
422,-2.07,3.79,5.82,0.01,0.19,0.04
426,-2.07,3.79,5.82,-0.09,0.25,-0.06
431,-2.07,3.79,5.82,-0.14,0.22,-0.06
437,-1.72,1.84,8.12,-0.14,0.22,-0.06
441,-1.72,1.84,8.12,-0.13,0.05,0.06
446,-1.72,1.84,8.12,-0.14,-0.05,0.09
451,0.88,-0.04,9.12,-0.14,-0.05,0.09
457,2.61,-0.61,10.91,-0.14,-0.05,0.09
461,2.61,-0.61,10.91,-0.07,-0.33,0.12
466,2.61,-0.61,10.91,-0.03,-0.33,0.12
472,1.07,-0.27,11.04,-0.03,-0.33,0.12
475,1.07,-0.27,11.04,0.02,-0.18,0.18
481,1.07,-0.27,11.04,0.01,-0.03,0.20
486,-0.11,0.38,10.39,0.01,-0.03,0.20
492,-1.99,1.46,9.69,0.01,-0.03,0.20
495,-1.99,1.46,9.69,-0.10,0.29,0.06
501,-1.99,1.46,9.69,-0.13,0.29,0.00
507,-2.53,-0.84,6.85,-0.13,0.29,0.00
511,-2.53,-0.84,6.85,-0.17,0.14,0.04
515,-2.53,-0.84,6.85,-0.19,0.02,0.07
521,-2.53,-0.84,6.85,-0.14,-0.11,0.10
527,1.30,-1.53,10.00,-0.14,-0.11,0.10
531,1.30,-1.53,10.00,-0.12,-0.25,0.09
536,1.30,-1.53,10.00,-0.08,-0.25,0.08
542,-1.38,-2.34,9.50,-0.08,-0.25,0.08
546,-1.38,-2.34,9.50,-0.05,-0.07,0.11
551,-1.38,-2.34,9.50,-0.04,0.04,0.17
556,0.04,0.54,9.23,-0.04,0.04,0.17
562,-0.96,0.69,8.88,-0.04,0.04,0.17
566,-0.96,0.69,8.88,-0.10,0.11,0.19
571,-0.96,0.69,8.88,-0.10,0.07,0.14
577,0.08,0.19,10.34,-0.10,0.07,0.14
581,0.08,0.19,10.34,-0.08,0.04,0.15
586,0.08,0.19,10.34,-0.06,0.01,0.21
592,3.22,-1.46,11.04,-0.06,0.01,0.21
596,3.22,-1.46,11.04,-0.04,-0.05,0.19
601,3.22,-1.46,11.04,-0.06,-0.01,0.10
606,3.22,-1.46,11.04,-0.06,0.06,0.06
612,-3.07,0.08,9.00,-0.06,0.06,0.06
616,-3.07,0.08,9.00,-0.06,0.22,0.14
621,-3.07,0.08,9.00,-0.10,0.26,0.18
627,-1.72,0.50,8.70,-0.10,0.26,0.18
631,-1.72,0.50,8.70,-0.14,0.11,0.18
636,-1.72,0.50,8.70,-0.16,-0.02,0.13
641,-1.72,0.50,8.70,-0.17,-0.15,0.09
647,1.53,-2.30,7.09,-0.17,-0.15,0.09
651,1.53,-2.30,7.09,-0.15,-0.29,0.14
655,1.53,-2.30,7.09,-0.13,-0.29,0.23
660,1.53,-2.30,7.09,-0.11,-0.26,0.32
667,1.19,-1.07,12.61,-0.11,-0.26,0.32
670,1.19,-1.07,12.61,-0.07,-0.11,0.34
676,1.04,-1.68,14.06,-0.07,-0.11,0.34
682,1.95,-1.57,13.11,-0.07,-0.11,0.34
685,1.95,-1.57,13.11,-0.01,0.16,0.18
691,1.95,-1.57,13.11,-0.03,0.20,0.18
697,0.65,-1.30,8.23,-0.03,0.20,0.18
701,0.65,-1.30,8.23,-0.05,0.24,0.21
706,0.65,-1.30,8.23,-0.10,0.25,0.20
712,-2.11,-1.07,7.01,-0.10,0.25,0.20
715,-2.11,-1.07,7.01,-0.18,0.15,0.11
720,-2.11,-1.07,7.01,-0.20,0.05,0.05
725,-2.11,-1.07,7.01,-0.19,-0.05,0.03
730,0.69,-2.11,9.65,-0.19,-0.05,0.03
736,0.69,-2.11,9.65,-0.19,-0.16,0.03
742,0.00,-1.23,8.89,-0.19,-0.16,0.03
747,-1.99,-0.61,9.81,-0.19,-0.16,0.03
750,-1.99,-0.61,9.81,-0.10,0.06,0.13
755,-1.99,-0.61,9.81,-0.11,0.13,0.16
761,-1.99,-0.61,9.81,-0.14,0.14,0.18
767,-1.42,0.65,9.39,-0.14,0.14,0.18
771,-1.42,0.65,9.39,-0.15,0.05,0.18
776,-1.42,0.65,9.39,-0.15,-0.02,0.18
782,-1.42,0.65,9.39,-0.15,-0.09,0.21
786,-1.42,0.65,9.39,-0.13,-0.11,0.22
791,-1.42,0.65,9.39,-0.13,-0.11,0.21
796,-0.96,-1.23,10.88,-0.13,-0.11,0.21
802,-1.34,-0.65,11.03,-0.13,-0.11,0.21
806,-1.34,-0.65,11.03,-0.13,0.13,0.18
811,-1.34,-0.65,11.03,-0.13,0.21,0.20
817,-2.26,-0.65,10.39,-0.13,0.21,0.20
821,-2.26,-0.65,10.39,-0.18,0.20,0.15
826,-2.26,-0.65,10.39,-0.21,0.10,0.10
831,1.95,-1.76,8.43,-0.21,0.10,0.10
837,2.30,-1.80,8.58,-0.21,0.10,0.10
841,2.30,-1.80,8.58,-0.22,-0.14,-0.00
847,2.30,-1.80,8.58,-0.21,-0.12,0.03
852,-0.77,-0.34,8.08,-0.21,-0.12,0.03
855,-0.77,-0.34,8.08,-0.24,-0.02,0.12
861,-0.77,-0.34,8.08,-0.27,0.03,0.11
866,-0.77,-0.34,8.08,-0.27,0.05,0.06
872,1.15,1.11,10.45,-0.27,0.05,0.06
876,1.15,1.11,10.45,-0.27,0.01,-0.02
881,1.15,1.11,10.45,-0.26,0.01,-0.02
887,0.38,-0.11,9.16,-0.26,0.01,-0.02
891,0.38,-0.11,9.16,-0.27,0.01,0.03
896,0.38,-0.11,9.16,-0.29,0.03,0.01
902,0.38,-0.11,9.16,-0.33,0.03,-0.02
906,0.38,-0.11,9.16,-0.36,0.04,-0.07
911,0.38,-0.11,9.16,-0.36,0.04,-0.13
916,0.38,-0.11,9.16,-0.36,0.04,-0.18
922,0.23,1.57,10.73,-0.36,0.04,-0.18
926,0.23,1.57,10.73,-0.38,0.09,-0.25
931,0.23,1.57,10.73,-0.39,0.12,-0.27
936,-0.88,1.15,8.04,-0.39,0.12,-0.27
941,-1.53,1.76,7.70,-0.39,0.12,-0.27
946,-1.53,1.76,7.70,-0.44,0.17,-0.28
951,-1.53,1.76,7.70,-0.45,0.14,-0.27
957,-1.91,1.53,8.78,-0.45,0.14,-0.27
961,-1.91,1.53,8.78,-0.48,0.07,-0.29
966,-1.91,1.53,8.78,-0.48,0.01,-0.30
972,0.65,0.00,9.30,-0.48,0.01,-0.30
975,0.65,0.00,9.30,-0.45,-0.08,-0.26
981,0.65,0.00,9.30,-0.44,-0.08,-0.24
986,0.65,0.00,9.30,-0.42,-0.07,-0.23
992,-0.88,-0.57,8.39,-0.42,-0.07,-0.23
996,-0.88,-0.57,8.39,-0.43,0.03,-0.16
1001,-0.88,-0.57,8.39,-0.41,0.04,-0.13
1007,-0.88,-0.57,8.39,-0.41,0.07,-0.16
1011,-0.88,-0.57,8.39,-0.44,0.10,-0.22
1016,-0.88,-0.57,8.39,-0.43,0.14,-0.27
1021,-0.88,-0.57,8.39,-0.42,0.18,-0.27
1027,-1.68,-0.38,8.70,-0.42,0.18,-0.27
1031,-1.68,-0.38,8.70,-0.42,0.18,-0.18
1036,-1.68,-0.38,8.70,-0.43,0.11,-0.15
1042,-1.68,-0.38,8.70,-0.45,0.03,-0.19
1046,-1.68,-0.38,8.70,-0.47,-0.03,-0.26
1051,-1.68,-0.38,8.70,-0.46,-0.06,-0.32
1056,-1.68,-0.38,8.70,-0.43,-0.04,-0.31
1062,-1.38,-1.46,10.23,-0.43,-0.04,-0.31
1066,-1.38,-1.46,10.23,-0.42,0.11,-0.28
1071,-1.38,-1.46,10.23,-0.42,0.16,-0.29
1077,-2.18,1.07,7.73,-0.42,0.16,-0.29
1081,-2.18,1.07,7.73,-0.45,0.17,-0.34
1086,-2.18,1.07,7.73,-0.47,0.16,-0.36
1091,-2.18,1.07,7.73,-0.51,0.12,-0.37
1096,-0.69,0.57,6.89,-0.51,0.12,-0.37
1101,-0.69,0.57,6.89,-0.52,-0.01,-0.38
1106,-0.69,0.57,6.89,-0.51,-0.10,-0.37
1111,1.88,-1.04,14.25,-0.51,-0.10,-0.37
1116,1.88,-1.04,14.25,-0.45,-0.18,-0.42
1121,1.88,-1.04,14.25,-0.42,-0.13,-0.47
1127,1.88,-1.04,14.25,-0.40,-0.04,-0.53
1131,1.88,-1.04,14.25,-0.41,0.09,-0.57
1136,1.88,-1.04,14.25,-0.45,0.23,-0.60
1141,1.88,-1.04,14.25,-0.49,0.31,-0.59
1146,0.46,3.10,6.70,-0.49,0.31,-0.59
1151,0.46,3.10,6.70,-0.60,0.28,-0.59
1156,0.46,3.10,6.70,-0.64,0.21,-0.68
1162,0.46,3.10,6.70,-0.65,0.15,-0.78
1166,0.46,3.10,6.70,-0.62,0.08,-0.82
1171,0.46,3.10,6.70,-0.57,0.01,-0.78
1175,0.46,3.10,6.70,-0.51,-0.02,-0.69
1180,-0.15,-0.54,10.30,-0.51,-0.02,-0.69
1185,-0.15,-0.54,10.30,-0.48,-0.03,-0.60
1191,-0.15,-0.54,10.30,-0.46,-0.04,-0.57
1197,-0.15,-0.54,10.30,-0.47,0.02,-0.63
1201,-0.15,-0.54,10.30,-0.50,0.06,-0.69
1206,-0.15,-0.54,10.30,-0.52,0.09,-0.70
1211,-0.15,-0.54,10.30,-0.54,0.10,-0.69
1216,-0.38,1.61,9.77,-0.54,0.10,-0.69
1221,-0.38,1.61,9.77,-0.54,0.15,-0.67
1226,-0.38,1.61,9.77,-0.55,0.17,-0.69
1231,-0.38,1.61,9.77,-0.55,0.18,-0.73
1236,-0.38,1.61,9.77,-0.54,0.15,-0.76
1241,-0.38,1.61,9.77,-0.52,0.12,-0.76
1246,-0.38,1.61,9.77,-0.53,0.10,-0.76
1251,-1.49,0.38,8.23,-0.53,0.10,-0.76
1256,-1.49,0.38,8.23,-0.50,0.12,-0.77
1261,-1.49,0.38,8.23,-0.51,0.15,-0.79
1267,-1.49,0.38,8.23,-0.50,0.15,-0.81
1271,-1.49,0.38,8.23,-0.50,0.12,-0.82
1276,-1.49,0.38,8.23,-0.48,0.10,-0.85
1281,-1.49,0.38,8.23,-0.47,0.10,-0.88
1286,-0.04,-0.57,9.93,-0.47,0.10,-0.88
1291,-0.04,-0.57,9.93,-0.44,0.15,-0.89
1296,-0.04,-0.57,9.93,-0.46,0.20,-0.91
1302,-0.04,-0.57,9.93,-0.45,0.21,-0.92
1306,-0.04,-0.57,9.93,-0.47,0.21,-0.93
1311,-0.04,-0.57,9.93,-0.46,0.21,-0.92
1316,-0.04,-0.57,9.93,-0.46,0.21,-0.89
1321,-0.04,-0.57,9.93,-0.45,0.21,-0.87
1326,-0.04,-0.57,9.93,-0.43,0.21,-0.84
1331,-0.04,-0.57,9.93,-0.40,0.20,-0.80
1337,-0.15,-1.00,10.23,-0.40,0.20,-0.80
1341,-0.15,-1.00,10.23,-0.33,0.13,-0.70
1346,-0.15,-1.00,10.23,-0.31,0.09,-0.66
1351,-0.15,-1.00,10.23,-0.25,0.07,-0.67
1356,-0.15,-1.00,10.23,-0.25,0.10,-0.70
1361,-0.15,-1.00,10.23,-0.28,0.17,-0.71
1366,-0.15,-1.00,10.23,-0.30,0.23,-0.68
1372,-0.19,-0.80,8.70,-0.30,0.23,-0.68
1375,-0.19,-0.80,8.70,-0.33,0.23,-0.61
1380,-0.19,-0.80,8.70,-0.36,0.18,-0.63
1385,-0.19,-0.80,8.70,-0.36,0.13,-0.68
1391,0.88,-2.22,11.41,-0.36,0.13,-0.68
1397,0.88,-2.22,11.41,-0.34,0.12,-0.74
1401,0.88,-2.22,11.41,-0.23,0.15,-0.75
1406,0.88,-2.22,11.41,-0.18,0.17,-0.69
1411,0.88,-2.22,11.41,-0.16,0.18,-0.65
1416,0.88,-2.22,11.41,-0.15,0.18,-0.64
1421,0.88,-2.22,11.41,-0.17,0.17,-0.68
1426,0.88,-2.22,11.41,-0.19,0.17,-0.71
1431,0.88,-2.22,11.41,-0.21,0.19,-0.71
1436,0.88,-2.22,11.41,-0.23,0.18,-0.68
1441,1.19,-0.11,10.19,-0.23,0.18,-0.68
1446,1.19,-0.11,10.19,-0.27,0.17,-0.74
1451,1.19,-0.11,10.19,-0.28,0.20,-0.83
1456,1.19,-0.11,10.19,-0.25,0.23,-0.88
1461,1.19,-0.11,10.19,-0.21,0.24,-0.85
1466,1.19,-0.11,10.19,-0.19,0.26,-0.82
1471,1.19,-0.11,10.19,-0.17,0.27,-0.83
1476,0.30,1.88,8.77,-0.17,0.27,-0.83
1481,0.30,1.88,8.77,-0.20,0.27,-0.90
1486,0.30,1.88,8.77,-0.23,0.29,-0.94
1491,0.30,1.88,8.77,-0.24,0.29,-0.96
1496,0.30,1.88,8.77,-0.24,0.28,-0.99
1501,0.30,1.88,8.77,-0.28,0.27,-1.02
1505,0.30,1.88,8.77,-0.30,0.26,-1.06
1511,-0.84,3.37,9.84,-0.30,0.26,-1.06
1516,-0.84,3.37,9.84,-0.34,0.25,-1.09
1521,-0.84,3.37,9.84,-0.37,0.26,-1.08
1526,-0.84,3.37,9.84,-0.37,0.24,-1.02
1531,-0.84,3.37,9.84,-0.36,0.19,-0.95
1536,-0.84,3.37,9.84,-0.35,0.13,-0.89
1541,-0.84,3.37,9.84,-0.34,0.11,-0.88
1546,-0.84,3.37,9.84,-0.29,0.11,-0.90
1551,-0.84,3.37,9.84,-0.26,0.14,-0.92
1556,-0.84,3.37,9.84,-0.20,0.25,-0.93
1562,-0.84,3.37,9.84,-0.17,0.37,-0.88
1566,-0.84,3.37,9.84,-0.16,0.44,-0.80
1571,-0.84,3.37,9.84,-0.16,0.44,-0.71
1575,-0.84,3.37,9.84,-0.18,0.39,-0.70
1582,3.56,-1.53,9.58,-0.18,0.39,-0.70
1586,3.56,-1.53,9.58,-0.24,0.12,-0.88
1591,3.56,-1.53,9.58,-0.23,0.00,-1.00
1596,2.84,-8.46,11.76,-0.23,0.00,-1.00
1600,2.84,-8.46,11.76,-0.12,-0.02,-1.09
1605,2.30,-8.23,11.64,-0.12,-0.02,-1.09
1610,2.30,-8.23,11.64,-0.01,0.20,-1.00
1616,-0.84,-4.10,11.54,-0.01,0.20,-1.00
1621,-0.84,-4.10,11.54,0.01,0.46,-1.01
1626,-0.84,-4.10,11.54,-0.01,0.53,-1.08
1631,0.00,-0.80,9.61,-0.01,0.53,-1.08
1636,0.00,-0.80,9.61,-0.06,0.54,-1.23
1641,0.00,-0.80,9.61,-0.04,0.47,-1.26
1646,0.00,-0.80,9.61,-0.03,0.40,-1.24
1651,0.00,-0.80,9.61,-0.01,0.33,-1.19
1656,0.00,-0.80,9.61,0.05,0.29,-1.13
1660,0.00,-0.80,9.61,0.06,0.30,-1.09
1666,-1.23,-0.80,10.54,0.06,0.30,-1.09
1671,-1.23,-0.80,10.54,0.13,0.32,-0.95
1676,-1.23,-0.80,10.54,0.17,0.29,-0.89
1681,-1.23,-0.80,10.54,0.18,0.27,-0.87
1686,-1.23,-0.80,10.54,0.20,0.28,-0.84
1691,-1.23,-0.80,10.54,0.20,0.30,-0.79
1695,-1.23,-0.80,10.54,0.19,0.32,-0.76
1701,-0.15,0.92,11.95,0.19,0.32,-0.76
1706,-0.15,0.92,11.95,0.18,0.42,-0.78
1711,-0.15,0.92,11.95,0.16,0.47,-0.73
1715,-0.15,0.92,11.95,0.15,0.50,-0.66
1722,-2.11,1.84,8.92,0.15,0.50,-0.66
1726,-2.11,1.84,8.92,0.05,0.44,-0.62
1730,-2.11,1.84,8.92,0.03,0.36,-0.68
1736,-0.46,-1.27,9.58,0.03,0.36,-0.68
1741,-0.46,-1.27,9.58,0.06,0.14,-0.76
1746,-0.46,-1.27,9.58,0.09,0.09,-0.75
1752,-0.46,-1.27,9.58,0.12,0.04,-0.71
1756,-0.46,-1.27,9.58,0.16,0.02,-0.67
1761,-0.46,-1.27,9.58,0.17,0.02,-0.66
1765,-0.46,-1.27,9.58,0.17,0.02,-0.70
1771,1.68,-3.22,12.53,0.17,0.02,-0.70
1776,1.68,-3.22,12.53,0.16,0.13,-0.88
1781,1.68,-3.22,12.53,0.16,0.26,-0.97
1786,1.68,-3.22,12.53,0.16,0.39,-0.99
1791,1.68,-3.22,12.53,0.17,0.49,-0.94
1795,1.68,-3.22,12.53,0.17,0.55,-0.86
1800,1.68,-3.22,12.53,0.21,0.58,-0.78
1805,0.84,-0.42,9.54,0.21,0.58,-0.78
1811,0.84,-0.42,9.54,0.22,0.57,-0.71
1816,0.84,-0.42,9.54,0.30,0.49,-0.60
1821,0.84,-0.42,9.54,0.35,0.43,-0.53
1826,0.84,-0.42,9.54,0.40,0.39,-0.44
1831,0.84,-0.42,9.54,0.45,0.34,-0.32
1835,0.84,-0.42,9.54,0.49,0.29,-0.19
1841,0.46,-1.53,7.09,0.49,0.29,-0.19
1846,0.46,-1.53,7.09,0.49,0.16,-0.03
1851,0.46,-1.53,7.09,0.47,0.09,0.04
1857,0.46,-1.53,7.09,0.46,0.05,0.08
1861,0.46,-1.53,7.09,0.44,0.05,0.10
1866,0.46,-1.53,7.09,0.43,0.07,0.10
1870,0.46,-1.53,7.09,0.47,0.12,0.11
1876,0.84,-4.75,12.14,0.47,0.12,0.11
1881,0.84,-4.75,12.14,0.52,0.21,0.10
1885,0.84,-4.75,12.14,0.54,0.24,0.08
1891,-0.38,-5.36,8.24,0.54,0.24,0.08
1896,-0.38,-5.36,8.24,0.53,0.27,0.05
1901,-0.38,-5.36,8.24,0.52,0.28,0.06
1905,-0.38,-5.36,8.24,0.51,0.29,0.09
1911,-3.18,-3.98,8.62,0.51,0.29,0.09
1916,-3.18,-3.98,8.62,0.52,0.29,0.15
1921,-3.18,-3.98,8.62,0.52,0.28,0.17
1926,-0.96,-3.29,10.15,0.52,0.28,0.17
1931,-0.96,-3.29,10.15,0.53,0.17,0.14
1936,-0.96,-3.29,10.15,0.50,0.13,0.08
1941,-0.96,-3.29,10.15,0.47,0.11,0.10
1946,-1.99,-2.30,6.05,0.47,0.11,0.10
1951,-1.99,-2.30,6.05,0.47,0.00,0.43
1955,-1.99,-2.30,6.05,0.44,-0.05,0.54
1961,2.45,-0.34,12.41,0.44,-0.05,0.54
1966,2.45,-0.34,12.41,0.47,-0.11,0.45
1971,2.45,-0.34,12.41,0.49,-0.05,0.35
1976,2.45,-0.34,12.41,0.51,0.06,0.31
1981,-2.57,-2.14,8.73,0.51,0.06,0.31
1986,-2.57,-2.14,8.73,0.47,0.26,0.52
1990,-2.57,-2.14,8.73,0.44,0.29,0.66
1996,-0.92,1.84,7.39,0.44,0.29,0.66
2001,-0.92,1.84,7.39,0.30,0.18,0.64
2006,-0.92,1.84,7.39,0.26,0.09,0.53
2011,-0.92,1.84,7.39,0.28,-0.01,0.44
2016,-0.96,-5.75,7.27,0.28,-0.01,0.44
2021,-0.96,-5.75,7.27,0.31,-0.10,0.47
2025,-0.96,-5.75,7.27,0.33,-0.12,0.56
2031,-0.96,-3.48,8.50,0.33,-0.12,0.56
2036,-0.96,-3.48,8.50,0.31,-0.19,0.63
2040,-0.96,-3.48,8.50,0.28,-0.21,0.57
2046,-0.96,-3.48,8.50,0.25,-0.20,0.46
2051,-0.96,-3.48,8.50,0.20,-0.14,0.33
2056,-0.96,-3.48,8.50,0.16,-0.08,0.26
2060,-0.96,-3.48,8.50,0.13,-0.02,0.24
2066,0.15,-2.14,8.54,0.13,-0.02,0.24
2071,0.15,-2.14,8.54,0.08,0.03,0.23
2075,0.15,-2.14,8.54,0.09,0.01,0.18
2081,0.15,-2.14,8.54,0.07,0.01,0.11
2086,0.15,-2.14,8.54,0.07,0.01,0.05
2091,0.15,-2.14,8.54,0.07,0.01,0.03
2095,0.15,-2.14,8.54,0.04,0.04,-0.02
2101,0.88,1.07,10.04,0.04,0.04,-0.02
2106,0.88,1.07,10.04,0.00,0.12,-0.14
2110,0.88,1.07,10.04,-0.01,0.17,-0.19
2116,0.88,1.07,10.04,-0.04,0.19,-0.20
2121,0.88,1.07,10.04,-0.05,0.14,-0.20
2126,0.88,1.07,10.04,-0.10,0.09,-0.25
2130,0.88,1.07,10.04,-0.13,0.04,-0.35
2136,0.88,3.52,9.77,-0.13,0.04,-0.35
2141,0.88,3.52,9.77,-0.19,-0.02,-0.45
2145,0.88,3.52,9.77,-0.21,0.01,-0.46
2151,0.88,3.52,9.77,-0.22,0.01,-0.47
2156,0.88,3.52,9.77,-0.23,0.04,-0.53
2161,0.88,3.52,9.77,-0.25,0.07,-0.61
2166,0.88,3.52,9.77,-0.25,0.09,-0.64
2171,-1.46,3.07,8.74,-0.25,0.09,-0.64
2176,-1.46,3.07,8.74,-0.31,0.15,-0.63
2180,-1.46,3.07,8.74,-0.32,0.16,-0.63
2186,0.00,2.45,8.43,-0.32,0.16,-0.63
2191,0.00,2.45,8.43,-0.35,0.07,-0.67
2196,0.00,2.45,8.43,-0.35,-0.01,-0.72
2201,0.00,2.45,8.43,-0.31,-0.06,-0.78
2206,0.11,0.65,11.34,-0.31,-0.06,-0.78
2211,0.11,0.65,11.34,-0.30,0.01,-0.88
2215,0.11,0.65,11.34,-0.30,0.09,-0.87
2221,-2.34,1.04,9.20,-0.30,0.09,-0.87
2226,-2.34,1.04,9.20,-0.35,0.22,-0.86
2231,-2.34,1.04,9.20,-0.35,0.20,-0.87
2236,-2.34,1.04,9.20,-0.39,0.17,-0.91
2241,1.19,1.65,10.57,-0.39,0.17,-0.91
2246,1.19,1.65,10.57,-0.39,0.12,-1.04
2250,1.19,1.65,10.57,-0.37,0.14,-1.09
2256,-1.38,-0.96,10.61,-0.37,0.14,-1.09
2261,-1.38,-0.96,10.61,-0.30,0.22,-1.00
2265,-1.38,-0.96,10.61,-0.26,0.23,-0.91
2271,-1.38,-0.96,10.61,-0.24,0.24,-0.85
2276,-0.73,0.38,8.92,-0.24,0.24,-0.85
2281,-0.73,0.38,8.92,-0.25,0.21,-0.81
2285,-0.73,0.38,8.92,-0.24,0.19,-0.82
2291,-1.30,-1.23,9.81,-0.24,0.19,-0.82
2295,-1.30,-1.23,9.81,-0.21,0.16,-0.74
2300,-1.30,-1.23,9.81,-0.17,0.18,-0.67
2305,-1.30,-1.23,9.81,-0.13,0.19,-0.55
2310,-3.14,-1.19,9.80,-0.13,0.19,-0.55
2316,-3.14,-1.19,9.80,-0.08,0.18,-0.35
2322,-3.14,-1.19,9.80,-0.08,0.15,-0.30
2326,-3.14,-1.19,9.80,-0.09,0.09,-0.30
2331,-3.14,-1.19,9.80,-0.10,0.03,-0.34
2335,-3.14,-1.19,9.80,-0.08,-0.02,-0.35
2341,-3.14,-1.19,9.80,-0.05,-0.01,-0.35
2346,-3.14,-1.19,9.80,-0.04,0.07,-0.34
2351,-3.14,-1.19,9.80,-0.01,0.18,-0.30
2355,-3.14,-1.19,9.80,-0.01,0.30,-0.26
2361,-3.83,-2.57,7.09,-0.01,0.30,-0.26
2366,-3.83,-2.57,7.09,-0.04,0.43,-0.25
2370,-3.83,-2.57,7.09,-0.08,0.41,-0.27
2376,-1.19,-1.27,6.36,-0.08,0.41,-0.27
2381,0.46,-2.38,7.05,-0.08,0.41,-0.27
2386,0.46,-2.38,7.05,-0.06,-0.04,-0.20
2391,0.46,-2.38,7.05,-0.05,-0.18,-0.20
2396,3.87,-3.91,13.14,-0.05,-0.18,-0.20
2401,3.87,-3.91,13.14,0.04,-0.27,-0.25
2405,3.87,-3.91,13.14,0.06,-0.18,-0.27
2411,-0.73,-0.80,11.57,0.06,-0.18,-0.27
2416,-0.73,-0.80,11.57,-0.00,0.15,-0.24
2421,-0.73,-0.80,11.57,-0.06,0.27,-0.27
2426,-0.73,-0.80,11.57,-0.14,0.33,-0.33
2431,1.07,2.18,8.78,-0.14,0.33,-0.33
2436,1.07,2.18,8.78,-0.24,0.30,-0.55
2440,1.07,2.18,8.78,-0.23,0.24,-0.63
2447,0.08,-0.69,8.70,-0.23,0.24,-0.63
2450,0.08,-0.69,8.70,-0.19,0.16,-0.62
2455,0.08,-0.69,8.70,-0.14,0.13,-0.54
2461,0.08,-0.69,8.70,-0.15,0.11,-0.49
2466,-0.57,1.00,9.96,-0.15,0.11,-0.49
2471,-0.57,1.00,9.96,-0.15,0.10,-0.57
2475,-0.57,1.00,9.96,-0.17,0.10,-0.64
2481,-0.57,1.00,9.96,-0.20,0.09,-0.69
2486,-0.57,1.00,9.96,-0.19,0.07,-0.69
2490,-0.57,1.00,9.96,-0.21,0.06,-0.69
2496,-0.57,1.00,9.96,-0.24,0.09,-0.73
2501,-0.11,-0.57,10.15,-0.24,0.09,-0.73
2506,-0.11,-0.57,10.15,-0.26,0.16,-0.83
2510,-0.11,-0.57,10.15,-0.26,0.19,-0.87
2516,0.57,-0.54,10.50,-0.26,0.19,-0.87
2521,0.57,-0.54,10.50,-0.24,0.20,-0.89
2525,0.57,-0.54,10.50,-0.23,0.21,-0.91
2531,0.57,-0.54,10.50,-0.23,0.24,-0.96
2536,-1.04,-0.08,11.11,-0.23,0.24,-0.96
2541,-1.04,-0.08,11.11,-0.20,0.38,-0.99
2546,-1.04,-0.08,11.11,-0.17,0.39,-0.96
2551,-2.76,-0.23,10.49,-0.17,0.39,-0.96
2556,-2.76,-0.23,10.49,-0.15,0.40,-0.91
2560,-2.76,-0.23,10.49,-0.12,0.36,-0.86
2566,-0.11,0.69,7.85,-0.12,0.36,-0.86
2571,-0.11,0.69,7.85,-0.19,0.21,-0.82
2576,-0.11,0.69,7.85,-0.18,0.11,-0.85
2581,-0.11,0.69,7.85,-0.20,0.03,-0.88
2586,2.57,-0.80,9.46,-0.20,0.03,-0.88
2591,2.57,-0.80,9.46,-0.19,0.01,-0.85
2595,2.57,-0.80,9.46,-0.18,0.03,-0.79
2601,2.57,-0.80,9.46,-0.18,0.09,-0.73
2606,2.57,-0.80,9.46,-0.14,0.15,-0.69
2611,2.57,-0.80,9.46,-0.12,0.19,-0.65
2615,2.57,-0.80,9.46,-0.11,0.25,-0.65
2621,2.57,-0.80,9.46,-0.06,0.27,-0.63
2625,-1.80,-1.07,10.45,-0.06,0.27,-0.63
2630,-1.80,-1.07,10.45,-0.04,0.30,-0.54
2637,-1.80,-1.07,10.45,-0.01,0.27,-0.43
2641,-1.80,-1.07,10.45,0.03,0.18,-0.32
2646,-1.80,-1.07,10.45,0.01,0.13,-0.30
2651,-1.80,-1.07,10.45,0.02,0.10,-0.32
2656,-1.80,-1.07,10.45,0.03,0.09,-0.32
2661,-1.80,-1.07,10.45,0.01,0.13,-0.29
2665,-1.80,-1.07,10.45,-0.04,0.15,-0.24
2671,4.06,-1.84,16.77,-0.04,0.15,-0.24
2676,4.06,-1.84,16.77,0.04,-0.01,-0.12
2680,4.06,-1.84,16.77,0.04,-0.07,-0.19
2686,4.06,-1.84,16.77,0.06,-0.05,-0.36
2691,4.79,-6.47,19.35,0.06,-0.05,-0.36
2696,4.79,-6.47,19.35,0.12,0.32,-0.72
2701,4.79,-6.47,19.35,0.15,0.60,-0.78
2706,-6.74,-2.22,6.55,0.15,0.60,-0.78
2711,-6.74,-2.22,6.55,0.07,1.07,-0.54
2715,-6.74,-2.22,6.55,-0.03,1.14,-0.42
2721,-6.74,-2.22,6.55,-0.11,1.07,-0.40
2726,-3.03,1.88,5.10,-0.11,1.07,-0.40
2731,-3.03,1.88,5.10,-0.12,0.66,-0.63
2735,-3.03,1.88,5.10,-0.01,0.39,-0.72
2741,-3.03,1.88,5.10,0.07,0.16,-0.66
2746,-3.03,1.88,5.10,0.13,-0.01,-0.49
2750,-3.03,1.88,5.10,0.14,-0.12,-0.27
2756,-3.03,1.88,5.10,0.14,-0.15,-0.14
2761,-1.76,1.99,9.31,0.14,-0.15,-0.14
2766,-1.76,1.99,9.31,0.09,-0.10,-0.17
2770,-1.76,1.99,9.31,0.04,-0.09,-0.26
2776,-1.76,4.45,7.28,0.04,-0.09,-0.26
2781,-1.76,4.45,7.28,-0.09,-0.03,-0.47
2785,-1.76,4.45,7.28,-0.14,0.02,-0.56
2791,0.80,-0.27,7.70,-0.14,0.02,-0.56
2796,0.80,-0.27,7.70,-0.16,0.03,-0.53
2800,0.80,-0.27,7.70,-0.15,-0.04,-0.51
2806,0.80,-0.27,7.70,-0.10,-0.13,-0.56
2811,8.20,-3.07,20.57,-0.10,-0.13,-0.56
2816,8.20,-3.07,20.57,0.09,0.42,-1.01
2820,8.20,-3.07,20.57,0.09,0.81,-1.15
2826,-3.83,-1.27,10.27,0.09,0.81,-1.15
2830,-3.83,-1.27,10.27,0.10,1.02,-1.21
2835,-3.83,-1.27,10.27,-0.03,1.06,-1.14
2841,-3.83,-1.27,10.27,-0.18,1.03,-1.06
2846,-1.72,7.09,6.32,-0.18,1.03,-1.06
2850,-1.72,7.09,6.32,-0.41,0.76,-1.14
2855,-1.72,7.09,6.32,-0.39,0.54,-1.26
2861,-1.72,7.09,6.32,-0.32,0.31,-1.31
2866,-1.72,7.09,6.32,-0.21,0.16,-1.24
2870,-1.72,7.09,6.32,-0.11,0.14,-1.09
2875,-1.72,7.09,6.32,-0.00,0.20,-0.88
2880,-1.72,7.09,6.32,0.03,0.34,-0.70
2885,-9.35,4.14,9.93,0.03,0.34,-0.70
2890,-9.35,4.14,9.93,0.04,0.46,-0.42
2896,-9.35,4.14,9.93,0.03,0.29,-0.33
2901,7.47,3.41,9.30,0.03,0.29,-0.33
2905,7.47,3.41,9.30,-0.05,-0.27,-0.40
2911,7.47,3.41,9.30,-0.08,-0.46,-0.53
2916,7.47,3.41,9.30,-0.11,-0.54,-0.66
2921,7.47,3.41,9.30,-0.10,-0.51,-0.71
2925,7.47,3.41,9.30,-0.12,-0.38,-0.69
2931,2.72,-8.58,13.68,-0.12,-0.38,-0.69
2936,2.72,-8.58,13.68,0.08,-0.01,-0.54
2940,2.72,-8.58,13.68,0.07,0.30,-0.60
2946,2.72,-8.58,13.68,0.02,0.45,-0.70
2950,2.72,-8.58,13.68,0.08,0.43,-0.81
2955,2.72,-8.58,13.68,0.07,0.37,-0.92
2960,2.72,-8.58,13.68,0.05,0.32,-1.00
2966,-0.77,-7.39,6.09,0.05,0.32,-1.00
2971,-0.77,-7.39,6.09,0.12,0.29,-0.88
2976,-0.77,-7.39,6.09,0.13,0.29,-0.74
2981,-0.77,-7.39,6.09,0.16,0.25,-0.62
2985,-0.77,-7.39,6.09,0.17,0.21,-0.60
2990,-0.77,-7.39,6.09,0.18,0.22,-0.67
2996,-0.77,-7.39,6.09,0.18,0.21,-0.74
3001,-0.77,-7.39,6.09,0.22,0.21,-0.71
3005,-7.78,-0.88,6.05,0.22,0.21,-0.71
3011,-7.78,-0.88,6.05,0.22,0.35,-0.51
3015,-7.78,-0.88,6.05,0.25,0.43,-0.37
3021,-7.55,1.23,9.23,0.25,0.43,-0.37
3025,-7.55,1.23,9.23,0.30,0.45,-0.08
3031,-7.55,1.23,9.23,0.36,0.35,0.04
3036,-0.34,1.38,13.29,0.36,0.35,0.04
3040,-0.34,1.38,13.29,0.41,0.11,0.03
3046,-0.34,1.38,13.29,0.39,0.03,-0.04
3051,-0.34,1.38,13.29,0.37,0.00,-0.08
3055,-0.34,1.38,13.29,0.33,0.00,-0.03
3060,-0.34,1.38,13.29,0.29,-0.02,0.10
3066,-0.34,1.38,13.29,0.22,-0.01,0.19
3071,-1.11,0.11,9.46,0.22,-0.01,0.19
3075,-1.11,0.11,9.46,0.11,-0.01,0.08
3081,-1.11,0.11,9.46,0.10,0.00,-0.08
3086,-0.54,-0.92,12.49,0.10,0.00,-0.08
3091,-0.54,-0.92,12.49,0.11,0.13,-0.37
3095,-0.54,-0.92,12.49,0.15,0.15,-0.38
3101,-0.54,-0.92,12.49,0.13,0.14,-0.38
3105,-0.54,-0.92,12.49,0.12,0.14,-0.38
3110,-0.54,-0.92,12.49,0.11,0.09,-0.40
3116,-0.54,-0.92,12.49,0.09,0.07,-0.45
3121,-0.54,-0.92,12.49,0.05,0.10,-0.51
3126,-0.54,-0.92,12.49,0.02,0.15,-0.59
3131,-0.54,-0.92,12.49,-0.01,0.24,-0.70
3135,-0.54,-0.92,12.49,0.00,0.31,-0.79
3141,-0.54,-0.92,12.49,0.02,0.31,-0.83
3146,-0.54,-0.92,12.49,0.05,0.29,-0.85
3151,-0.54,-0.92,12.49,0.04,0.27,-0.84
3156,-0.54,-0.92,12.49,0.01,0.24,-0.82
3160,2.26,1.46,9.35,0.01,0.24,-0.82
3166,2.26,1.46,9.35,-0.02,0.22,-0.81
3171,2.26,1.46,9.35,-0.03,0.22,-0.81
3175,2.26,1.46,9.35,-0.01,0.26,-0.82
3180,2.26,1.46,9.35,-0.04,0.30,-0.83
3185,2.26,1.46,9.35,-0.02,0.33,-0.83
3191,-2.38,2.91,8.39,-0.02,0.33,-0.83
3196,-2.38,2.91,8.39,-0.04,0.39,-0.83
3200,-2.38,2.91,8.39,-0.04,0.39,-0.83
3205,-2.38,2.91,8.39,-0.03,0.32,-0.78
3210,-0.42,1.00,9.84,-0.03,0.32,-0.78
3216,-0.42,1.00,9.84,-0.06,0.11,-0.67
3221,-0.42,1.00,9.84,-0.05,-0.04,-0.66
3225,-0.42,1.00,9.84,-0.04,-0.09,-0.73
3230,-0.42,1.00,9.84,-0.00,-0.07,-0.82
3235,-0.42,1.00,9.84,0.03,-0.01,-0.86
3241,-0.42,1.00,9.84,0.02,0.12,-0.84
3246,-0.42,1.00,9.84,0.00,0.27,-0.81
3251,-0.42,1.00,9.84,-0.03,0.34,-0.78
3255,-0.42,1.00,9.84,-0.07,0.37,-0.80
3261,-0.42,1.00,9.84,-0.11,0.36,-0.90
3265,-0.42,1.00,9.84,-0.10,0.31,-0.97
3271,-0.42,1.00,9.84,-0.05,0.27,-1.01
3276,-0.42,1.00,9.84,-0.03,0.25,-0.99
3280,-0.42,1.00,9.84,0.01,0.26,-0.95
3285,-0.42,1.00,9.84,0.07,0.25,-0.89
3291,-0.42,1.00,9.84,0.10,0.25,-0.87
3295,-0.42,1.00,9.84,0.13,0.30,-0.91
3300,-0.42,1.00,9.84,0.16,0.38,-0.94
3305,-0.42,1.00,9.84,0.16,0.45,-0.90
3311,-2.11,-1.00,9.73,0.16,0.45,-0.90
3315,-2.11,-1.00,9.73,0.16,0.52,-0.73
3320,-2.11,-1.00,9.73,0.13,0.46,-0.68
3326,-2.11,-1.00,9.73,0.12,0.39,-0.70
3331,-2.11,-1.00,9.73,0.13,0.32,-0.72
3335,-0.42,-1.91,10.53,0.13,0.32,-0.72
3340,-0.42,-1.91,10.53,0.17,0.23,-0.64
3346,-1.34,-2.34,10.42,0.17,0.23,-0.64
3350,-1.34,-2.34,10.42,0.24,0.26,-0.44
3356,-1.34,-2.34,10.42,0.25,0.28,-0.38
3361,-1.34,-2.34,10.42,0.26,0.30,-0.33
3365,-1.34,-2.34,10.42,0.27,0.28,-0.28
3371,-1.34,-2.34,10.42,0.26,0.25,-0.25
3375,-1.34,-2.34,10.42,0.27,0.25,-0.27
3381,-1.34,-2.34,10.42,0.28,0.27,-0.28
3385,-1.34,-2.34,10.42,0.30,0.28,-0.24
3391,-1.34,-2.34,10.42,0.30,0.27,-0.15
3395,-1.34,-2.34,10.42,0.30,0.23,-0.07
3401,-1.34,-2.34,10.42,0.28,0.19,-0.03
3406,-1.34,-2.34,10.42,0.23,0.13,-0.05
3410,-1.57,-2.76,8.12,0.23,0.13,-0.05
3416,-1.57,-2.76,8.12,0.19,0.06,-0.13
3421,-1.57,-2.76,8.12,0.18,0.05,-0.14
3426,-1.57,-2.76,8.12,0.23,0.05,-0.12
3431,-0.80,-3.33,10.27,0.23,0.05,-0.12
3436,1.80,-2.68,13.07,0.23,0.05,-0.12
3440,1.46,-1.38,11.84,0.23,0.05,-0.12
3445,1.46,-1.38,11.84,0.32,0.08,-0.00
3451,0.30,-1.99,10.07,0.32,0.08,-0.00
3456,-1.07,-2.57,8.84,0.32,0.08,-0.00
3460,-1.65,-1.49,7.51,0.32,0.08,-0.00
3466,-1.65,-1.49,7.51,0.27,0.27,-0.16
3471,-1.65,-1.49,7.51,0.25,0.26,-0.11
3475,-0.30,1.46,7.70,0.25,0.26,-0.11
3480,1.23,1.11,9.43,0.25,0.26,-0.11
3486,1.23,1.11,9.43,0.19,0.15,-0.19
3490,-0.38,0.23,9.27,0.19,0.15,-0.19
3495,-2.34,-1.42,8.93,0.19,0.15,-0.19
3501,-2.34,-1.42,8.93,0.16,0.15,-0.36
3506,-2.34,-1.42,8.93,0.17,0.16,-0.34
3510,1.95,-1.95,10.49,0.17,0.16,-0.34
3515,3.68,-0.65,10.35,0.17,0.16,-0.34
3521,3.68,-0.65,10.35,0.21,-0.04,-0.29
3526,3.68,-0.65,10.35,0.19,-0.07,-0.37
3530,1.68,-0.54,10.23,0.19,-0.07,-0.37
3536,0.84,-1.42,9.04,0.19,-0.07,-0.37
3541,0.84,-1.42,9.04,0.12,0.18,-0.57
3546,0.84,-1.42,9.04,0.11,0.29,-0.56
3551,0.84,-1.42,9.04,0.10,0.37,-0.55
3555,0.84,-1.42,9.04,0.13,0.36,-0.52
3560,0.84,-1.42,9.04,0.13,0.28,-0.50
3565,0.84,-1.42,9.04,0.14,0.19,-0.54
3570,0.84,-1.42,9.04,0.12,0.13,-0.64
3576,1.65,-0.92,10.84,0.12,0.13,-0.64
3581,1.65,-0.92,10.84,0.16,0.12,-0.69
3586,-1.91,-2.76,10.61,0.16,0.12,-0.69
3590,-1.53,-0.38,9.34,0.16,0.12,-0.69
3595,-1.91,0.27,8.84,0.16,0.12,-0.69
3601,-1.91,0.27,8.84,0.17,0.23,-0.50
3606,-1.91,0.27,8.84,0.13,0.21,-0.55
3610,-1.07,1.61,7.01,0.13,0.21,-0.55
3615,-1.23,0.88,8.04,0.13,0.21,-0.55
3621,-1.23,0.88,8.04,0.07,0.09,-0.60
3626,-1.23,0.88,8.04,0.07,0.03,-0.51
3630,2.34,-2.14,13.71,0.07,0.03,-0.51
3635,2.22,-2.14,14.06,0.07,0.03,-0.51
3641,2.22,-2.14,14.06,0.20,-0.02,-0.46
3646,2.22,-2.14,14.06,0.24,0.06,-0.46
3650,-3.56,0.23,8.58,0.24,0.06,-0.46
3655,-3.64,1.07,7.16,0.24,0.06,-0.46
3661,-3.64,1.07,7.16,0.18,0.38,-0.32
3666,-3.64,1.07,7.16,0.13,0.40,-0.26
3671,-2.38,1.34,6.97,0.13,0.40,-0.26
3675,0.54,-0.69,9.46,0.13,0.40,-0.26
3680,-0.73,-1.42,10.45,0.13,0.40,-0.26
3685,-0.73,-1.42,10.45,0.08,-0.06,-0.31
3691,-0.73,-1.42,10.45,0.12,-0.12,-0.32
3696,-0.73,-1.42,10.45,0.20,-0.13,-0.28
3701,-2.91,-1.53,10.11,0.20,-0.13,-0.28
3705,-2.53,-1.38,9.88,0.20,-0.13,-0.28
3711,-2.53,-1.38,9.88,0.21,0.09,-0.06
3715,-2.99,1.07,8.74,0.21,0.09,-0.06
3720,-3.75,0.69,8.28,0.21,0.09,-0.06
3726,-3.75,0.69,8.28,0.08,0.20,-0.23
3731,-3.75,0.69,8.28,0.08,0.19,-0.25
3735,-1.38,-2.03,9.88,0.08,0.19,-0.25
3740,-1.42,-2.22,11.03,0.08,0.19,-0.25
3746,-1.42,-2.22,11.03,0.10,0.10,-0.20
3750,0.00,-1.88,9.20,0.10,0.10,-0.20
3755,-1.42,-2.41,9.43,0.10,0.10,-0.20
3761,-1.42,-2.41,9.43,0.11,0.06,-0.20
3766,-1.42,-2.41,9.43,0.12,0.06,-0.19
3770,-2.22,-1.46,10.53,0.12,0.06,-0.19
3775,-1.68,-0.54,10.54,0.12,0.06,-0.19
3780,-1.65,-0.15,10.54,0.12,0.06,-0.19
3785,-1.65,-0.15,10.54,0.10,0.16,-0.26
3790,-1.65,-0.15,10.54,0.09,0.17,-0.26
3796,-1.65,-0.15,10.54,0.09,0.16,-0.29
3801,-1.65,-0.15,10.54,0.08,0.14,-0.32
3805,-0.11,-1.61,9.38,0.08,0.14,-0.32
3810,1.27,-1.42,9.73,0.08,0.14,-0.32
3815,1.27,-1.42,9.73,0.06,0.08,-0.28
3821,1.27,-1.42,9.73,0.06,0.04,-0.31
3826,1.27,-1.42,9.73,0.02,0.05,-0.40
3831,-0.96,0.61,7.89,0.02,0.05,-0.40
3835,-3.79,0.54,4.52,0.02,0.05,-0.40
3840,-4.45,1.11,4.25,0.02,0.05,-0.40
3846,-4.45,1.11,4.25,-0.05,0.21,-0.41
3851,-4.45,1.11,4.25,-0.05,0.16,-0.32
3855,5.55,1.11,13.98,-0.05,0.16,-0.32
3860,7.93,0.42,15.48,-0.05,0.16,-0.32
3866,7.93,0.42,15.48,-0.02,-0.30,-0.40
3870,3.10,-2.68,15.02,-0.02,-0.30,-0.40
3875,1.88,-3.33,13.45,-0.02,-0.30,-0.40
3880,-0.46,-2.80,12.38,-0.02,-0.30,-0.40
3885,-0.46,-2.80,12.38,0.08,0.14,-0.68
3890,-0.46,-2.80,12.38,0.06,0.34,-0.60
3895,-0.46,-2.80,12.38,-0.01,0.47,-0.57
3901,-0.46,-2.80,12.38,-0.10,0.51,-0.64
3905,1.53,3.48,9.50,-0.10,0.51,-0.64
3910,0.88,1.80,9.58,-0.10,0.51,-0.64
3915,-0.04,0.04,10.19,-0.10,0.51,-0.64
3920,-0.15,-1.53,10.15,-0.10,0.51,-0.64
3925,-0.15,-1.53,10.15,-0.12,0.15,-1.17
3931,-0.15,-1.53,10.15,-0.06,0.12,-1.04
3936,-0.15,-1.53,10.15,-0.04,0.09,-0.91
3940,1.95,0.92,9.69,-0.04,0.09,-0.91
3945,1.95,0.92,9.69,-0.09,-0.01,-1.04
3950,2.03,1.68,10.03,-0.09,-0.01,-1.04
3956,0.69,0.30,9.89,-0.09,-0.01,-1.04
3961,-0.08,-0.65,10.19,-0.09,-0.01,-1.04
3965,0.88,0.23,10.65,-0.09,-0.01,-1.04
3970,1.00,1.34,11.34,-0.09,-0.01,-1.04
3975,1.23,1.76,10.99,-0.09,-0.01,-1.04
3980,0.46,1.61,10.19,-0.09,-0.01,-1.04
3986,1.57,1.04,10.95,-0.09,-0.01,-1.04
3990,1.00,-0.15,10.73,-0.09,-0.01,-1.04
3995,0.27,-1.53,10.61,-0.09,-0.01,-1.04
4000,-0.08,-2.30,10.11,-0.09,-0.01,-1.04
4006,-0.08,-2.30,10.11,0.05,0.20,-1.06
4010,-1.72,-1.15,11.42,0.05,0.20,-1.06
4015,-2.18,-1.57,10.04,0.05,0.20,-1.06
4021,-0.84,-0.80,10.07,0.05,0.20,-1.06
4025,-1.84,-0.15,8.58,0.05,0.20,-1.06
4030,-1.84,-0.38,8.31,0.05,0.20,-1.06
4035,-1.23,-1.00,8.31,0.05,0.20,-1.06
4041,-1.53,-0.69,8.89,0.05,0.20,-1.06
4045,2.26,-2.49,12.26,0.05,0.20,-1.06
4050,4.29,-3.29,12.30,0.05,0.20,-1.06
4055,4.83,-3.91,13.41,0.05,0.20,-1.06
4061,4.83,-3.91,13.41,0.26,0.00,-0.73
4065,-1.49,-3.95,11.38,0.26,0.00,-0.73
4070,-3.64,-3.68,10.88,0.26,0.00,-0.73
4076,-3.64,-3.68,10.88,0.36,0.39,-0.75
4080,-8.96,-0.23,6.86,0.36,0.39,-0.75
4085,-7.09,0.80,7.47,0.36,0.39,-0.75
4091,-6.32,1.07,7.09,0.36,0.39,-0.75
4095,-1.23,0.61,7.73,0.36,0.39,-0.75
4100,-0.34,-0.11,8.54,0.36,0.39,-0.75
4105,-0.08,-1.84,8.81,0.36,0.39,-0.75
4111,-0.08,-1.84,8.81,0.36,-0.06,-0.30
4115,0.92,-5.94,11.22,0.36,-0.06,-0.30
4120,0.46,-4.48,12.11,0.36,-0.06,-0.30
4126,0.46,-4.48,12.11,0.49,-0.28,0.00
4131,-2.14,-1.88,10.27,0.49,-0.28,0.00
4135,-2.14,-1.88,10.27,0.50,0.15,0.05
4140,-3.03,0.08,8.58,0.50,0.15,0.05
4145,-1.72,-0.19,8.70,0.50,0.15,0.05
4150,-1.68,-1.04,7.09,0.50,0.15,0.05
4155,-1.34,-1.46,7.63,0.50,0.15,0.05
4161,-0.73,-1.19,6.89,0.50,0.15,0.05
4165,-0.65,-3.29,7.51,0.50,0.15,0.05
4170,-1.00,-3.52,7.70,0.50,0.15,0.05
4176,-0.46,-3.91,9.30,0.50,0.15,0.05
4180,1.38,-3.18,10.41,0.50,0.15,0.05
4185,0.08,-3.71,9.81,0.50,0.15,0.05
4190,0.69,-3.37,11.11,0.50,0.15,0.05
4196,0.69,-3.37,11.11,0.46,-0.08,0.14
4201,1.04,-2.61,10.27,0.46,-0.08,0.14
4205,1.04,-2.61,10.27,0.46,0.03,-0.03
4210,0.08,-1.11,8.66,0.46,0.03,-0.03
4215,-1.11,-0.65,7.97,0.46,0.03,-0.03
4220,-0.08,-0.65,8.04,0.46,0.03,-0.03
4227,0.19,-0.30,7.17,0.46,0.03,-0.03
4230,0.38,-0.19,7.93,0.46,0.03,-0.03
4235,2.14,-0.15,9.61,0.46,0.03,-0.03
4240,2.14,-0.15,9.61,0.33,0.03,-0.20
4245,1.80,-0.57,9.39,0.33,0.03,-0.20
4250,1.00,-1.61,10.34,0.33,0.03,-0.20
4256,1.00,-1.61,10.34,0.37,-0.03,-0.23
4262,0.04,-0.77,10.00,0.37,-0.03,-0.23
4265,0.34,0.50,10.07,0.37,-0.03,-0.23
4270,1.34,1.19,10.65,0.37,-0.03,-0.23
4275,2.80,0.92,11.11,0.37,-0.03,-0.23
4281,3.22,0.96,11.50,0.37,-0.03,-0.23
4286,-0.38,0.69,10.31,0.37,-0.03,-0.23
4290,-0.38,0.69,10.31,0.29,0.10,-0.38
4295,-0.38,0.69,10.31,0.29,0.13,-0.33
4300,-0.04,0.00,8.46,0.29,0.13,-0.33
4305,0.42,0.38,8.54,0.29,0.13,-0.33
4310,0.77,0.77,8.96,0.29,0.13,-0.33
4315,0.77,0.73,9.34,0.29,0.13,-0.33
4321,0.77,0.73,9.34,0.26,0.04,-0.39
4326,-1.00,0.15,9.27,0.26,0.04,-0.39
4330,-1.61,-0.23,9.30,0.26,0.04,-0.39
4335,-3.37,0.23,9.30,0.26,0.04,-0.39
4340,-3.87,-0.23,9.04,0.26,0.04,-0.39
4345,-2.57,-0.77,9.77,0.26,0.04,-0.39
4351,-0.69,-0.46,9.81,0.26,0.04,-0.39
4356,1.38,0.08,9.58,0.26,0.04,-0.39
4360,1.38,0.08,9.58,0.24,-0.11,-0.38
4365,2.18,-0.92,9.81,0.24,-0.11,-0.38
4370,0.38,-1.84,10.23,0.24,-0.11,-0.38
4375,-1.65,-2.61,9.69,0.24,-0.11,-0.38
4380,-2.87,-2.87,9.80,0.24,-0.11,-0.38
4386,-3.75,-1.80,9.00,0.24,-0.11,-0.38
4392,-4.29,0.42,8.84,0.24,-0.11,-0.38
4395,-4.29,0.42,8.84,0.34,0.33,-0.26
4400,-0.34,0.61,9.85,0.34,0.33,-0.26
4405,-0.19,0.38,9.00,0.34,0.33,-0.26
4410,0.38,-0.88,9.12,0.34,0.33,-0.26
4415,0.00,-2.03,9.04,0.34,0.33,-0.26
4421,-0.65,-2.49,9.96,0.34,0.33,-0.26
4426,-2.03,-3.10,9.00,0.34,0.33,-0.26
4430,-2.03,-3.10,9.00,0.34,-0.01,-0.09
4435,-2.03,-3.10,9.00,0.41,0.01,-0.08
4440,-3.95,-4.71,8.73,0.41,0.01,-0.08
4445,-5.21,-1.88,8.66,0.41,0.01,-0.08
4451,-2.22,-1.88,7.36,0.41,0.01,-0.08
4455,-3.22,-1.61,7.73,0.41,0.01,-0.08
4460,-3.83,-2.84,8.66,0.41,0.01,-0.08
4465,-1.68,-3.03,8.54,0.41,0.01,-0.08
4471,1.61,-4.75,11.46,0.41,0.01,-0.08
4476,1.04,-3.95,13.95,0.41,0.01,-0.08
4480,1.04,-3.95,13.95,0.55,-0.15,0.14
4485,0.77,-3.71,12.06,0.55,-0.15,0.14
4490,-1.07,-3.33,10.27,0.55,-0.15,0.14
4496,-3.33,-1.88,8.96,0.55,-0.15,0.14
4502,-4.14,-0.92,7.47,0.55,-0.15,0.14
4505,-2.38,-1.15,5.63,0.55,-0.15,0.14
4510,-1.72,-0.77,6.12,0.55,-0.15,0.14
4515,-2.22,-0.50,5.86,0.55,-0.15,0.14
4521,-2.18,0.08,7.89,0.55,-0.15,0.14
4526,0.57,-2.53,7.77,0.55,-0.15,0.14
4530,0.57,-2.53,7.77,0.47,-0.24,0.17
4535,0.57,-2.53,7.77,0.50,-0.29,0.21
4541,-0.46,-2.87,9.73,0.50,-0.29,0.21
4547,1.11,-2.80,10.50,0.50,-0.29,0.21
4550,1.11,-2.80,10.50,0.53,-0.24,0.36
4555,1.11,-2.80,10.50,0.51,-0.19,0.37
4560,-0.88,0.77,8.54,0.51,-0.19,0.37
4565,-2.03,0.77,9.08,0.51,-0.19,0.37
4572,-2.14,-0.19,8.74,0.51,-0.19,0.37
4575,-0.77,-1.19,9.46,0.51,-0.19,0.37
4580,-1.27,-1.11,9.20,0.51,-0.19,0.37
4587,0.42,-1.46,10.07,0.51,-0.19,0.37
4590,-0.23,-1.61,10.41,0.51,-0.19,0.37
4595,-0.77,-1.99,8.96,0.51,-0.19,0.37
4602,-0.61,-2.53,9.04,0.51,-0.19,0.37
4605,-0.61,-2.53,9.04,0.47,-0.14,0.56
4610,-0.08,-2.22,8.96,0.47,-0.14,0.56
4615,-0.30,-2.34,8.46,0.47,-0.14,0.56
4622,-0.73,-1.30,9.00,0.47,-0.14,0.56
4625,-0.38,-1.88,10.77,0.47,-0.14,0.56
4630,0.57,-1.65,11.57,0.47,-0.14,0.56
4635,-0.19,-2.80,10.46,0.47,-0.14,0.56
4640,-0.19,-2.80,10.46,0.43,-0.06,0.56
4645,-0.84,-2.41,8.88,0.43,-0.06,0.56
4650,-0.84,-2.41,8.88,0.44,-0.04,0.54
4657,-1.38,-1.27,8.20,0.44,-0.04,0.54
4662,-0.96,-1.46,8.31,0.44,-0.04,0.54
4665,-0.96,-1.46,8.31,0.36,-0.10,0.48
4670,-0.96,-1.46,8.31,0.30,-0.14,0.42
4675,-0.96,-1.46,8.31,0.29,-0.15,0.36
4680,-0.84,-1.61,8.46,0.29,-0.15,0.36
4686,-1.11,-1.99,7.51,0.29,-0.15,0.36
4690,-1.11,-1.99,7.51,0.27,-0.08,0.35
4696,-1.11,-1.99,7.51,0.26,-0.06,0.34
4701,-0.50,0.38,9.08,0.26,-0.06,0.34
4705,-0.50,0.38,9.08,0.23,-0.05,0.29
4710,1.27,0.00,10.57,0.23,-0.05,0.29
4715,1.23,-0.19,10.19,0.23,-0.05,0.29
4722,0.96,-0.77,10.38,0.23,-0.05,0.29
4725,0.96,-0.77,10.38,0.28,-0.03,0.32
4730,-0.27,0.92,8.54,0.28,-0.03,0.32
4737,0.57,0.84,8.88,0.28,-0.03,0.32
4740,0.57,0.84,8.88,0.25,0.03,0.34
4746,-1.04,1.46,8.54,0.25,0.03,0.34
4751,-0.46,1.46,8.89,0.25,0.03,0.34
4755,-0.46,1.46,8.89,0.18,0.02,0.30
4760,-0.46,1.46,8.89,0.15,0.01,0.29
4765,-0.84,1.53,9.88,0.15,0.01,0.29
4772,-1.84,1.88,9.77,0.15,0.01,0.29
4775,-1.84,1.88,9.77,0.10,-0.05,0.24
4781,0.08,0.42,8.96,0.10,-0.05,0.24
4787,-0.34,0.42,8.39,0.10,-0.05,0.24
4790,-0.34,0.42,8.39,0.05,-0.18,0.24
4795,-0.34,0.42,8.39,0.05,-0.18,0.25
4800,-0.77,1.04,9.34,0.05,-0.18,0.25
4807,-0.88,1.19,9.65,0.05,-0.18,0.25
4810,-0.88,1.19,9.65,0.01,-0.02,0.22
4816,-0.88,1.19,9.65,0.00,0.03,0.21
4822,-0.34,0.69,9.69,0.00,0.03,0.21
4825,-0.34,0.69,9.69,-0.00,0.03,0.18
4830,-0.34,0.69,9.69,-0.01,0.03,0.17
4835,-1.07,0.57,10.07,-0.01,0.03,0.17
4841,-1.11,0.42,10.00,-0.01,0.03,0.17
4845,-1.11,0.42,10.00,-0.03,0.04,0.15
4850,-0.77,0.61,9.43,-0.03,0.04,0.15
4855,-1.00,1.00,9.39,-0.03,0.04,0.15
4862,-1.46,0.73,9.35,-0.03,0.04,0.15
4866,-1.46,0.73,9.35,-0.07,0.00,0.09
4871,-3.14,0.73,8.46,-0.07,0.00,0.09
4875,-2.18,0.77,8.66,-0.07,0.00,0.09
4882,-2.99,0.46,6.51,-0.07,0.00,0.09
4886,-2.38,1.53,6.75,-0.07,0.00,0.09
4891,-1.99,2.14,8.04,-0.07,0.00,0.09
4895,-1.99,2.14,8.04,-0.17,-0.08,0.00
4901,-1.99,2.14,8.04,-0.19,-0.14,-0.01
4907,1.42,0.27,11.91,-0.19,-0.14,-0.01
4910,1.42,0.27,11.91,-0.21,-0.19,-0.04
4915,1.42,0.27,11.91,-0.17,-0.15,-0.06
4920,-0.69,-1.88,10.11,-0.17,-0.15,-0.06
4825,-0.34,0.69,9.69,-0.00,0.03,0.18
4830,-0.34,0.69,9.69,-0.01,0.03,0.17
4835,-1.07,0.57,10.07,-0.01,0.03,0.17
4841,-1.11,0.42,10.00,-0.01,0.03,0.17
4845,-1.11,0.42,10.00,-0.03,0.04,0.15
4850,-0.77,0.61,9.43,-0.03,0.04,0.15
4855,-1.00,1.00,9.39,-0.03,0.04,0.15
4862,-1.46,0.73,9.35,-0.03,0.04,0.15
4866,-1.46,0.73,9.35,-0.07,0.00,0.09
4871,-3.14,0.73,8.46,-0.07,0.00,0.09
4875,-2.18,0.77,8.66,-0.07,0.00,0.09
4882,-2.99,0.46,6.51,-0.07,0.00,0.09
4886,-2.38,1.53,6.75,-0.07,0.00,0.09
4891,-1.99,2.14,8.04,-0.07,0.00,0.09
4895,-1.99,2.14,8.04,-0.17,-0.08,0.00
4901,-1.99,2.14,8.04,-0.19,-0.14,-0.01
