timestamp,accX,accY,accZ,gyroX,gyroY,gyroZ
Right
7,0.88,-2.57,9.23,-0.03,-0.00,-0.45
19,0.88,-2.57,9.23,-0.01,-0.02,-0.45
20,0.88,-2.57,9.23,0.07,0.02,0.12
22,0.11,-1.04,9.46,0.07,0.02,0.12
26,0.11,-1.04,9.46,0.09,-0.05,0.12
31,-2.26,-0.88,10.53,0.09,-0.05,0.12
36,-2.26,-0.88,10.53,0.09,0.01,0.16
42,-1.80,-0.42,11.19,0.09,0.01,0.16
46,-1.80,-0.42,11.19,0.12,0.05,0.22
51,-1.80,-0.42,11.19,0.12,0.04,0.22
56,-1.80,-0.42,11.19,0.11,0.05,0.19
61,-1.80,-0.42,11.19,0.12,0.03,0.21
66,-1.80,-0.42,11.19,0.12,0.01,0.23
72,-1.80,-0.42,11.19,0.13,0.00,0.24
76,-1.80,-0.42,11.19,0.14,0.03,0.25
81,-1.80,-0.42,11.19,0.15,0.04,0.29
86,-1.80,-0.42,11.19,0.13,0.08,0.31
91,-1.80,-0.42,11.19,0.14,0.12,0.29
96,-1.80,-0.42,11.19,0.12,0.13,0.30
101,-1.80,-0.42,11.19,0.12,0.11,0.30
108,-0.84,-1.46,8.92,0.12,0.11,0.30
111,-0.84,-1.46,8.92,0.14,0.09,0.31
116,-0.84,-1.46,8.92,0.14,0.09,0.35
121,-0.84,-1.46,8.92,0.15,0.08,0.38
126,-0.84,-1.46,8.92,0.14,0.10,0.39
131,-0.84,-1.46,8.92,0.12,0.13,0.39
136,-0.84,-1.46,8.92,0.13,0.14,0.40
142,-3.87,0.15,7.51,0.13,0.14,0.40
146,-3.87,0.15,7.51,0.12,0.12,0.39
152,-3.87,0.15,7.51,0.10,0.10,0.39
156,-3.87,0.15,7.51,0.10,0.04,0.43
162,-0.69,-1.15,7.05,0.10,0.04,0.43
166,-0.69,-1.15,7.05,0.08,-0.08,0.42
171,-0.69,-1.15,7.05,0.08,-0.09,0.40
177,-1.49,-0.96,8.36,0.08,-0.09,0.40
181,-1.49,-0.96,8.36,0.08,-0.03,0.46
186,-1.49,-0.96,8.36,0.10,0.02,0.48
192,-1.49,-0.96,8.36,0.10,0.05,0.46
196,-1.49,-0.96,8.36,0.10,0.07,0.44
201,-1.49,-0.96,8.36,0.12,0.09,0.46
206,-1.49,-0.96,8.36,0.14,0.12,0.50
212,0.04,-1.46,8.24,0.14,0.12,0.50
216,0.04,-1.46,8.24,0.09,0.08,0.53
221,0.04,-1.46,8.24,0.06,0.07,0.51
227,0.04,-1.46,8.24,0.07,0.03,0.51
232,-1.68,-1.34,9.27,0.07,0.03,0.51
236,-1.68,-1.34,9.27,0.07,0.02,0.55
241,-1.68,-1.34,9.27,0.06,0.04,0.55
247,-3.95,-0.73,9.61,0.06,0.04,0.55
251,-3.95,-0.73,9.61,0.03,0.03,0.58
256,-3.95,-0.73,9.61,0.02,-0.02,0.57
262,-3.95,-0.73,9.61,0.01,-0.08,0.54
267,0.42,-0.80,8.42,0.01,-0.08,0.54
271,0.42,-0.80,8.42,0.01,-0.15,0.51
276,0.42,-0.80,8.42,-0.03,-0.16,0.54
282,7.78,-3.41,23.10,-0.03,-0.16,0.54
286,7.78,-3.41,23.10,0.04,-0.24,0.51
291,7.78,-3.41,23.10,0.08,-0.17,0.40
296,7.78,-3.41,23.10,0.10,-0.01,0.27
301,7.78,-3.41,23.10,0.25,0.17,0.24
306,0.38,-2.11,15.52,0.25,0.17,0.24
311,-3.56,0.96,9.34,0.25,0.17,0.24
317,-4.63,3.91,4.02,0.25,0.17,0.24
321,-4.63,3.91,4.02,0.09,1.02,0.49
326,-4.63,3.91,4.02,-0.06,1.09,0.40
332,-4.63,3.91,4.02,-0.19,0.98,0.30
336,-4.63,3.91,4.02,-0.21,0.74,0.21
341,-4.63,3.91,4.02,-0.19,0.46,0.16
346,-4.63,3.91,4.02,-0.16,0.16,0.21
352,-3.83,-3.60,3.98,-0.16,0.16,0.21
356,-3.83,-3.60,3.98,-0.10,-0.42,0.44
361,-3.83,-3.60,3.98,-0.13,-0.61,0.41
367,-1.27,3.07,9.16,-0.13,-0.61,0.41
371,-1.27,3.07,9.16,-0.18,-0.64,0.14
376,-1.27,3.07,9.16,-0.18,-0.58,0.09
381,-1.27,3.07,9.16,-0.18,-0.43,0.10
387,8.08,0.27,7.51,-0.18,-0.43,0.10
391,8.08,0.27,7.51,-0.13,-0.30,0.43
396,8.08,0.27,7.51,-0.24,-0.21,0.41
402,9.35,2.26,9.35,-0.24,-0.21,0.41
406,9.35,2.26,9.35,-0.33,-0.23,0.19
412,9.35,2.26,9.35,-0.31,-0.20,0.15
416,9.35,2.26,9.35,-0.37,-0.07,0.15
422,1.53,-0.96,10.27,-0.37,-0.07,0.15
426,1.53,-0.96,10.27,-0.26,0.05,0.38
431,1.53,-0.96,10.27,-0.22,0.08,0.45
437,2.61,2.34,8.73,-0.22,0.08,0.45
441,2.61,2.34,8.73,-0.27,0.03,0.47
446,2.61,2.34,8.73,-0.31,0.00,0.39
452,2.61,2.34,8.73,-0.34,-0.05,0.30
457,2.49,-0.19,11.53,-0.34,-0.05,0.30
461,2.49,-0.19,11.53,-0.30,-0.03,0.21
466,2.49,-0.19,11.53,-0.30,0.01,0.25
472,0.23,-3.26,10.57,-0.30,0.01,0.25
476,0.23,-3.26,10.57,-0.26,0.08,0.29
481,0.23,-3.26,10.57,-0.32,0.12,0.19
486,0.23,-3.26,10.57,-0.29,0.10,0.08
492,-1.27,-1.07,8.66,-0.29,0.10,0.08
496,-1.27,-1.07,8.66,-0.35,0.08,-0.05
501,-1.27,-1.07,8.66,-0.36,0.05,-0.03
507,-1.57,1.88,9.73,-0.36,0.05,-0.03
511,-1.57,1.88,9.73,-0.36,0.08,-0.05
516,-1.57,1.88,9.73,-0.41,0.14,-0.09
521,-1.57,1.88,9.73,-0.40,0.12,-0.04
527,-2.38,0.04,10.00,-0.40,0.12,-0.04
532,-2.38,0.04,10.00,-0.37,0.03,-0.03
536,-2.38,0.04,10.00,-0.36,-0.03,-0.06
542,0.96,0.15,10.19,-0.36,-0.03,-0.06
546,0.96,0.15,10.19,-0.30,-0.08,0.01
551,0.96,0.15,10.19,-0.34,0.01,-0.02
557,0.96,0.15,10.19,-0.41,0.13,-0.03
562,-2.30,0.88,9.46,-0.41,0.13,-0.03
566,-2.30,0.88,9.46,-0.38,0.16,0.03
571,-2.30,0.88,9.46,-0.39,0.13,0.03
577,-5.67,1.68,10.23,-0.39,0.13,0.03
581,-5.67,1.68,10.23,-0.41,0.15,-0.01
586,-5.67,1.68,10.23,-0.39,0.19,0.02
592,-5.67,1.68,10.23,-0.38,0.15,0.11
596,-5.67,1.68,10.23,-0.35,0.00,0.24
601,-5.67,1.68,10.23,-0.37,-0.14,0.28
607,-5.67,1.68,10.23,-0.39,-0.36,0.26
612,11.95,-3.91,11.15,-0.39,-0.36,0.26
616,11.95,-3.91,11.15,-0.39,-0.69,0.11
621,11.95,-3.91,11.15,-0.47,-0.65,-0.01
627,11.95,-3.91,11.15,-0.46,-0.51,-0.07
631,11.95,-3.91,11.15,-0.43,-0.33,-0.01
636,11.95,-3.91,11.15,-0.43,-0.14,0.10
642,11.95,-3.91,11.15,-0.42,0.05,0.13
647,-2.61,2.34,11.07,-0.42,0.05,0.13
652,-2.61,2.34,11.07,-0.44,0.38,0.01
656,-2.61,2.34,11.07,-0.45,0.42,0.00
662,2.84,-3.07,8.70,-0.45,0.42,0.00
666,2.84,-3.07,8.70,-0.38,0.16,0.10
671,2.84,-3.07,8.70,-0.38,0.01,0.09
676,2.84,-3.07,8.70,-0.36,-0.06,0.04
682,-1.23,-2.34,5.64,-0.36,-0.06,0.04
686,-1.23,-2.34,5.64,-0.36,-0.03,0.12
691,-1.23,-2.34,5.64,-0.38,0.05,0.17
697,-7.43,3.48,5.13,-0.38,0.05,0.17
701,-7.43,3.48,5.13,-0.55,0.23,0.03
706,-7.43,3.48,5.13,-0.57,0.23,-0.07
711,-7.43,3.48,5.13,-0.55,0.18,-0.12
717,-6.47,1.34,5.25,-0.55,0.18,-0.12
721,-6.47,1.34,5.25,-0.56,0.06,-0.08
726,-6.47,1.34,5.25,-0.51,-0.04,-0.01
732,-4.71,1.76,7.55,-0.51,-0.04,-0.01
736,-4.71,1.76,7.55,-0.50,-0.10,0.01
741,-4.71,1.76,7.55,-0.51,-0.13,0.01
746,-4.71,1.76,7.55,-0.49,-0.13,-0.05
752,-0.38,1.42,10.73,-0.49,-0.13,-0.05
756,-0.38,1.42,10.73,-0.56,-0.03,-0.23
761,-0.38,1.42,10.73,-0.54,0.00,-0.28
767,-1.00,1.76,11.99,-0.54,0.00,-0.28
771,-1.00,1.76,11.99,-0.55,0.17,-0.41
776,-1.00,1.76,11.99,-0.56,0.27,-0.47
781,-1.00,1.76,11.99,-0.53,0.38,-0.53
787,-4.94,3.64,11.19,-0.53,0.38,-0.53
791,-4.94,3.64,11.19,-0.65,0.54,-0.65
796,-4.94,3.64,11.19,-0.65,0.48,-0.72
801,-2.87,2.95,7.47,-0.65,0.48,-0.72
807,-2.87,2.95,7.47,-0.68,0.41,-0.84
811,1.00,0.61,7.39,-0.68,0.41,-0.84
817,1.00,0.61,7.39,-0.75,0.08,-1.02
822,0.11,1.95,9.84,-0.75,0.08,-1.02
826,0.11,1.95,9.84,-0.77,-0.05,-1.08
831,0.11,1.95,9.84,-0.81,-0.11,-1.13
837,3.98,2.45,11.22,-0.81,-0.11,-1.13
841,3.98,2.45,11.22,-0.82,-0.10,-1.36
846,3.98,2.45,11.22,-0.82,-0.03,-1.44
852,-0.61,1.84,10.23,-0.82,-0.03,-1.44
856,-0.61,1.84,10.23,-0.81,0.19,-1.46
861,-0.61,1.84,10.23,-0.80,0.22,-1.46
866,-0.61,1.84,10.23,-0.76,0.25,-1.50
872,-4.33,4.94,10.88,-0.76,0.25,-1.50
876,-4.33,4.94,10.88,-0.82,0.32,-1.60
881,-4.33,4.94,10.88,-0.78,0.19,-1.58
887,2.68,3.64,11.53,-0.78,0.19,-1.58
891,2.68,3.64,11.53,-0.88,0.07,-1.91
896,2.68,3.64,11.53,-0.90,0.09,-2.07
901,2.68,3.64,11.53,-0.86,0.14,-2.10
907,3.18,0.57,8.46,-0.86,0.14,-2.10
911,3.18,0.57,8.46,-0.86,0.12,-1.92
916,3.18,0.57,8.46,-0.92,0.07,-1.98
921,3.18,0.57,8.46,-0.94,0.05,-2.17
926,4.41,5.05,11.92,-0.94,0.05,-2.17
932,4.41,5.05,11.92,-0.96,0.07,-2.35
937,4.41,5.05,11.92,-0.93,0.18,-2.59
942,2.11,1.11,12.79,-0.93,0.18,-2.59
946,2.11,1.11,12.79,-0.85,0.37,-2.63
951,2.11,1.11,12.79,-0.84,0.42,-2.63
957,-0.23,2.80,9.04,-0.84,0.42,-2.63
961,-0.23,2.80,9.04,-0.84,0.42,-2.71
966,-0.23,2.80,9.04,-0.83,0.30,-2.79
971,-0.23,2.80,9.04,-0.80,0.18,-2.89
977,-1.53,1.30,10.19,-0.80,0.18,-2.89
981,-1.53,1.30,10.19,-0.79,0.22,-3.02
987,-1.53,1.30,10.19,-0.70,0.19,-2.92
992,-1.11,3.10,5.98,-0.70,0.19,-2.92
996,-1.11,3.10,5.98,-0.76,0.32,-2.96
1001,-1.11,3.10,5.98,-0.71,0.37,-2.92
1006,-1.11,3.10,5.98,-0.71,0.39,-2.83
1011,2.38,-0.73,10.11,-0.71,0.39,-2.83
1017,2.38,-0.73,10.11,-0.69,0.40,-2.76
1022,2.38,-0.73,10.11,-0.53,0.38,-2.67
1026,2.38,-0.73,10.11,-0.47,0.41,-2.61
1031,2.38,-0.73,10.11,-0.28,0.45,-2.46
1036,2.38,-0.73,10.11,-0.08,0.53,-2.28
1042,2.38,-0.73,10.11,-0.03,0.65,-2.06
1046,2.38,-0.73,10.11,0.06,0.76,-1.85
1051,2.38,-0.73,10.11,0.12,0.80,-1.69
1057,2.38,-0.73,10.11,0.07,0.79,-1.60
1062,2.38,-0.73,10.11,0.18,0.72,-1.50
1066,2.38,-0.73,10.11,0.23,0.65,-1.37
1071,2.38,-0.73,10.11,0.25,0.60,-1.22
1076,-0.19,-4.90,11.72,0.25,0.60,-1.22
1082,0.04,-6.05,13.37,0.25,0.60,-1.22
1086,0.04,-6.05,13.37,0.41,0.56,-0.85
1091,0.04,-6.05,13.37,0.49,0.59,-0.71
1097,0.11,-7.39,9.81,0.49,0.59,-0.71
1101,0.11,-7.39,9.81,0.63,0.62,-0.30
1106,0.11,-7.39,9.81,0.62,0.60,-0.13
1112,-5.52,-4.83,5.74,0.62,0.60,-0.13
1116,-5.52,-4.83,5.74,0.69,0.58,0.17
1121,-5.52,-4.83,5.74,0.66,0.56,0.31
1126,-5.52,-4.83,5.74,0.75,0.49,0.50
1131,-8.96,-3.29,2.49,0.75,0.49,0.50
1137,-8.96,-3.29,2.49,0.80,0.40,0.69
1141,-8.96,-3.29,2.49,0.79,0.18,1.02
1146,-8.96,-3.29,2.49,0.81,-0.05,1.22
1151,-8.96,-3.29,2.49,0.79,-0.29,1.33
1156,-8.96,-3.29,2.49,0.79,-0.46,1.36
1161,-8.96,-3.29,2.49,0.90,-0.55,1.39
1167,2.41,-8.77,13.79,0.90,-0.55,1.39
1171,2.41,-8.77,13.79,0.91,-0.47,1.57
1176,2.41,-8.77,13.79,0.90,-0.31,1.63
1182,2.41,-8.77,13.79,0.88,-0.11,1.65
1186,2.41,-8.77,13.79,0.90,0.03,1.66
1191,2.41,-8.77,13.79,0.85,0.12,1.66
1196,2.41,-8.77,13.79,0.85,0.21,1.61
1202,-0.50,-5.17,11.61,0.85,0.21,1.61
1206,-0.50,-5.17,11.61,0.88,0.44,1.52
1211,-0.50,-5.17,11.61,0.88,0.49,1.61
1217,-6.02,-4.56,6.36,0.88,0.49,1.61
1221,-6.02,-4.56,6.36,0.85,0.54,1.77
1226,-6.02,-4.56,6.36,0.76,0.44,1.77
1232,-3.33,0.42,7.27,0.76,0.44,1.77
1236,-3.33,0.42,7.27,0.68,0.17,1.62
1241,-3.33,0.42,7.27,0.62,0.01,1.57
1246,-3.33,0.42,7.27,0.61,-0.11,1.57
1252,0.57,-1.00,10.50,0.61,-0.11,1.57
1256,0.57,-1.00,10.50,0.51,-0.30,1.62
1261,0.57,-1.00,10.50,0.49,-0.34,1.58
1266,0.57,-1.00,10.50,0.39,-0.32,1.46
1271,2.49,-1.76,10.04,0.39,-0.32,1.46
1277,2.49,-1.76,10.04,0.34,-0.26,1.31
1282,2.49,-1.76,10.04,0.28,-0.23,1.17
1286,2.49,-1.76,10.04,0.23,-0.14,1.04
1291,2.49,-1.76,10.04,0.20,-0.08,0.96
1296,2.49,-1.76,10.04,0.15,-0.03,0.91
1302,2.49,-1.76,10.04,0.08,-0.04,0.83
1306,2.49,-1.76,10.04,0.02,-0.11,0.68
1311,2.49,-1.76,10.04,0.00,-0.15,0.48
1316,2.49,-1.76,10.04,-0.07,-0.17,0.27
1322,2.49,-1.76,10.04,-0.07,-0.16,0.11
1326,2.49,-1.76,10.04,-0.04,-0.10,0.03
1331,2.49,-1.76,10.04,-0.12,0.03,-0.02
1337,-3.75,4.18,5.44,-0.12,0.03,-0.02
1341,-3.75,4.18,5.44,-0.25,0.26,-0.09
1346,-3.75,4.18,5.44,-0.31,0.32,-0.15
1352,-3.75,4.18,5.44,-0.39,0.30,-0.25
1356,-3.75,4.18,5.44,-0.39,0.13,-0.32
1361,-3.75,4.18,5.44,-0.31,-0.08,-0.41
1366,-3.75,4.18,5.44,-0.31,-0.18,-0.51
1372,2.11,1.49,10.00,-0.31,-0.18,-0.51
1376,2.11,1.49,10.00,-0.25,-0.18,-0.51
1381,2.11,1.49,10.00,-0.34,-0.10,-0.47
1387,2.11,1.49,10.00,-0.44,0.02,-0.48
1391,2.11,1.49,10.00,-0.50,0.05,-0.55
1396,2.11,1.49,10.00,-0.54,0.00,-0.67
1401,2.11,1.49,10.00,-0.61,-0.01,-0.87
1407,3.14,4.75,13.33,-0.61,-0.01,-0.87
1411,3.14,4.75,13.33,-0.56,0.05,-1.22
1416,3.14,4.75,13.33,-0.55,0.19,-1.30
1422,3.14,4.75,13.33,-0.58,0.33,-1.31
1426,3.14,4.75,13.33,-0.60,0.43,-1.32
1431,3.14,4.75,13.33,-0.62,0.48,-1.40
1436,3.14,4.75,13.33,-0.72,0.56,-1.59
1442,3.14,4.75,13.33,-0.79,0.62,-1.76
1446,3.14,4.75,13.33,-0.82,0.59,-1.86
1451,3.14,4.75,13.33,-0.83,0.48,-1.88
1457,3.14,4.75,13.33,-0.83,0.38,-1.95
1461,3.14,4.75,13.33,-0.80,0.32,-2.00
1466,3.14,4.75,13.33,-0.76,0.21,-1.99
1471,3.14,4.75,13.33,-0.78,0.15,-1.98
1477,1.15,4.90,12.68,-0.78,0.15,-1.98
1481,1.15,4.90,12.68,-0.76,0.14,-2.11
1486,1.15,4.90,12.68,-0.78,0.22,-2.16
1492,-0.23,3.41,15.28,-0.78,0.22,-2.16
1496,-0.23,3.41,15.28,-0.71,0.34,-2.04
1501,-0.23,3.41,15.28,-0.71,0.38,-1.98
1506,-0.23,3.41,15.28,-0.70,0.37,-1.98
1512,2.22,1.23,12.83,-0.70,0.37,-1.98
1516,2.22,1.23,12.83,-0.71,0.32,-1.98
1521,2.22,1.23,12.83,-0.69,0.30,-1.93
1527,-0.04,0.23,8.50,-0.69,0.30,-1.93
1531,-0.04,0.23,8.50,-0.68,0.33,-1.85
1536,-0.04,0.23,8.50,-0.60,0.39,-1.77
1541,-0.04,0.23,8.50,-0.50,0.40,-1.57
1546,-0.04,0.23,8.50,-0.47,0.34,-1.39
1551,-0.04,0.23,8.50,-0.47,0.31,-1.36
1557,-0.04,0.23,8.50,-0.45,0.29,-1.41
1562,-0.04,0.23,8.50,-0.40,0.24,-1.42
1566,-3.33,-6.82,6.97,-0.40,0.24,-1.42
1571,-3.33,-6.82,6.97,-0.41,0.25,-1.19
1576,-3.33,-6.82,6.97,-0.30,0.26,-1.03
1582,-3.33,-6.82,6.97,-0.21,0.20,-0.86
1586,-3.33,-6.82,6.97,-0.21,0.19,-0.77
1591,-3.33,-6.82,6.97,-0.18,0.16,-0.71
1597,1.68,-2.57,10.73,-0.18,0.16,-0.71
1601,1.68,-2.57,10.73,-0.18,0.15,-0.71
1606,1.68,-2.57,10.73,-0.11,0.32,-0.76
1611,1.68,-2.57,10.73,0.00,0.40,-0.64
1616,1.68,-2.57,10.73,0.05,0.40,-0.44
1621,1.68,-2.57,10.73,0.05,0.44,-0.33
1626,1.68,-2.57,10.73,0.11,0.43,-0.28
1632,-2.95,-5.59,8.50,0.11,0.43,-0.28
1636,-2.95,-5.59,8.50,0.18,0.39,-0.25
1641,-2.95,-5.59,8.50,0.13,0.36,-0.24
1647,-2.95,-5.59,8.50,0.14,0.33,-0.25
1651,-2.95,-5.59,8.50,0.13,0.37,-0.31
1656,-2.95,-5.59,8.50,0.12,0.48,-0.36
1661,-2.95,-5.59,8.50,0.11,0.55,-0.29
1667,-5.75,-3.07,4.29,0.11,0.55,-0.29
1671,-5.75,-3.07,4.29,0.13,0.59,-0.05
1676,-5.75,-3.07,4.29,0.16,0.54,0.01
1682,-5.75,-3.07,4.29,0.15,0.45,0.01
1686,-5.75,-3.07,4.29,0.15,0.35,-0.04
1691,-5.75,-3.07,4.29,0.12,0.24,-0.05
1696,-5.75,-3.07,4.29,0.13,0.12,-0.01
1701,-5.75,-3.07,4.29,0.18,0.11,0.04
1706,-5.75,-3.07,4.29,0.16,0.10,0.15
1711,-5.75,-3.07,4.29,0.17,0.06,0.28
1716,-5.75,-3.07,4.29,0.12,-0.02,0.33
1722,2.53,2.57,5.82,0.12,-0.02,0.33
1726,2.53,2.57,5.82,-0.00,-0.26,0.13
1732,2.53,2.57,5.82,0.04,-0.32,-0.01
1736,2.53,2.57,5.82,0.06,-0.27,-0.12
1741,2.53,2.57,5.82,0.02,-0.15,-0.17
1746,2.53,2.57,5.82,0.02,-0.06,-0.13
1752,3.03,1.42,14.71,0.02,-0.06,-0.13
1756,3.03,1.42,14.71,-0.04,0.05,-0.25
1761,3.03,1.42,14.71,-0.08,0.11,-0.48
1767,3.03,1.42,14.71,-0.09,0.15,-0.68
1772,3.03,1.42,14.71,-0.13,0.21,-0.83
1776,-0.15,-0.96,7.13,-0.13,0.21,-0.83
1781,-0.15,-0.96,7.13,-0.22,0.41,-0.95
1786,-1.27,-0.30,9.65,-0.22,0.41,-0.95
1791,-1.27,-0.30,9.65,-0.23,0.46,-0.99
1796,-1.27,-0.30,9.65,-0.22,0.35,-1.02
1801,-1.27,-0.30,9.65,-0.24,0.21,-1.11
1807,-1.27,-0.30,9.65,-0.26,0.08,-1.26
1811,4.25,-0.73,11.50,-0.26,0.08,-1.26
1816,4.25,-0.73,11.50,-0.31,-0.03,-1.48
1822,4.25,-0.73,11.50,-0.29,-0.05,-1.44
1826,4.25,-0.73,11.50,-0.30,-0.04,-1.43
1831,4.25,-0.73,11.50,-0.35,-0.03,-1.50
1836,4.25,-0.73,11.50,-0.31,-0.01,-1.59
1841,4.25,-0.73,11.50,-0.37,0.04,-1.70
1846,5.98,5.82,14.86,-0.37,0.04,-1.70
1851,5.98,5.82,14.86,-0.44,0.29,-1.93
1857,5.98,5.82,14.86,-0.50,0.50,-2.03
1861,5.98,5.82,14.86,-0.57,0.74,-2.14
1866,-1.61,2.76,6.82,-0.57,0.74,-2.14
1872,-1.61,2.76,6.82,-0.43,0.85,-2.00
1877,-1.61,2.76,6.82,-0.37,0.73,-1.88
1881,1.91,3.98,8.73,-0.37,0.73,-1.88
1886,2.87,-0.27,5.17,-0.37,0.73,-1.88
1892,2.87,-0.27,5.17,-0.39,0.20,-1.96
1896,-4.37,-1.91,11.46,-0.39,0.20,-1.96
1901,-4.37,-1.91,11.46,-0.34,0.09,-2.12
1907,-4.37,-1.91,11.46,-0.21,0.01,-1.96
1911,-4.37,-1.91,11.46,-0.22,-0.03,-1.77
1916,2.26,-1.30,15.63,-0.22,-0.03,-1.77
1921,6.05,-2.95,13.29,-0.22,-0.03,-1.77
1926,6.05,-2.95,13.29,-0.20,0.17,-1.80
1932,6.05,-2.95,13.29,-0.20,0.31,-1.81
1936,6.05,-2.95,13.29,-0.20,0.48,-1.77
1942,6.05,-2.95,13.29,-0.13,0.67,-1.66
1947,6.05,-2.95,13.29,-0.11,0.89,-1.54
1951,4.60,-4.41,7.81,-0.11,0.89,-1.54
1956,1.57,-0.23,11.15,-0.11,0.89,-1.54
1961,1.57,-0.23,11.15,0.11,0.75,-1.14
1966,-0.92,-1.30,10.07,0.11,0.75,-1.14
1971,-0.92,-1.30,10.07,0.21,0.68,-1.04
1977,-0.92,-1.30,10.07,0.19,0.66,-0.88
1982,-0.92,-1.30,10.07,0.15,0.74,-0.79
1986,-7.62,-6.36,10.88,0.15,0.74,-0.79
1991,-6.24,-4.45,11.26,0.15,0.74,-0.79
1996,-6.24,-4.45,11.26,0.35,0.70,-0.34
2001,-6.24,-4.45,11.26,0.41,0.58,-0.21
2006,-6.24,-4.45,11.26,0.38,0.44,-0.14
2012,-6.24,-4.45,11.26,0.40,0.34,-0.16
2016,-11.07,-7.01,-1.61,0.40,0.34,-0.16
2021,-10.69,-8.46,-2.61,0.40,0.34,-0.16
2027,-10.69,-8.46,-2.61,0.41,0.72,-0.06
2032,-10.69,-8.46,-2.61,0.49,0.78,0.31
2036,-7.66,0.00,3.22,0.49,0.78,0.31
2041,-7.66,0.00,3.22,0.60,0.58,0.90
2047,-7.66,0.00,3.22,0.45,0.42,0.94
2051,-2.87,-4.60,9.35,0.45,0.42,0.94
2056,1.49,-4.98,6.29,0.45,0.42,0.94
2061,1.72,-10.65,5.94,0.45,0.42,0.94
2067,1.72,-10.65,5.94,0.54,-0.46,0.92
2071,25.86,-15.48,43.52,0.54,-0.46,0.92
2076,28.92,-5.48,44.09,0.54,-0.46,0.92
2082,28.92,-5.48,44.09,1.09,-1.11,0.99
2086,21.88,-8.23,37.58,1.09,-1.11,0.99
2091,20.65,-9.46,20.42,1.09,-1.11,0.99
2096,20.65,-9.46,20.42,0.24,1.92,0.19
2102,-12.10,-2.57,-0.38,0.24,1.92,0.19
2107,-12.10,-2.57,-0.38,0.52,2.48,-0.48
2111,-17.05,8.35,-9.35,0.52,2.48,-0.48
2116,-23.94,12.18,-6.89,0.52,2.48,-0.48
2121,-14.68,6.86,-4.45,0.52,2.48,-0.48
2126,-14.68,6.86,-4.45,-0.05,2.32,-0.60
2132,-14.68,6.86,-4.45,0.09,1.59,-0.60
2136,-0.65,-6.55,0.80,0.09,1.59,-0.60
2141,1.07,-4.10,0.50,0.09,1.59,-0.60
2146,1.07,-4.10,0.50,0.35,-0.94,-0.43
2151,1.07,-4.10,0.50,0.28,-1.50,-0.28
2156,3.45,3.37,11.96,0.28,-1.50,-0.28
2161,-2.18,7.70,14.06,0.28,-1.50,-0.28
2167,-2.18,7.70,14.06,0.00,-1.61,-0.39
2171,-2.18,7.70,14.06,-0.17,-1.31,-0.58
2176,4.71,10.15,20.04,-0.17,-1.31,-0.58
2181,6.21,7.20,19.50,-0.17,-1.31,-0.58
2186,6.21,7.20,19.50,-0.10,0.49,-1.16
2191,6.21,7.20,19.50,-0.46,1.04,-1.28
2196,6.21,7.20,19.50,-0.25,1.02,-1.34
2202,6.21,7.20,19.50,-0.17,0.90,-1.37
2206,1.11,-1.00,5.55,-0.17,0.90,-1.37
2211,0.42,-0.30,8.66,-0.17,0.90,-1.37
2216,0.42,-0.30,8.66,0.01,0.57,-1.09
2222,0.42,-0.30,8.66,-0.02,0.61,-1.02
2227,0.42,-0.30,8.66,0.00,0.64,-0.99
2232,-0.50,-0.19,9.54,0.00,0.64,-0.99
2236,2.95,-1.80,9.38,0.00,0.64,-0.99
2241,2.95,-1.80,9.38,-0.01,0.47,-0.91
2246,0.73,-1.46,8.92,-0.01,0.47,-0.91
2252,0.73,-1.46,8.92,0.03,0.31,-0.83
2257,5.67,-0.73,8.78,0.03,0.31,-0.83
2261,2.64,-0.15,10.23,0.03,0.31,-0.83
2266,-1.30,-0.92,10.80,0.03,0.31,-0.83
2271,-1.30,-0.92,10.80,-0.06,0.10,-0.66
2276,5.44,-4.14,9.96,-0.06,0.10,-0.66
2281,1.95,-3.64,8.01,-0.06,0.10,-0.66
2286,1.95,-3.64,8.01,0.10,0.40,-0.59
2292,1.95,-3.64,8.01,0.15,0.59,-0.57
2296,-5.36,-4.33,0.84,0.15,0.59,-0.57
2301,-2.64,-4.02,0.80,0.15,0.59,-0.57
2306,-2.64,-4.02,0.80,0.21,0.71,-0.20
2311,-14.14,-3.60,11.80,0.21,0.71,-0.20
2316,-20.27,-4.29,10.73,0.21,0.71,-0.20
2321,-27.20,-5.40,20.53,0.21,0.71,-0.20
2326,-19.57,-2.72,22.29,0.21,0.71,-0.20
2331,-12.41,-1.38,22.26,0.21,0.71,-0.20
2336,-12.41,-1.38,22.26,0.61,0.44,0.08
2342,-12.41,-1.38,22.26,0.47,-0.13,0.46
2346,22.26,-0.23,3.75,0.47,-0.13,0.46
2351,20.80,-2.18,-2.45,0.47,-0.13,0.46
2356,20.80,-2.18,-2.45,0.34,-1.21,0.41
2362,20.80,-2.18,-2.45,0.39,-1.16,0.14
2366,3.71,-21.88,2.61,0.39,-1.16,0.14
2371,-8.66,-11.38,12.41,0.39,-1.16,0.14
2376,-8.66,-11.38,12.41,-0.06,-0.57,-0.21
2381,-3.37,9.81,23.37,-0.06,-0.57,-0.21
2386,1.11,11.41,24.40,-0.06,-0.57,-0.21
2391,1.11,11.41,24.40,0.26,0.40,-0.35
2396,1.11,11.41,24.40,0.13,0.40,-0.49
2401,-3.83,-0.77,3.45,0.13,0.40,-0.49
2406,11.38,-16.09,-3.79,0.13,0.40,-0.49
2411,11.38,-16.09,-3.79,0.05,0.31,-0.81
2416,11.38,-16.09,-3.79,0.10,0.14,-0.57
2421,-14.82,-2.11,7.47,0.10,0.14,-0.57
2427,-3.98,1.07,8.73,0.10,0.14,-0.57
2431,-9.23,7.01,14.60,0.10,0.14,-0.57
2436,-9.46,8.77,14.17,0.10,0.14,-0.57
2441,-3.33,6.17,14.79,0.10,0.14,-0.57
2446,-3.33,6.17,14.79,-0.08,-0.08,-0.66
2451,-3.33,6.17,14.79,0.06,-0.15,-0.77
2456,-3.33,6.17,14.79,0.12,-0.11,-0.73
2461,-3.33,6.17,14.79,0.14,-0.12,-0.51
2466,-3.33,6.17,14.79,0.15,-0.15,-0.23
2471,-3.56,2.22,4.67,0.15,-0.15,-0.23
2476,-0.80,2.26,7.31,0.15,-0.15,-0.23
2481,-3.45,3.14,9.54,0.15,-0.15,-0.23
2486,-5.21,4.25,12.52,0.15,-0.15,-0.23
2491,-5.32,1.68,11.88,0.15,-0.15,-0.23
2496,-5.32,1.68,11.88,0.00,-0.01,-0.42
2501,-2.18,1.80,10.07,0.00,-0.01,-0.42
2506,0.57,0.27,8.84,0.00,-0.01,-0.42
2511,0.96,0.54,7.32,0.00,-0.01,-0.42
2516,0.80,-0.27,6.55,0.00,-0.01,-0.42
2521,0.46,-1.19,6.36,0.00,-0.01,-0.42
2526,-1.00,-1.88,7.39,0.00,-0.01,-0.42
2532,-1.00,-1.88,7.39,-0.18,-0.02,-0.48
2536,-4.18,1.04,10.45,-0.18,-0.02,-0.48
2541,-3.52,0.61,9.89,-0.18,-0.02,-0.48
2547,-4.06,2.57,9.93,-0.18,-0.02,-0.48
2551,-0.54,1.65,8.58,-0.18,-0.02,-0.48
2556,0.34,-0.08,9.08,-0.18,-0.02,-0.48
2561,1.80,-1.80,8.24,-0.18,-0.02,-0.48
2566,1.80,-1.80,8.24,-0.21,-0.01,-0.69
2571,3.87,-3.48,10.30,-0.21,-0.01,-0.69
2576,-2.26,-4.10,11.76,-0.21,-0.01,-0.69
2581,-3.07,-3.33,12.26,-0.21,-0.01,-0.69
2586,-5.86,-1.65,13.21,-0.21,-0.01,-0.69
2591,-8.16,-1.15,12.14,-0.21,-0.01,-0.69
2596,-6.05,1.68,12.26,-0.21,-0.01,-0.69
2601,0.65,1.07,9.77,-0.21,-0.01,-0.69
2606,4.56,1.80,7.12,-0.21,-0.01,-0.69
2611,6.29,0.15,5.94,-0.21,-0.01,-0.69
2616,7.47,-0.54,5.13,-0.21,-0.01,-0.69
2621,7.47,-0.54,5.13,-0.26,0.06,-1.39
2627,-1.04,-3.26,8.12,-0.26,0.06,-1.39
2631,-2.99,-3.18,10.80,-0.26,0.06,-1.39
2636,-2.07,-2.03,12.45,-0.26,0.06,-1.39
2641,-2.49,-0.04,12.52,-0.26,0.06,-1.39
2646,-2.49,-0.04,12.52,-0.12,0.41,-1.12
2651,0.34,1.84,14.55,-0.12,0.41,-1.12
2656,0.34,1.84,14.55,-0.12,0.37,-1.23
2661,4.60,2.03,10.88,-0.12,0.37,-1.23
2666,4.98,-1.72,9.43,-0.12,0.37,-1.23
2671,2.72,-3.03,9.16,-0.12,0.37,-1.23
2676,1.91,-2.30,9.16,-0.12,0.37,-1.23
2681,0.69,-1.49,9.42,-0.12,0.37,-1.23
2686,0.11,-0.50,10.73,-0.12,0.37,-1.23
2691,2.07,1.46,12.56,-0.12,0.37,-1.23
2696,2.07,1.46,12.56,-0.21,0.28,-1.34
2701,2.61,2.91,13.33,-0.21,0.28,-1.34
2706,3.03,1.42,12.41,-0.21,0.28,-1.34
2711,2.87,1.00,11.07,-0.21,0.28,-1.34
2716,3.07,0.38,10.61,-0.21,0.28,-1.34
2721,2.80,-0.27,8.96,-0.21,0.28,-1.34
2727,2.03,-0.04,9.20,-0.21,0.28,-1.34
2731,2.03,-0.04,9.20,-0.24,0.26,-1.43
2736,2.03,-0.04,9.20,-0.26,0.22,-1.51
2741,0.84,0.92,11.19,-0.26,0.22,-1.51
2746,0.34,1.88,12.10,-0.26,0.22,-1.51
2751,0.54,1.49,11.76,-0.26,0.22,-1.51
2756,0.54,1.00,10.99,-0.26,0.22,-1.51
2761,-0.46,2.03,9.50,-0.26,0.22,-1.51
2766,-1.00,1.30,8.50,-0.26,0.22,-1.51
2771,-1.19,1.91,10.15,-0.26,0.22,-1.51
2776,-1.76,-1.07,8.93,-0.26,0.22,-1.51
2781,-1.53,-1.68,10.07,-0.26,0.22,-1.51
2787,-1.91,-1.53,10.35,-0.26,0.22,-1.51
2791,-1.30,-2.72,10.95,-0.26,0.22,-1.51
2796,-0.69,-0.88,12.22,-0.26,0.22,-1.51
2801,-0.69,-0.88,12.22,-0.07,0.40,-1.70
2806,-0.92,-2.07,10.73,-0.07,0.40,-1.70
2811,-1.15,-2.22,10.34,-0.07,0.40,-1.70
2817,-1.15,-2.22,10.34,-0.06,0.45,-1.66
2822,-4.48,-2.41,8.20,-0.06,0.45,-1.66
2826,-3.79,-3.75,8.66,-0.06,0.45,-1.66
2831,-2.64,-2.26,10.73,-0.06,0.45,-1.66
2837,-1.76,-2.99,11.72,-0.06,0.45,-1.66
2841,1.57,-3.22,14.75,-0.06,0.45,-1.66
2846,2.72,-3.75,16.24,-0.06,0.45,-1.66
2851,2.14,-1.46,16.63,-0.06,0.45,-1.66
2856,2.38,-3.56,15.10,-0.06,0.45,-1.66
2861,0.00,-2.68,13.79,-0.06,0.45,-1.66
2866,-2.57,-2.91,9.88,-0.06,0.45,-1.66
2871,-2.57,-2.91,9.88,0.36,0.80,-0.66
2876,-3.41,-1.46,6.89,0.36,0.80,-0.66
2881,-3.41,-1.46,6.89,0.33,0.79,-0.58
2886,-2.41,0.04,7.47,0.33,0.79,-0.58
2891,-4.25,-0.73,7.12,0.33,0.79,-0.58
2896,-3.87,-1.23,7.93,0.33,0.79,-0.58
2901,-1.68,-1.95,8.74,0.33,0.79,-0.58
2906,-1.72,-3.52,8.35,0.33,0.79,-0.58
2911,-2.68,-3.56,7.62,0.33,0.79,-0.58
2916,-1.07,-2.99,8.66,0.33,0.79,-0.58
2921,-1.07,-2.99,8.66,0.44,0.13,-0.06
2926,-1.53,-3.22,9.96,0.44,0.13,-0.06
2931,1.49,-3.64,10.57,0.44,0.13,-0.06
2936,-0.30,-2.68,10.27,0.44,0.13,-0.06
2941,0.34,-2.41,12.30,0.44,0.13,-0.06
2947,0.34,-2.61,11.99,0.44,0.13,-0.06
2952,0.65,-2.30,11.84,0.44,0.13,-0.06
2956,0.65,-2.30,11.84,0.36,0.40,-0.36
2961,-1.07,-3.48,10.65,0.36,0.40,-0.36
2966,-2.49,-2.91,9.80,0.36,0.40,-0.36
2971,-4.33,-3.68,9.65,0.36,0.40,-0.36
2976,-4.25,-3.56,8.62,0.36,0.40,-0.36
2982,-2.38,-2.07,9.00,0.36,0.40,-0.36
2986,-1.27,0.73,8.84,0.36,0.40,-0.36
2991,-1.27,0.73,8.84,0.38,0.40,-0.43
2996,-1.27,0.73,8.84,0.33,0.28,-0.51
3001,1.07,-1.04,9.65,0.33,0.28,-0.51
3006,0.92,-1.53,10.11,0.33,0.28,-0.51
3011,-0.61,-1.72,9.35,0.33,0.28,-0.51
3016,-0.15,-1.76,8.46,0.33,0.28,-0.51
3021,-0.11,-1.19,8.96,0.33,0.28,-0.51
3026,-0.11,-1.19,8.96,0.30,0.27,-0.66
3031,-0.34,-0.08,8.08,0.30,0.27,-0.66
3036,-0.34,-0.08,8.08,0.28,0.32,-0.71
3041,-0.27,1.15,7.55,0.28,0.32,-0.71
3048,0.11,1.38,8.08,0.28,0.32,-0.71
3052,0.61,-0.11,8.85,0.28,0.32,-0.71
3056,0.61,-0.11,8.85,0.23,0.16,-0.87
3061,2.72,-1.15,12.10,0.23,0.16,-0.87
3067,4.10,-1.00,13.11,0.23,0.16,-0.87
3072,5.36,-0.96,14.98,0.23,0.16,-0.87
3076,5.36,-0.96,14.98,0.28,0.06,-1.02
3081,2.53,0.34,12.52,0.28,0.06,-1.02
3086,1.68,0.23,10.88,0.28,0.06,-1.02
3092,0.84,-0.61,9.77,0.28,0.06,-1.02
3096,0.84,-0.61,9.77,0.14,0.60,-1.28
3101,-2.07,1.49,7.97,0.14,0.60,-1.28
3107,-1.34,1.07,7.85,0.14,0.60,-1.28
3111,-1.34,1.07,7.85,0.14,0.64,-1.31
3116,-1.34,1.07,7.85,0.16,0.56,-1.33
3121,2.34,-1.88,10.38,0.16,0.56,-1.33
3126,1.91,-2.34,10.00,0.16,0.56,-1.33
3132,2.38,-2.64,11.26,0.16,0.56,-1.33
3136,3.68,-3.64,10.35,0.16,0.56,-1.33
3141,3.07,-3.52,10.19,0.16,0.56,-1.33
3147,0.38,-2.41,8.54,0.16,0.56,-1.33
3151,1.76,-1.88,10.41,0.16,0.56,-1.33
3156,1.88,-1.95,11.54,0.16,0.56,-1.33
3162,0.92,-1.15,12.57,0.16,0.56,-1.33
3167,0.92,-1.15,12.57,0.37,0.41,-1.19
3171,1.76,-0.96,12.68,0.37,0.41,-1.19
3176,1.15,-1.34,11.92,0.37,0.41,-1.19
3182,-0.08,-1.34,10.84,0.37,0.41,-1.19
3186,-2.18,-2.95,8.73,0.37,0.41,-1.19
3191,-2.45,-3.64,7.31,0.37,0.41,-1.19
3196,-3.26,-3.26,6.05,0.37,0.41,-1.19
3201,-3.26,-3.26,6.05,0.53,0.50,-0.75
3206,-3.79,-2.11,7.43,0.53,0.50,-0.75
3211,-3.79,-2.11,7.43,0.57,0.39,-0.63
3218,-3.79,-2.11,7.43,0.60,0.30,-0.54
3221,-0.92,-0.42,10.80,0.60,0.30,-0.54
3226,-0.92,-0.42,10.80,0.67,0.18,-0.25
3231,-0.92,-0.42,10.80,0.68,0.20,-0.22
3237,-0.92,-0.42,10.80,0.68,0.22,-0.15
3242,-1.68,-3.18,9.54,0.68,0.22,-0.15
3246,-1.68,-3.18,9.54,0.72,0.25,0.07
3251,-1.68,-3.18,9.54,0.74,0.24,0.16
3256,-1.68,-3.18,9.54,0.75,0.22,0.22
3262,-2.45,-3.91,9.81,0.75,0.22,0.22
3266,-2.45,-3.91,9.81,0.76,0.27,0.25
3271,-1.88,-4.41,8.66,0.76,0.27,0.25
3276,-3.48,-4.56,7.59,0.76,0.27,0.25
3282,-3.45,-5.02,7.21,0.76,0.27,0.25
3286,-3.45,-5.02,7.21,0.81,0.20,0.44
3291,-3.33,-5.63,6.66,0.81,0.20,0.44
3297,-1.99,-6.21,7.78,0.81,0.20,0.44
3301,-1.99,-6.21,7.78,0.85,-0.04,0.66
3306,-2.45,-6.32,7.09,0.85,-0.04,0.66
3312,-1.80,-7.78,8.16,0.85,-0.04,0.66
3316,-1.80,-7.78,8.16,0.88,-0.05,0.70
3321,-1.80,-7.78,8.16,0.88,0.02,0.76
3326,-2.91,-6.21,7.31,0.88,0.02,0.76
3332,-1.19,-6.44,8.78,0.88,0.02,0.76
3336,-1.19,-6.44,8.78,0.93,-0.04,0.87
3341,-1.42,-3.91,9.96,0.93,-0.04,0.87
3347,0.04,-4.41,10.77,0.93,-0.04,0.87
3352,0.04,-4.41,10.77,0.93,-0.07,1.00
3356,0.04,-4.41,10.77,0.91,0.00,1.01
3361,-1.61,-4.71,9.16,0.91,0.00,1.01
3367,-1.00,-4.29,8.35,0.91,0.00,1.01
3371,-1.00,-4.29,8.35,0.92,0.07,1.13
3376,-1.00,-4.29,8.35,0.93,0.05,1.20
3382,-2.61,-2.80,7.59,0.93,0.05,1.20
3386,-2.61,-2.80,7.59,0.92,-0.05,1.34
3391,-2.61,-2.80,7.59,0.90,-0.09,1.35
3396,-3.48,-4.14,8.50,0.90,-0.09,1.35
3402,-4.10,-4.64,8.35,0.90,-0.09,1.35
3406,-4.10,-4.64,8.35,0.89,-0.16,1.42
3411,-2.84,-3.98,9.88,0.89,-0.16,1.42
3416,-2.11,-3.52,8.04,0.89,-0.16,1.42
3421,-2.26,-5.48,7.77,0.89,-0.16,1.42
3426,-2.26,-5.48,7.77,0.82,-0.25,1.38
3431,-2.91,-4.06,8.16,0.82,-0.25,1.38
3437,-2.34,-4.71,7.39,0.82,-0.25,1.38
3441,-2.34,-4.71,7.39,0.76,-0.23,1.33
3446,-1.57,-3.98,8.62,0.76,-0.23,1.33
3451,0.54,-3.37,8.82,0.76,-0.23,1.33
3456,0.54,-3.37,8.82,0.69,-0.31,1.10
3462,0.54,-3.37,8.82,0.66,-0.30,1.02
3467,-0.84,-2.49,9.23,0.66,-0.30,1.02
3471,-0.84,-2.49,9.23,0.65,-0.21,0.86
3476,-0.84,-2.49,9.23,0.63,-0.14,0.84
3481,-1.91,-0.46,8.32,0.63,-0.14,0.84
3487,0.80,-0.34,8.70,0.63,-0.14,0.84
3491,0.80,-0.34,8.70,0.49,-0.12,0.59
3496,0.80,-0.34,8.70,0.46,-0.15,0.50
3502,2.41,0.23,10.03,0.46,-0.15,0.50
3506,2.41,0.23,10.03,0.43,-0.17,0.33
3511,2.41,0.23,10.03,0.41,-0.13,0.27
3516,2.41,0.23,10.03,0.38,-0.07,0.20
3522,2.22,2.68,9.35,0.38,-0.07,0.20
3526,2.22,2.68,9.35,0.31,-0.01,0.05
3531,-0.34,2.76,8.96,0.31,-0.01,0.05
3536,0.34,2.87,9.04,0.31,-0.01,0.05
3542,0.65,3.26,8.43,0.31,-0.01,0.05
3546,0.65,3.26,8.43,0.20,0.02,-0.21
3551,0.11,4.90,8.08,0.20,0.02,-0.21
3557,-0.19,4.83,8.01,0.20,0.02,-0.21
3561,-0.19,4.83,8.01,0.10,-0.05,-0.37
3566,1.38,3.14,9.73,0.10,-0.05,-0.37
3571,1.80,3.48,10.61,0.10,-0.05,-0.37
3576,1.80,3.48,10.61,0.09,-0.17,-0.40
3581,1.80,3.48,10.61,0.08,-0.19,-0.46
3587,3.26,2.84,13.49,0.08,-0.19,-0.46
3592,3.33,1.95,13.33,0.08,-0.19,-0.46
3596,3.33,1.95,13.33,0.07,-0.08,-0.65
3601,-0.38,2.07,10.03,0.07,-0.08,-0.65
3607,-0.38,2.30,9.12,0.07,-0.08,-0.65
3611,-0.38,2.30,9.12,0.02,0.22,-0.72
3617,-0.38,2.30,9.12,-0.01,0.25,-0.73
3622,-1.68,3.64,6.66,-0.01,0.25,-0.73
3626,-1.68,3.64,6.66,-0.05,0.14,-0.76
3631,-1.68,3.64,6.66,-0.04,0.06,-0.75
3636,-1.68,3.64,6.66,-0.01,-0.04,-0.72
3642,1.11,-0.30,9.92,-0.01,-0.04,-0.72
3646,1.11,-0.30,9.92,0.04,-0.16,-0.62
3651,-1.72,-1.30,9.23,0.04,-0.16,-0.62
3656,-1.23,-2.07,8.58,0.04,-0.16,-0.62
3662,-0.65,-1.42,8.85,0.04,-0.16,-0.62
3667,-0.65,-1.42,8.85,0.18,-0.08,-0.34
3672,-0.65,-1.42,8.85,0.18,-0.05,-0.36
3677,0.54,-2.49,9.12,0.18,-0.05,-0.36
3682,0.54,-2.49,9.12,0.22,-0.08,-0.34
3687,0.54,-2.49,9.12,0.22,-0.07,-0.30
3692,-0.42,-2.57,11.26,0.22,-0.07,-0.30
3696,-0.42,-2.57,11.26,0.26,0.00,-0.25
3701,-0.42,-2.57,11.26,0.28,0.05,-0.21
3706,-2.84,-3.07,10.23,0.28,0.05,-0.21
3712,-2.72,-3.68,9.73,0.28,0.05,-0.21
3717,-2.72,-3.68,9.73,0.34,0.07,-0.10
3721,-2.72,-3.68,9.73,0.35,0.03,-0.03
3727,-3.18,-0.92,8.96,0.35,0.03,-0.03
3731,-3.18,-0.92,8.96,0.36,-0.02,0.02
3736,-3.18,-0.92,8.96,0.37,-0.04,0.08
3742,-3.45,-0.80,8.88,0.37,-0.04,0.08
3747,-2.38,-0.96,9.54,0.37,-0.04,0.08
3751,-2.38,-0.96,9.54,0.41,-0.04,0.25
3756,-2.38,-0.96,9.54,0.42,-0.07,0.32
3761,-2.80,-0.38,9.85,0.42,-0.07,0.32
3766,-2.80,-0.38,9.85,0.43,-0.07,0.33
3771,-2.80,-0.38,9.85,0.43,-0.09,0.34
3778,-2.38,-0.57,9.65,0.43,-0.09,0.34
3782,-2.26,-0.46,8.42,0.43,-0.09,0.34
3786,-2.26,-0.46,8.42,0.42,-0.07,0.44
3791,-2.26,-0.46,8.42,0.42,-0.06,0.46
3797,-3.64,1.72,6.63,0.42,-0.06,0.46
3802,-3.64,1.72,6.63,0.34,-0.07,0.46
3807,-3.64,1.72,6.63,0.33,-0.12,0.47
3812,-0.46,1.11,8.46,0.33,-0.12,0.47
3817,-0.46,1.11,8.46,0.30,-0.23,0.39
3821,-0.46,1.11,8.46,0.32,-0.22,0.39
3826,1.00,-0.42,10.77,0.32,-0.22,0.39
3832,-0.46,0.23,9.84,0.32,-0.22,0.39
3837,-0.46,0.23,9.84,0.30,-0.05,0.34
3842,-0.46,0.23,9.84,0.27,0.05,0.26
3848,-2.45,0.27,9.31,0.27,0.05,0.26
3851,-2.45,0.27,9.31,0.26,0.09,0.27
3856,-2.45,0.27,9.31,0.24,0.06,0.26
3861,0.88,1.57,9.73,0.24,0.06,0.26
3867,0.80,1.95,11.49,0.24,0.06,0.26
3871,0.80,1.95,11.49,0.20,-0.12,0.18
3876,0.80,1.95,11.49,0.22,-0.09,0.18
3883,-1.00,0.65,9.58,0.22,-0.09,0.18
3886,-1.00,0.65,9.58,0.20,0.03,0.23
3891,-1.00,0.65,9.58,0.17,0.05,0.23
3896,-1.00,0.65,9.58,0.16,0.01,0.23
3902,-1.42,1.53,7.89,0.16,0.01,0.23
3906,-1.42,1.53,7.89,0.13,-0.05,0.20
3911,-1.42,1.53,7.89,0.13,-0.08,0.22
3916,-1.42,1.53,7.89,0.12,-0.11,0.23
3922,0.69,-0.77,8.78,0.12,-0.11,0.23
3926,0.69,-0.77,8.78,0.13,-0.15,0.18
3931,0.69,-0.77,8.78,0.15,-0.17,0.18
3937,0.42,-1.23,10.11,0.15,-0.17,0.18
3941,0.42,-1.23,10.11,0.17,-0.09,0.15
3946,0.42,-1.23,10.11,0.18,-0.03,0.14
3952,0.00,-2.03,9.54,0.18,-0.03,0.14
3956,0.00,-2.03,9.54,0.19,-0.00,0.13
3962,0.00,-2.03,9.54,0.17,-0.03,0.09
3968,2.53,-1.57,9.73,0.17,-0.03,0.09
3971,2.53,-1.57,9.73,0.18,-0.12,0.07
3977,2.53,-1.57,9.73,0.18,-0.10,0.06
3981,2.53,-1.57,9.73,0.19,-0.04,0.02
3987,0.73,-1.46,10.57,0.19,-0.04,0.02
3991,0.73,-1.46,10.57,0.21,0.06,0.08
3997,0.73,-1.46,10.57,0.23,0.09,0.10
4002,-0.23,-0.04,10.31,0.23,0.09,0.10
4006,-0.23,-0.04,10.31,0.20,0.06,0.13
4011,-0.23,-0.04,10.31,0.19,0.03,0.13
4016,-0.23,-0.04,10.31,0.18,-0.03,0.15
4022,0.30,-0.42,8.24,0.18,-0.03,0.15
4027,0.30,-0.42,8.24,0.20,-0.07,0.24
4032,0.30,-0.42,8.24,0.20,-0.04,0.29
4038,-1.61,-1.57,6.82,0.20,-0.04,0.29
4041,-1.61,-1.57,6.82,0.21,-0.04,0.40
4047,-1.61,-1.57,6.82,0.24,-0.06,0.43
4052,-1.61,-1.57,6.82,0.27,-0.12,0.50
4057,-1.61,-2.80,7.81,0.27,-0.12,0.50
4061,-1.61,-2.80,7.81,0.33,-0.18,0.66
4066,-1.61,-2.80,7.81,0.35,-0.16,0.70
4072,-0.88,-3.22,11.34,0.35,-0.16,0.70
4076,-0.88,-3.22,11.34,0.38,-0.13,0.85
4082,-0.88,-3.22,11.34,0.40,-0.11,0.88
4086,-0.15,-3.41,12.91,0.40,-0.11,0.88
4092,0.77,-2.80,13.29,0.40,-0.11,0.88
4096,0.77,-2.80,13.29,0.41,-0.07,0.95
4101,0.77,-2.80,13.29,0.35,0.00,0.95
4107,-0.73,-7.16,9.93,0.35,0.00,0.95
4111,-0.73,-7.16,9.93,0.41,0.09,1.01
4116,-0.73,-7.16,9.93,0.34,0.11,1.04
4121,-4.45,-0.38,6.82,0.34,0.11,1.04
4127,-1.68,-1.07,7.43,0.34,0.11,1.04
4131,-1.68,-1.07,7.43,0.34,-0.01,1.24
4136,-1.68,-1.07,7.43,0.34,-0.09,1.28
4141,-0.04,-0.80,12.61,0.34,-0.09,1.28
4146,-0.04,-0.80,12.61,0.33,-0.14,1.32
4152,-0.04,-0.80,12.61,0.30,-0.14,1.40
4158,-0.04,-0.80,12.61,0.35,-0.06,1.44
4161,-0.04,-0.80,12.61,0.38,0.02,1.45
4167,-0.04,-0.80,12.61,0.35,0.07,1.53
4171,-0.04,-0.80,12.61,0.33,0.06,1.59
4177,-3.64,-0.65,6.32,0.33,0.06,1.59
4181,-3.64,-0.65,6.32,0.21,-0.03,1.47
4186,-3.64,-0.65,6.32,0.19,-0.11,1.42
4191,-2.34,-2.30,9.38,0.19,-0.11,1.42
4198,-1.65,-1.91,9.96,0.19,-0.11,1.42
4201,-1.65,-1.91,9.96,0.14,-0.08,1.34
4206,-1.91,-2.03,12.10,0.14,-0.08,1.34
4212,-1.57,-1.57,11.80,0.14,-0.08,1.34
4216,-1.57,-1.57,11.80,0.12,0.00,1.19
4221,-1.57,-1.57,11.80,0.09,0.04,1.10
4227,-0.27,-1.68,10.46,0.09,0.04,1.10
4231,-0.27,-1.68,10.46,0.05,0.08,0.95
4236,-0.27,-1.68,10.46,0.02,0.11,0.88
4241,-0.27,-1.68,10.46,-0.02,0.15,0.80
4247,-0.11,-0.84,11.03,-0.02,0.15,0.80
4251,-0.11,-0.84,11.03,-0.06,0.16,0.65
4256,-0.11,-0.84,11.03,-0.08,0.20,0.55
4262,1.11,0.46,11.34,-0.08,0.20,0.55
4266,1.11,0.46,11.34,-0.12,0.18,0.43
4271,1.11,0.46,11.34,-0.14,0.21,0.32
4276,1.11,0.46,11.34,-0.18,0.24,0.23
4282,-1.04,1.53,7.31,-0.18,0.24,0.23
4286,-1.04,1.53,7.31,-0.23,0.30,0.18
4291,-1.04,1.53,7.31,-0.24,0.32,0.15
4296,-1.04,1.53,7.31,-0.27,0.29,0.12
4303,-2.64,4.83,7.35,-0.27,0.29,0.12
4306,-2.64,4.83,7.35,-0.35,0.22,0.05
4311,-0.34,2.68,10.27,-0.35,0.22,0.05
4318,-0.50,2.49,11.15,-0.35,0.22,0.05
4321,-0.50,2.49,11.15,-0.33,0.06,-0.03
4326,-0.50,2.49,11.15,-0.34,0.04,-0.03
4332,0.19,2.53,10.69,-0.34,0.04,-0.03
4336,0.19,2.53,10.69,-0.37,0.09,-0.11
4341,0.19,2.53,10.69,-0.39,0.12,-0.17
4346,2.41,2.38,8.89,-0.39,0.12,-0.17
4352,1.19,3.41,10.34,-0.39,0.12,-0.17
4356,1.19,3.41,10.34,-0.44,0.18,-0.31
4361,1.19,3.41,10.34,-0.43,0.19,-0.39
4367,1.15,2.61,10.04,-0.43,0.19,-0.39
4371,1.15,2.61,10.04,-0.45,0.28,-0.43
4376,1.15,2.61,10.04,-0.46,0.29,-0.43
4382,0.27,3.03,8.58,-0.46,0.29,-0.43
4387,0.27,3.03,8.58,-0.47,0.22,-0.52
4391,0.27,3.03,8.58,-0.47,0.19,-0.53
4396,0.27,3.03,8.58,-0.49,0.14,-0.50
4402,1.80,2.99,8.62,-0.49,0.14,-0.50
4406,1.80,2.99,8.62,-0.53,0.11,-0.59
4411,1.80,2.99,8.62,-0.52,0.06,-0.62
4416,1.80,2.99,8.62,-0.49,0.04,-0.58
4423,-0.38,1.65,10.15,-0.49,0.04,-0.58
4427,-0.38,1.65,10.15,-0.48,0.06,-0.61
4431,-0.38,1.65,10.15,-0.47,0.09,-0.61
4437,0.69,0.88,8.96,-0.47,0.09,-0.61
4441,0.69,0.88,8.96,-0.46,0.12,-0.58
4446,0.69,0.88,8.96,-0.46,0.13,-0.56
4452,0.77,0.04,8.70,-0.46,0.13,-0.56
4456,0.77,0.04,8.70,-0.44,0.11,-0.55
4461,0.77,0.04,8.70,-0.41,0.10,-0.54
4466,-1.65,0.04,9.50,-0.41,0.10,-0.54
4471,-1.84,-0.50,9.08,-0.41,0.10,-0.54
4476,-1.84,-0.50,9.08,-0.36,0.14,-0.38
4481,-1.84,-0.50,9.08,-0.35,0.13,-0.29
4486,-1.84,-0.50,9.08,-0.33,0.08,-0.22
4491,-1.84,1.04,8.85,-0.33,0.08,-0.22
4497,-0.54,-0.61,9.39,-0.33,0.08,-0.22
4502,-0.54,-0.61,9.39,-0.25,-0.07,-0.06
4506,-0.54,-0.61,9.39,-0.21,-0.07,0.01
4511,-0.54,-0.61,9.39,-0.20,-0.06,0.05
4516,-0.54,-0.61,9.39,-0.17,-0.04,0.06
4522,-1.42,-1.27,10.27,-0.17,-0.04,0.06
4526,-1.42,-1.27,10.27,-0.15,0.05,0.02
4531,-1.42,-1.27,10.27,-0.15,0.10,-0.03
4536,-1.42,-1.27,10.27,-0.16,0.13,-0.10
4542,-3.33,-0.04,7.01,-0.16,0.13,-0.10
4546,-3.33,-0.04,7.01,-0.21,0.20,-0.20
4551,-3.33,-0.04,7.01,-0.26,0.24,-0.26
4557,-4.83,1.46,7.63,-0.26,0.24,-0.26
4561,-4.83,1.46,7.63,-0.34,0.19,-0.39
4566,-4.83,1.46,7.63,-0.35,0.09,-0.47
4571,-4.83,1.46,7.63,-0.35,-0.03,-0.54
4577,-0.23,2.11,12.76,-0.35,-0.03,-0.54
4581,-0.23,2.11,12.76,-0.38,-0.13,-0.67
4586,-0.23,2.11,12.76,-0.38,-0.10,-0.71
4592,-2.30,1.95,12.07,-0.38,-0.10,-0.71
4596,-2.30,1.95,12.07,-0.35,0.17,-0.80
4601,-2.30,1.95,12.07,-0.37,0.28,-0.77
4607,-2.30,1.95,12.07,-0.32,0.30,-0.74
4611,-2.30,1.95,12.07,-0.38,0.31,-0.78
4616,-2.30,1.95,12.07,-0.41,0.24,-0.83
4621,-2.30,1.95,12.07,-0.43,0.16,-0.87
4627,-1.49,2.03,8.58,-0.43,0.16,-0.87
4631,-1.49,2.03,8.58,-0.39,0.08,-0.84
4636,-1.49,2.03,8.58,-0.37,0.07,-0.75
4642,-1.49,2.03,8.58,-0.35,0.08,-0.70
4646,-1.49,2.03,8.58,-0.33,0.07,-0.66
4651,-1.49,2.03,8.58,-0.31,0.00,-0.64
4656,-1.49,2.03,8.58,-0.30,-0.04,-0.62
4662,0.34,1.11,9.73,-0.30,-0.04,-0.62
4666,0.34,1.11,9.73,-0.28,-0.12,-0.57
4671,0.34,1.11,9.73,-0.26,-0.13,-0.54
4677,0.34,1.11,9.73,-0.25,-0.09,-0.51
4681,0.34,1.11,9.73,-0.22,-0.04,-0.47
4686,0.34,1.11,9.73,-0.20,-0.01,-0.41
4691,0.34,1.11,9.73,-0.19,0.02,-0.38
4697,-1.04,-1.61,10.57,-0.19,0.02,-0.38
4701,-1.04,-1.61,10.57,-0.18,0.03,-0.41
4706,-1.04,-1.61,10.57,-0.18,0.02,-0.38
4712,-1.04,-1.61,10.57,-0.16,-0.02,-0.36
4716,-1.04,-1.61,10.57,-0.14,-0.02,-0.37
4721,-1.04,-1.61,10.57,-0.12,-0.01,-0.37
4726,-1.04,-1.61,10.57,-0.10,-0.01,-0.34
4732,-0.30,-3.64,10.19,-0.10,-0.01,-0.34
4736,-0.30,-3.64,10.19,-0.03,-0.03,-0.32
4741,-0.30,-3.64,10.19,-0.03,-0.03,-0.30
4746,-0.30,-3.64,10.19,0.00,-0.03,-0.28
4751,-0.30,-3.64,10.19,0.01,-0.03,-0.27
4756,-0.30,-3.64,10.19,0.04,0.01,-0.26
4761,-0.30,-3.64,10.19,0.05,0.07,-0.26
4767,-0.88,-1.30,8.46,0.05,0.07,-0.26
4771,-0.88,-1.30,8.46,0.10,0.09,-0.16
4776,-0.88,-1.30,8.46,0.10,0.07,-0.13
4782,-0.88,-1.30,8.46,0.08,0.02,-0.10
4786,-0.88,-1.30,8.46,0.07,-0.05,-0.05
4791,-0.88,-1.30,8.46,0.05,-0.13,-0.04
4797,-0.88,-1.30,8.46,0.06,-0.17,-0.01
4802,-0.88,-1.30,8.46,0.06,-0.15,0.06
4806,-0.88,-1.30,8.46,0.08,-0.06,0.14
4811,-0.88,-1.30,8.46,0.09,0.01,0.19
4817,-0.50,-1.57,9.89,0.09,0.01,0.19
4821,-0.50,-1.57,9.89,0.13,-0.01,0.25
4826,-0.50,-1.57,9.89,0.14,-0.06,0.28
4832,-0.50,-1.57,9.89,0.14,-0.11,0.31
4836,-0.50,-1.57,9.89,0.15,-0.12,0.36
4842,-0.50,-1.57,9.89,0.15,-0.11,0.38
4846,-0.50,-1.57,9.89,0.17,-0.08,0.38
4852,-1.49,-3.07,8.84,0.17,-0.08,0.38
4856,-1.49,-3.07,8.84,0.20,-0.01,0.39
4861,-1.49,-3.07,8.84,0.21,-0.03,0.39
4866,-1.49,-3.07,8.84,0.20,-0.10,0.38
4871,-1.49,-3.07,8.84,0.19,-0.13,0.37
4876,-1.49,-3.07,8.84,0.18,-0.12,0.37
4881,-1.49,-3.07,8.84,0.16,-0.11,0.34
4887,0.19,-0.46,10.15,0.16,-0.11,0.34
4891,0.19,-0.46,10.15,0.14,-0.06,0.28
4896,0.19,-0.46,10.15,0.12,-0.03,0.27
4901,0.19,-0.46,10.15,0.12,0.00,0.28
4906,0.19,-0.46,10.15,0.12,0.03,0.28
4911,0.19,-0.46,10.15,0.13,0.06,0.25
4916,0.19,-0.46,10.15,0.12,0.07,0.23
4922,-1.07,0.00,9.58,0.12,0.07,0.23
4826,-0.50,-1.57,9.89,0.14,-0.06,0.28
4832,-0.50,-1.57,9.89,0.14,-0.11,0.31
4836,-0.50,-1.57,9.89,0.15,-0.12,0.36
4842,-0.50,-1.57,9.89,0.15,-0.11,0.38
4846,-0.50,-1.57,9.89,0.17,-0.08,0.38
4852,-1.49,-3.07,8.84,0.17,-0.08,0.38
4856,-1.49,-3.07,8.84,0.20,-0.01,0.39
4861,-1.49,-3.07,8.84,0.21,-0.03,0.39
4866,-1.49,-3.07,8.84,0.20,-0.10,0.38
4871,-1.49,-3.07,8.84,0.19,-0.13,0.37
4876,-1.49,-3.07,8.84,0.18,-0.12,0.37
4881,-1.49,-3.07,8.84,0.16,-0.11,0.34
4887,0.19,-0.46,10.15,0.16,-0.11,0.34
4891,0.19,-0.46,10.15,0.14,-0.06,0.28
4896,0.19,-0.46,10.15,0.12,-0.03,0.27
4901,0.19,-0.46,10.15,0.12,0.00,0.28
