timestamp,accX,accY,accZ,gyroX,gyroY,gyroZ
Break
6,-1.23,-0.11,8.39,0.14,-0.00,0.23
19,-1.23,-0.11,8.39,0.16,0.03,0.25
20,-0.23,-1.91,8.08,0.16,0.03,0.25
21,-0.23,-1.91,8.08,0.18,-0.15,0.26
26,-0.38,-1.42,9.96,0.18,-0.15,0.26
31,0.15,-1.11,9.93,0.18,-0.15,0.26
37,0.73,-1.57,10.84,0.18,-0.15,0.26
41,0.73,-1.57,10.84,0.18,-0.10,0.23
46,0.73,-1.57,10.84,0.18,-0.07,0.21
52,-1.99,-1.19,8.39,0.18,-0.07,0.21
57,2.34,-1.11,10.45,0.18,-0.07,0.21
61,2.34,-1.11,10.45,0.19,-0.05,0.27
66,2.34,-1.11,10.45,0.20,-0.07,0.26
72,0.23,-0.42,9.00,0.20,-0.07,0.26
77,0.23,-0.42,9.00,0.16,-0.00,0.25
81,0.23,-0.42,9.00,0.16,0.04,0.27
87,0.23,-0.42,9.00,0.17,0.06,0.27
92,-1.46,-0.65,9.96,0.17,0.06,0.27
97,-1.46,-0.65,9.96,0.14,0.07,0.25
102,-1.46,-0.65,9.96,0.13,0.02,0.26
107,-1.04,-0.77,7.55,0.13,0.02,0.26
112,-1.04,-0.77,7.55,0.07,-0.09,0.22
117,-1.04,-0.77,7.55,0.10,-0.12,0.19
122,-0.38,-1.23,9.23,0.10,-0.12,0.19
126,-0.38,-1.23,9.23,0.10,-0.17,0.25
131,-0.38,-1.23,9.23,0.12,-0.16,0.26
137,-2.99,0.38,8.66,0.12,-0.16,0.26
142,-1.42,-1.07,9.31,0.12,-0.16,0.26
147,-1.42,-1.07,9.31,0.12,-0.11,0.13
152,-1.42,-1.07,9.31,0.13,-0.12,0.15
158,-0.38,0.42,9.65,0.13,-0.12,0.15
161,-0.38,0.42,9.65,0.12,-0.09,0.16
166,-0.38,0.42,9.65,0.12,-0.08,0.09
171,1.42,0.11,10.84,0.12,-0.08,0.09
177,-0.15,0.38,10.73,0.12,-0.08,0.09
181,-0.15,0.38,10.73,0.08,0.03,-0.04
186,-0.15,0.38,10.73,0.06,0.05,-0.05
192,-1.11,0.46,9.58,0.06,0.05,-0.05
196,-1.11,0.46,9.58,0.03,0.08,-0.14
201,-1.11,0.46,9.58,0.04,0.07,-0.15
206,-1.11,0.46,9.58,0.04,0.02,-0.11
212,-2.26,1.88,9.42,0.04,0.02,-0.11
217,-2.26,1.88,9.42,0.02,-0.04,-0.05
221,-2.26,1.88,9.42,0.03,-0.09,-0.04
226,-0.77,-0.04,12.02,0.03,-0.09,-0.04
232,-1.80,-0.57,11.80,0.03,-0.09,-0.04
236,-1.80,-0.57,11.80,0.10,-0.08,-0.03
241,-0.88,-1.19,10.27,0.10,-0.08,-0.03
247,-3.33,-0.46,9.50,0.10,-0.08,-0.03
252,-3.33,-0.46,9.50,0.13,0.04,0.08
256,-3.33,-0.46,9.50,0.08,0.04,0.07
262,-2.14,1.15,8.04,0.08,0.04,0.07
267,-2.14,1.15,8.04,0.01,0.03,0.00
272,-2.14,1.15,8.04,-0.01,0.01,-0.03
278,-1.61,-0.42,9.00,-0.01,0.01,-0.03
281,-1.61,-0.42,9.00,-0.02,-0.04,0.00
287,-1.61,-0.42,9.00,-0.01,-0.06,0.00
291,-3.56,0.54,6.12,-0.01,-0.06,0.00
297,-1.68,-0.04,9.61,-0.01,-0.06,0.00
301,-1.68,-0.04,9.61,-0.01,-0.01,0.01
307,-1.68,-0.04,9.61,0.02,-0.04,0.03
313,-1.72,-0.42,9.54,0.02,-0.04,0.03
317,-1.72,-0.42,9.54,0.07,0.01,0.07
322,-1.72,-0.42,9.54,0.08,0.06,0.12
326,-1.72,-0.42,9.54,0.09,0.09,0.15
332,-3.33,1.15,9.23,0.09,0.09,0.15
337,-3.33,1.15,9.23,0.08,0.14,0.15
341,-3.33,1.15,9.23,0.05,0.12,0.16
346,-3.33,1.15,9.23,0.04,0.05,0.20
352,-3.26,1.00,8.12,0.04,0.05,0.20
356,-3.26,1.00,8.12,0.03,-0.04,0.24
361,-3.26,1.00,8.12,0.02,-0.08,0.26
367,-2.84,0.61,8.04,0.02,-0.08,0.26
371,-2.84,0.61,8.04,0.01,-0.06,0.26
376,-2.84,0.61,8.04,-0.04,-0.08,0.26
382,-0.46,-0.38,10.27,-0.04,-0.08,0.26
387,-0.46,-0.38,10.27,-0.02,-0.15,0.28
392,-0.46,-0.38,10.27,-0.01,-0.19,0.30
397,3.22,-1.49,13.79,-0.01,-0.19,0.30
402,2.41,-1.07,13.79,-0.01,-0.19,0.30
406,2.41,-1.07,13.79,0.05,-0.11,0.33
411,2.41,-1.07,13.79,0.08,-0.01,0.35
417,-0.88,-1.68,11.00,0.08,-0.01,0.35
421,-0.88,-1.68,11.00,0.09,0.22,0.36
427,-0.88,-1.68,11.00,0.07,0.25,0.34
433,-1.80,-0.23,8.70,0.07,0.25,0.34
436,-1.80,-0.23,8.70,0.04,0.28,0.28
441,-1.80,-0.23,8.70,0.02,0.23,0.30
446,-1.80,-0.23,8.70,-0.01,0.16,0.30
452,-1.23,-1.27,8.62,-0.01,0.16,0.30
456,-1.23,-1.27,8.62,-0.02,0.04,0.20
461,-1.23,-1.27,8.62,-0.04,-0.01,0.18
466,-1.23,-1.27,8.62,-0.03,-0.04,0.16
472,0.15,-1.80,9.69,-0.03,-0.04,0.16
476,0.15,-1.80,9.69,-0.01,-0.09,0.14
481,0.15,-1.80,9.69,0.01,-0.09,0.13
488,0.08,0.19,8.46,0.01,-0.09,0.13
492,0.08,0.19,8.46,-0.00,-0.02,0.10
497,0.08,0.19,8.46,-0.01,0.01,0.07
501,-2.87,0.15,10.31,-0.01,0.01,0.07
507,-3.03,0.57,10.23,-0.01,0.01,0.07
511,-3.03,0.57,10.23,-0.04,0.16,-0.02
516,-3.03,0.57,10.23,-0.06,0.11,-0.02
522,-1.19,0.54,10.77,-0.06,0.11,-0.02
526,-1.19,0.54,10.77,-0.08,-0.02,-0.07
531,-1.19,0.54,10.77,-0.07,-0.09,-0.05
537,4.10,-1.38,11.46,-0.07,-0.09,-0.05
541,4.10,-1.38,11.46,-0.07,-0.17,-0.02
547,4.10,-1.38,11.46,-0.06,-0.11,-0.03
551,4.10,-1.38,11.46,-0.04,-0.01,-0.02
557,-0.38,1.04,11.11,-0.04,-0.01,-0.02
562,-0.38,1.04,11.11,-0.03,0.21,-0.03
567,-0.38,1.04,11.11,-0.04,0.26,-0.04
572,-0.50,1.57,9.50,-0.04,0.26,-0.04
577,-0.50,1.57,9.50,-0.07,0.23,-0.05
582,-0.50,1.57,9.50,-0.09,0.15,-0.05
586,-0.50,1.57,9.50,-0.12,0.08,-0.07
593,-0.23,2.11,7.01,-0.12,0.08,-0.07
596,-0.23,2.11,7.01,-0.15,0.00,-0.09
601,-0.23,2.11,7.01,-0.15,0.01,-0.08
606,-0.23,2.11,7.01,-0.14,0.06,-0.09
612,-1.34,0.46,8.08,-0.14,0.06,-0.09
616,-1.34,0.46,8.08,-0.11,0.05,-0.07
621,-1.34,0.46,8.08,-0.09,0.02,-0.07
628,-0.08,0.23,9.81,-0.09,0.02,-0.07
631,-0.08,0.23,9.81,-0.08,-0.04,-0.03
636,-0.08,0.23,9.81,-0.10,-0.04,-0.03
642,-0.27,0.54,10.95,-0.10,-0.04,-0.03
646,-0.27,0.54,10.95,-0.09,0.05,-0.04
652,-0.27,0.54,10.95,-0.08,0.12,-0.04
658,-1.34,-0.08,9.27,-0.08,0.12,-0.04
661,-1.34,-0.08,9.27,-0.06,0.22,-0.05
666,-1.34,-0.08,9.27,-0.06,0.26,-0.08
671,-1.34,-0.08,9.27,-0.06,0.28,-0.10
677,-3.79,-0.30,7.86,-0.06,0.28,-0.10
681,-3.79,-0.30,7.86,-0.06,0.19,-0.11
687,-3.79,-0.30,7.86,-0.11,0.10,-0.12
693,1.30,-0.80,11.68,-0.11,0.10,-0.12
697,1.30,-0.80,11.68,-0.14,-0.17,-0.13
702,1.30,-0.80,11.68,-0.14,-0.22,-0.13
706,1.30,-0.80,11.68,-0.12,-0.20,-0.12
712,-0.61,-0.42,10.96,-0.12,-0.20,-0.12
716,-0.61,-0.42,10.96,-0.04,0.04,-0.01
721,-0.61,-0.42,10.96,0.01,0.16,0.02
726,-0.61,-0.42,10.96,0.01,0.21,0.02
732,-1.07,-1.34,8.58,0.01,0.21,0.02
736,-1.07,-1.34,8.58,0.03,0.17,-0.01
741,-1.07,-1.34,8.58,0.02,0.11,-0.01
747,-1.42,-0.80,8.58,0.02,0.11,-0.01
751,-1.42,-0.80,8.58,-0.01,0.02,0.02
756,-1.42,-0.80,8.58,-0.03,-0.04,0.00
761,-3.95,-0.34,7.78,-0.03,-0.04,0.00
768,-0.57,-1.99,9.73,-0.03,-0.04,0.00
772,-0.57,-1.99,9.73,-0.02,-0.05,0.00
778,-1.42,-1.57,8.01,-0.02,-0.05,0.00
781,-1.42,-1.57,8.01,-0.01,-0.09,0.03
786,-1.42,-1.57,8.01,0.01,-0.09,0.02
792,-1.42,-1.57,8.01,0.02,-0.08,0.03
797,-2.11,-1.65,9.43,0.02,-0.08,0.03
801,-2.11,-1.65,9.43,0.07,0.01,0.09
806,-2.11,-1.65,9.43,0.09,0.04,0.12
811,-2.11,-1.65,9.43,0.10,0.03,0.15
817,-1.95,-1.04,9.93,0.10,0.03,0.15
821,-1.95,-1.04,9.93,0.09,0.03,0.12
826,-1.95,-1.04,9.93,0.08,0.03,0.12
832,-2.03,-1.07,8.70,0.08,0.03,0.12
836,-2.03,-1.07,8.70,0.09,-0.02,0.12
841,-2.03,-1.07,8.70,0.07,-0.07,0.14
846,-2.03,-1.07,8.70,0.06,-0.15,0.17
852,1.65,-1.53,10.99,0.06,-0.15,0.17
856,1.65,-1.53,10.99,0.04,-0.26,0.18
861,1.65,-1.53,10.99,0.03,-0.23,0.17
867,1.42,-0.19,11.98,0.03,-0.23,0.17
871,1.42,-0.19,11.98,0.07,-0.06,0.21
876,1.42,-0.19,11.98,0.10,0.06,0.22
881,-1.11,-0.73,10.38,0.10,0.06,0.22
887,0.00,-0.46,9.85,0.10,0.06,0.22
891,0.00,-0.46,9.85,0.13,0.19,0.24
896,0.00,-0.46,9.85,0.12,0.16,0.22
902,-1.38,0.38,7.51,0.12,0.16,0.22
906,-1.38,0.38,7.51,0.06,0.06,0.23
911,-1.38,0.38,7.51,0.03,-0.02,0.22
917,-1.38,0.38,7.51,0.01,-0.06,0.21
921,-1.38,0.38,7.51,0.00,-0.09,0.20
926,-1.38,0.38,7.51,-0.01,-0.13,0.22
932,-1.38,0.38,7.51,-0.02,-0.17,0.25
937,0.73,-0.54,9.23,-0.02,-0.17,0.25
942,0.73,-0.54,9.23,-0.01,-0.24,0.30
946,0.73,-0.54,9.23,-0.01,-0.27,0.33
952,0.73,-0.54,9.23,0.01,-0.26,0.35
956,0.73,-0.54,9.23,0.04,-0.19,0.39
961,0.73,-0.54,9.23,0.08,-0.07,0.44
966,0.73,-0.54,9.23,0.13,0.06,0.48
972,-1.46,-1.46,11.07,0.13,0.06,0.48
976,-1.46,-1.46,11.07,0.18,0.30,0.47
981,-1.46,-1.46,11.07,0.18,0.35,0.45
987,-1.46,-1.46,11.07,0.13,0.32,0.43
991,-1.46,-1.46,11.07,0.09,0.25,0.40
996,-1.46,-1.46,11.07,0.04,0.16,0.36
1001,-1.46,-1.46,11.07,-0.01,0.03,0.34
1007,1.11,-2.87,8.74,-0.01,0.03,0.34
1011,1.11,-2.87,8.74,-0.02,-0.14,0.37
1016,1.11,-2.87,8.74,-0.03,-0.17,0.40
1022,1.30,-0.92,8.82,-0.03,-0.17,0.40
1026,1.30,-0.92,8.82,-0.01,-0.18,0.42
1031,1.30,-0.92,8.82,0.02,-0.17,0.41
1037,1.30,-0.92,8.82,0.02,-0.13,0.41
1041,1.30,-0.92,8.82,0.03,-0.08,0.43
1046,1.30,-0.92,8.82,0.04,-0.04,0.47
1051,1.30,-0.92,8.82,0.03,-0.03,0.48
1057,0.65,0.50,8.96,0.03,-0.03,0.48
1061,0.65,0.50,8.96,-0.00,-0.00,0.46
1066,0.65,0.50,8.96,-0.02,0.00,0.45
1072,0.65,0.50,8.96,-0.04,0.01,0.43
1077,0.65,0.50,8.96,-0.05,0.01,0.40
1081,0.65,0.50,8.96,-0.06,0.04,0.38
1087,0.65,0.50,8.96,-0.09,0.01,0.36
1092,0.46,-0.27,10.30,-0.09,0.01,0.36
1096,0.46,-0.27,10.30,-0.12,-0.03,0.32
1101,0.46,-0.27,10.30,-0.11,-0.01,0.31
1107,0.46,-0.27,10.30,-0.11,0.01,0.28
1111,0.46,-0.27,10.30,-0.12,0.02,0.24
1116,0.46,-0.27,10.30,-0.13,0.04,0.20
1121,0.46,-0.27,10.30,-0.14,0.07,0.18
1127,0.08,1.04,10.61,-0.14,0.07,0.18
1131,0.08,1.04,10.61,-0.17,0.10,0.13
1136,0.08,1.04,10.61,-0.17,0.10,0.11
1142,0.08,1.04,10.61,-0.17,0.09,0.11
1146,0.08,1.04,10.61,-0.18,0.10,0.10
1151,0.08,1.04,10.61,-0.19,0.09,0.08
1156,0.08,1.04,10.61,-0.21,0.08,0.05
1163,1.07,1.11,12.06,-0.21,0.08,0.05
1166,1.07,1.11,12.06,-0.29,0.01,-0.06
1171,1.07,1.11,12.06,-0.30,-0.03,-0.08
1177,1.07,1.11,12.06,-0.30,-0.05,-0.10
1181,1.07,1.11,12.06,-0.29,-0.06,-0.11
1186,1.07,1.11,12.06,-0.28,-0.04,-0.12
1191,1.07,1.11,12.06,-0.28,-0.00,-0.12
1197,0.30,1.42,8.27,-0.28,-0.00,-0.12
1201,0.30,1.42,8.27,-0.29,0.10,-0.20
1206,0.30,1.42,8.27,-0.29,0.15,-0.25
1212,0.30,1.42,8.27,-0.29,0.16,-0.30
1216,0.30,1.42,8.27,-0.30,0.15,-0.32
1221,0.30,1.42,8.27,-0.31,0.09,-0.31
1226,0.30,1.42,8.27,-0.33,0.04,-0.33
1232,-0.08,0.42,8.23,-0.33,0.04,-0.33
1236,-0.08,0.42,8.23,-0.35,0.00,-0.39
1242,-0.08,0.42,8.23,-0.36,-0.02,-0.42
1247,-0.08,0.42,8.23,-0.35,-0.02,-0.46
1251,-0.08,0.42,8.23,-0.34,0.01,-0.47
1256,-0.08,0.42,8.23,-0.33,0.00,-0.47
1262,-0.08,0.42,8.23,-0.35,-0.04,-0.48
1267,-0.08,0.42,8.23,-0.36,-0.08,-0.46
1271,-0.08,0.42,8.23,-0.34,-0.07,-0.42
1276,-0.08,0.42,8.23,-0.32,-0.03,-0.39
1282,2.38,1.15,9.39,-0.32,-0.03,-0.39
1286,2.38,1.15,9.39,-0.29,0.09,-0.38
1291,2.38,1.15,9.39,-0.28,0.13,-0.40
1297,2.38,1.15,9.39,-0.28,0.13,-0.41
1301,2.38,1.15,9.39,-0.29,0.13,-0.40
1307,2.38,1.15,9.39,-0.29,0.09,-0.38
1311,2.38,1.15,9.39,-0.29,0.05,-0.37
1317,0.38,0.73,7.86,-0.29,0.05,-0.37
1321,0.38,0.73,7.86,-0.30,0.02,-0.39
1326,0.38,0.73,7.86,-0.31,-0.03,-0.41
1332,0.38,0.73,7.86,-0.32,-0.09,-0.43
1336,0.38,0.73,7.86,-0.34,-0.13,-0.46
1341,0.38,0.73,7.86,-0.34,-0.17,-0.49
1346,0.38,0.73,7.86,-0.37,-0.22,-0.52
1352,3.29,-0.54,11.38,-0.37,-0.22,-0.52
1356,3.29,-0.54,11.38,-0.35,-0.18,-0.55
1361,3.29,-0.54,11.38,-0.32,-0.09,-0.55
1367,3.29,-0.54,11.38,-0.29,0.01,-0.58
1371,3.29,-0.54,11.38,-0.29,0.09,-0.63
1376,3.29,-0.54,11.38,-0.28,0.13,-0.70
1381,3.29,-0.54,11.38,-0.28,0.16,-0.75
1387,-0.54,-0.42,9.31,-0.28,0.16,-0.75
1391,-0.54,-0.42,9.31,-0.24,0.21,-0.81
1397,-0.54,-0.42,9.31,-0.24,0.20,-0.82
1402,-0.54,-0.42,9.31,-0.27,0.15,-0.84
1406,-0.54,-0.42,9.31,-0.29,0.04,-0.86
1411,-0.54,-0.42,9.31,-0.31,-0.06,-0.88
1416,-0.54,-0.42,9.31,-0.31,-0.10,-0.89
1422,2.30,-0.11,8.89,-0.31,-0.10,-0.89
1426,2.30,-0.11,8.89,-0.29,-0.05,-0.92
1431,0.96,-0.61,8.81,-0.29,-0.05,-0.92
1437,0.96,-0.61,8.81,-0.26,0.03,-0.94
1442,-0.23,-0.57,10.30,-0.26,0.03,-0.94
1446,-0.23,-0.57,10.30,-0.18,0.19,-0.93
1451,-0.23,-0.57,10.30,-0.19,0.13,-0.91
1457,3.18,0.54,9.85,-0.19,0.13,-0.91
1461,3.18,0.54,9.85,-0.22,-0.02,-0.88
1466,3.18,0.54,9.85,-0.22,-0.07,-0.87
1472,3.18,0.54,9.85,-0.21,-0.11,-0.86
1476,3.18,0.54,9.85,-0.21,-0.13,-0.85
1481,3.18,0.54,9.85,-0.18,-0.13,-0.83
1487,3.18,0.54,9.85,-0.16,-0.08,-0.81
1491,3.18,0.54,9.85,-0.16,0.02,-0.79
1496,3.18,0.54,9.85,-0.14,0.13,-0.77
1501,3.18,0.54,9.85,-0.11,0.24,-0.77
1507,3.18,0.54,9.85,-0.11,0.32,-0.77
1511,3.18,0.54,9.85,-0.12,0.34,-0.75
1516,3.18,0.54,9.85,-0.11,0.28,-0.72
1521,3.18,0.54,9.85,-0.11,0.17,-0.69
1527,-0.23,-0.80,8.54,-0.11,0.17,-0.69
1531,-0.23,-0.80,8.54,-0.11,-0.05,-0.61
1536,-0.23,-0.80,8.54,-0.08,-0.09,-0.56
1542,4.52,-1.42,9.27,-0.08,-0.09,-0.56
1546,4.52,-1.42,9.27,-0.08,-0.29,-0.44
1551,4.52,-1.42,9.27,-0.07,-0.38,-0.38
1557,4.52,-1.42,9.27,-0.04,-0.38,-0.33
1561,4.52,-1.42,9.27,-0.01,-0.31,-0.29
1567,4.52,-1.42,9.27,0.01,-0.18,-0.28
1571,4.52,-1.42,9.27,0.05,-0.04,-0.30
1577,0.96,-2.91,12.18,0.05,-0.04,-0.30
1581,0.96,-2.91,12.18,0.09,0.15,-0.29
1586,0.96,-2.91,12.18,0.12,0.18,-0.24
1592,0.96,-2.91,12.18,0.12,0.19,-0.21
1596,0.96,-2.91,12.18,0.12,0.18,-0.20
1601,0.96,-2.91,12.18,0.11,0.15,-0.22
1606,0.96,-2.91,12.18,0.12,0.11,-0.23
1612,2.07,-2.91,8.23,0.12,0.11,-0.23
1616,2.07,-2.91,8.23,0.13,-0.02,-0.20
1621,2.07,-2.91,8.23,0.14,-0.04,-0.17
1627,2.07,-2.91,8.23,0.15,0.01,-0.16
1632,2.07,-2.91,8.23,0.18,0.12,-0.16
1636,2.07,-2.91,8.23,0.19,0.25,-0.16
1641,2.07,-2.91,8.23,0.21,0.32,-0.15
1647,-1.04,-1.84,10.19,0.21,0.32,-0.15
1651,-1.04,-1.84,10.19,0.18,0.23,-0.12
1657,-1.04,-1.84,10.19,0.16,0.09,-0.09
1661,-1.04,-1.84,10.19,0.15,-0.05,-0.07
1667,1.80,-2.07,8.70,0.15,-0.05,-0.07
1671,1.80,-2.07,8.70,0.15,-0.17,-0.03
1676,1.80,-2.07,8.70,0.17,-0.15,0.00
1682,0.88,-1.53,9.77,0.17,-0.15,0.00
1687,0.88,-1.53,9.77,0.19,-0.06,0.07
1691,0.88,-1.53,9.77,0.20,-0.02,0.11
1697,0.88,-1.53,9.77,0.20,0.04,0.13
1701,0.88,-1.53,9.77,0.20,0.09,0.14
1706,0.88,-1.53,9.77,0.19,0.14,0.15
1711,0.88,-1.53,9.77,0.20,0.15,0.17
1717,0.34,-0.84,9.30,0.20,0.15,0.17
1721,0.34,-0.84,9.30,0.19,0.06,0.27
1726,0.34,-0.84,9.30,0.18,-0.01,0.33
1732,0.34,-0.84,9.30,0.18,-0.05,0.36
1736,0.34,-0.84,9.30,0.18,-0.07,0.40
1741,0.34,-0.84,9.30,0.17,-0.08,0.42
1746,0.34,-0.84,9.30,0.18,-0.10,0.46
1752,-1.00,-0.80,9.46,0.18,-0.10,0.46
1757,-1.00,-0.80,9.46,0.20,-0.06,0.55
1761,-1.00,-0.80,9.46,0.19,-0.03,0.58
1767,-1.00,-0.80,9.46,0.19,-0.05,0.61
1771,-1.00,-0.80,9.46,0.18,-0.10,0.64
1777,-1.00,-0.80,9.46,0.20,-0.12,0.69
1781,-1.00,-0.80,9.46,0.19,-0.12,0.73
1787,0.61,-1.27,8.54,0.19,-0.12,0.73
1791,0.61,-1.27,8.54,0.21,-0.04,0.73
1796,0.61,-1.27,8.54,0.22,-0.00,0.71
1802,-1.34,-2.53,9.84,0.22,-0.00,0.71
1806,-1.34,-2.53,9.84,0.24,0.04,0.73
1811,-1.34,-2.53,9.84,0.22,0.06,0.76
1816,-1.34,-2.53,9.84,0.20,0.06,0.75
1822,0.69,-1.80,8.89,0.20,0.06,0.75
1826,0.69,-1.80,8.89,0.15,0.00,0.69
1831,0.69,-1.80,8.89,0.14,-0.05,0.65
1837,0.73,-3.14,8.85,0.14,-0.05,0.65
1841,0.73,-3.14,8.85,0.13,-0.12,0.65
1846,0.73,-3.14,8.85,0.13,-0.13,0.64
1852,0.73,-3.14,8.85,0.13,-0.11,0.61
1857,0.00,-0.92,10.03,0.13,-0.11,0.61
1861,0.00,-0.92,10.03,0.12,0.02,0.51
1866,0.00,-0.92,10.03,0.11,0.10,0.49
1872,-0.38,-1.34,10.49,0.11,0.10,0.49
1876,-0.38,-1.34,10.49,0.09,0.14,0.43
1881,-0.38,-1.34,10.49,0.06,0.10,0.40
1886,-0.38,-1.34,10.49,0.05,0.05,0.37
1891,1.68,-1.84,9.88,0.05,0.05,0.37
1897,1.68,-1.84,9.88,0.01,-0.01,0.35
1902,1.68,-1.84,9.88,-0.00,-0.11,0.28
1907,1.80,-1.19,8.70,-0.00,-0.11,0.28
1911,1.80,-1.19,8.70,0.00,-0.13,0.27
1916,1.80,-1.19,8.70,0.00,-0.09,0.26
1921,1.80,-1.19,8.70,0.01,-0.04,0.25
1927,1.46,-0.15,10.30,0.01,-0.04,0.25
1932,1.46,-0.15,10.30,-0.01,0.06,0.21
1936,1.46,-0.15,10.30,-0.02,0.10,0.18
1942,-0.04,-0.11,9.58,-0.02,0.10,0.18
1946,-0.04,-0.11,9.58,-0.02,0.13,0.14
1951,-0.04,-0.11,9.58,-0.04,0.11,0.13
1956,-0.04,-0.11,9.58,-0.05,0.07,0.13
1962,0.50,0.34,9.00,-0.05,0.07,0.13
1967,0.50,0.34,9.00,-0.08,-0.04,0.12
1971,0.50,0.34,9.00,-0.11,-0.07,0.11
1977,2.53,1.07,9.65,-0.11,-0.07,0.11
1981,2.53,1.07,9.65,-0.12,-0.08,0.05
1986,2.53,1.07,9.65,-0.13,-0.04,0.03
1992,2.53,1.07,9.65,-0.12,0.04,0.01
1996,2.53,1.07,9.65,-0.11,0.09,-0.00
2001,2.53,1.07,9.65,-0.13,0.12,-0.02
2006,2.53,1.07,9.65,-0.13,0.12,-0.05
2012,-1.07,0.84,10.73,-0.13,0.12,-0.05
2016,-1.07,0.84,10.73,-0.17,0.06,-0.14
2021,-1.07,0.84,10.73,-0.20,-0.02,-0.17
2027,-1.07,0.84,10.73,-0.21,-0.10,-0.18
2032,-1.07,0.84,10.73,-0.22,-0.14,-0.20
2037,-1.07,0.84,10.73,-0.22,-0.15,-0.23
2041,-1.07,0.84,10.73,-0.24,-0.13,-0.28
2047,1.61,-0.04,11.22,-0.24,-0.13,-0.28
2051,1.61,-0.04,11.22,-0.23,-0.01,-0.38
2056,1.61,-0.04,11.22,-0.22,0.07,-0.41
2062,-0.11,-1.00,9.39,-0.22,0.07,-0.41
2066,-0.11,-1.00,9.39,-0.22,0.17,-0.47
2071,-0.11,-1.00,9.39,-0.22,0.16,-0.52
2077,-0.11,-1.00,9.39,-0.23,0.13,-0.55
2082,0.54,-0.69,8.12,-0.23,0.13,-0.55
2086,0.54,-0.69,8.12,-0.24,0.03,-0.63
2091,0.54,-0.69,8.12,-0.25,-0.02,-0.66
2097,1.49,-1.42,8.77,-0.25,-0.02,-0.66
2101,1.49,-1.42,8.77,-0.26,-0.06,-0.70
2106,1.49,-1.42,8.77,-0.25,-0.04,-0.72
2111,1.49,-1.42,8.77,-0.26,-0.02,-0.73
2117,1.65,-1.34,10.04,-0.26,-0.02,-0.73
2121,1.65,-1.34,10.04,-0.24,0.05,-0.77
2126,1.65,-1.34,10.04,-0.22,0.10,-0.77
2132,0.61,-0.80,10.27,-0.22,0.10,-0.77
2136,0.61,-0.80,10.27,-0.18,0.14,-0.78
2141,0.61,-0.80,10.27,-0.17,0.15,-0.76
2146,0.61,-0.80,10.27,-0.15,0.12,-0.75
2152,0.42,-0.50,9.00,-0.15,0.12,-0.75
2157,0.42,-0.50,9.00,-0.14,0.08,-0.71
2161,0.42,-0.50,9.00,-0.16,0.04,-0.70
2167,2.07,1.00,9.58,-0.16,0.04,-0.70
2171,2.07,1.00,9.58,-0.18,-0.05,-0.68
2176,2.07,1.00,9.58,-0.17,-0.05,-0.68
2182,2.07,1.00,9.58,-0.19,-0.03,-0.67
2187,0.54,0.34,9.16,-0.19,-0.03,-0.67
2192,0.54,0.34,9.16,-0.18,0.03,-0.66
2196,0.54,0.34,9.16,-0.17,0.04,-0.65
2202,0.54,-0.11,9.54,-0.17,0.04,-0.65
2206,0.54,-0.11,9.54,-0.16,0.03,-0.60
2211,0.54,-0.11,9.54,-0.17,0.02,-0.59
2216,0.54,-0.11,9.54,-0.15,0.00,-0.59
2222,1.84,-0.73,9.65,-0.15,0.00,-0.59
2226,1.84,-0.73,9.65,-0.17,-0.04,-0.58
2232,1.84,-0.73,9.65,-0.17,-0.04,-0.57
2237,0.15,-0.08,10.03,-0.17,-0.04,-0.57
2242,0.15,-0.08,10.03,-0.14,-0.01,-0.57
2246,0.15,-0.08,10.03,-0.16,0.00,-0.58
2252,0.15,-0.08,10.03,-0.17,0.02,-0.60
2256,0.15,-0.08,10.03,-0.18,0.02,-0.61
2261,0.15,-0.08,10.03,-0.17,0.02,-0.63
2267,0.15,-0.08,10.03,-0.17,0.03,-0.64
2272,2.11,-1.19,9.23,-0.17,0.03,-0.64
2277,2.11,-1.19,9.23,-0.17,0.02,-0.65
2281,2.11,-1.19,9.23,-0.18,0.02,-0.67
2287,2.11,-1.19,9.23,-0.17,0.06,-0.69
2291,2.11,-1.19,9.23,-0.17,0.10,-0.73
2297,2.11,-1.19,9.23,-0.16,0.13,-0.74
2302,2.11,-1.19,9.23,-0.15,0.14,-0.74
2307,1.04,-2.38,9.50,-0.15,0.14,-0.74
2311,1.04,-2.38,9.50,-0.14,0.09,-0.73
2316,1.04,-2.38,9.50,-0.14,0.07,-0.74
2321,-0.46,-1.07,8.20,-0.14,0.07,-0.74
2327,1.42,-2.03,9.61,-0.14,0.07,-0.74
2331,1.42,-2.03,9.61,-0.14,-0.04,-0.78
2336,1.42,-2.03,9.61,-0.14,-0.09,-0.75
2342,2.22,-2.11,10.61,-0.14,-0.09,-0.75
2346,2.22,-2.11,10.61,-0.10,-0.02,-0.73
2351,2.22,-2.11,10.61,-0.10,0.07,-0.73
2356,0.92,-1.68,9.38,-0.10,0.07,-0.73
2362,0.92,-1.68,9.38,-0.08,0.13,-0.76
2366,0.92,-1.68,9.38,-0.08,0.13,-0.76
2371,0.92,-1.68,9.38,-0.07,0.11,-0.74
2377,1.49,-1.68,10.11,-0.07,0.11,-0.74
2381,1.49,-1.68,10.11,-0.07,0.07,-0.72
2387,1.49,-1.68,10.11,-0.08,0.07,-0.72
2392,1.30,-0.65,9.04,-0.08,0.07,-0.72
2397,1.30,-0.65,9.04,-0.08,0.04,-0.69
2401,1.30,-0.65,9.04,-0.07,0.00,-0.65
2406,1.30,-0.65,9.04,-0.07,-0.01,-0.62
2412,1.53,-0.54,10.23,-0.07,-0.01,-0.62
2416,1.53,-0.54,10.23,-0.06,0.05,-0.59
2421,1.53,-0.54,10.23,-0.05,0.08,-0.57
2427,1.53,-0.54,10.23,-0.03,0.10,-0.54
2432,1.53,-0.54,10.23,-0.02,0.10,-0.52
2436,1.53,-0.54,10.23,-0.02,0.07,-0.50
2441,-0.46,-1.99,6.74,-0.02,0.07,-0.50
2447,0.08,-1.72,6.59,-0.02,0.07,-0.50
2451,0.08,-1.72,6.59,-0.01,-0.04,-0.45
2457,0.08,-1.72,6.59,-0.01,-0.10,-0.43
2462,3.48,-1.23,12.56,-0.01,-0.10,-0.43
2467,3.48,-1.23,12.56,-0.03,-0.13,-0.39
2471,3.48,-1.23,12.56,-0.02,-0.02,-0.39
2477,0.34,-2.11,10.69,-0.02,-0.02,-0.39
2481,0.34,-2.11,10.69,-0.00,0.17,-0.40
2486,0.34,-2.11,10.69,0.01,0.18,-0.37
2491,0.34,-2.11,10.69,0.03,0.13,-0.30
2497,1.91,-2.95,8.32,0.03,0.13,-0.30
2501,1.91,-2.95,8.32,0.04,0.03,-0.22
2506,1.91,-2.95,8.32,0.03,0.01,-0.24
2512,-0.27,-2.45,8.01,0.03,0.01,-0.24
2516,-0.27,-2.45,8.01,0.05,0.03,-0.25
2521,-0.27,-2.45,8.01,0.07,0.05,-0.19
2527,-0.27,-2.45,8.01,0.07,0.03,-0.13
2532,1.49,-2.95,9.84,0.07,0.03,-0.13
2536,1.49,-2.95,9.84,0.06,-0.12,-0.03
2541,1.49,-2.95,9.84,0.04,-0.19,0.00
2547,1.49,-2.95,9.84,0.02,-0.19,0.02
2551,1.49,-2.95,9.84,0.02,-0.16,0.03
2556,1.49,-2.95,9.84,0.03,-0.10,0.03
2561,1.49,-2.95,9.84,0.06,-0.01,0.05
2567,-0.27,-1.91,11.57,0.06,-0.01,0.05
2571,-0.27,-1.91,11.57,0.12,0.17,0.15
2576,-0.27,-1.91,11.57,0.14,0.24,0.19
2582,-0.46,-0.88,8.89,0.14,0.24,0.19
2586,-0.46,-0.88,8.89,0.15,0.26,0.24
2591,-0.46,-0.88,8.89,0.14,0.19,0.26
2596,-0.46,-0.88,8.89,0.11,0.09,0.27
2602,1.30,-1.53,7.32,0.11,0.09,0.27
2606,1.30,-1.53,7.32,0.09,-0.15,0.32
2612,1.30,-1.53,7.32,0.11,-0.20,0.36
2617,-0.46,-1.19,9.65,0.11,-0.20,0.36
2621,-0.46,-1.19,9.65,0.10,-0.17,0.41
2626,-0.46,-1.19,9.65,0.12,-0.13,0.44
2631,-0.46,-1.19,9.65,0.12,-0.08,0.47
2637,1.42,-0.19,11.00,0.12,-0.08,0.47
2641,1.42,-0.19,11.00,0.11,0.01,0.49
2647,1.42,-0.19,11.00,0.09,0.03,0.46
2652,0.54,-0.88,10.30,0.09,0.03,0.46
2656,0.54,-0.88,10.30,0.09,0.04,0.46
2661,0.54,-0.88,10.30,0.10,0.03,0.50
2667,0.54,-0.88,10.30,0.09,0.02,0.53
2671,0.54,-0.88,10.30,0.08,0.02,0.53
2676,0.54,-0.88,10.30,0.05,0.02,0.51
2682,0.54,-0.88,10.30,0.04,0.01,0.47
2687,0.54,-0.88,10.30,0.02,-0.01,0.47
2691,0.54,-0.88,10.30,0.03,-0.04,0.49
2696,0.54,-0.88,10.30,0.03,-0.05,0.52
2701,0.57,-0.34,9.73,0.03,-0.05,0.52
2707,0.69,-0.23,9.96,0.03,-0.05,0.52
2711,0.69,-0.23,9.96,0.02,-0.05,0.53
2717,0.69,-0.23,9.96,0.01,-0.04,0.51
2721,0.69,-0.23,9.96,0.01,-0.01,0.52
2726,0.69,-0.23,9.96,0.00,0.01,0.51
2731,0.69,-0.23,9.96,-0.01,0.04,0.51
2737,-0.15,-0.84,9.69,-0.01,0.04,0.51
2741,-0.15,-0.84,9.69,-0.01,0.06,0.52
2746,-0.15,-0.84,9.69,-0.02,0.06,0.52
2751,-0.15,-0.84,9.69,-0.02,0.05,0.53
2757,0.92,-0.46,8.24,-0.02,0.05,0.53
2761,0.92,-0.46,8.24,-0.06,-0.01,0.53
2766,0.92,-0.46,8.24,-0.07,-0.03,0.51
2772,0.77,-0.73,8.43,-0.07,-0.03,0.51
2776,0.77,-0.73,8.43,-0.09,-0.04,0.52
2781,0.77,-0.73,8.43,-0.09,0.01,0.52
2786,0.77,-0.73,8.43,-0.09,0.05,0.52
2791,0.88,-1.53,11.11,-0.09,0.05,0.52
2796,0.88,-1.53,11.11,-0.09,0.04,0.53
2802,0.88,-1.53,11.11,-0.10,-0.01,0.53
2807,0.88,-1.53,11.11,-0.11,-0.03,0.53
2811,0.88,-1.53,11.11,-0.11,-0.04,0.53
2816,0.88,-1.53,11.11,-0.11,-0.04,0.51
2821,0.88,-1.53,11.11,-0.10,-0.03,0.52
2827,0.61,-2.30,9.73,-0.10,-0.03,0.52
2831,0.61,-2.30,9.73,-0.08,0.04,0.55
2836,0.61,-2.30,9.73,-0.08,0.07,0.55
2842,-0.46,-0.96,9.61,-0.08,0.07,0.55
2846,-0.46,-0.96,9.61,-0.10,0.10,0.52
2851,-0.46,-0.96,9.61,-0.12,0.08,0.50
2857,-0.46,-0.96,9.61,-0.13,0.04,0.50
2861,-0.46,-0.96,9.61,-0.14,0.00,0.50
2866,-0.46,-0.96,9.61,-0.16,-0.03,0.52
2871,-0.46,-0.96,9.61,-0.16,-0.06,0.53
2877,0.73,-1.57,9.69,-0.16,-0.06,0.53
2881,0.73,-1.57,9.69,-0.15,-0.03,0.51
2886,0.73,-1.57,9.69,-0.15,0.00,0.51
2892,0.73,-1.57,9.69,-0.15,0.04,0.52
2896,0.73,-1.57,9.69,-0.15,0.06,0.52
2901,0.73,-1.57,9.69,-0.16,0.08,0.50
2906,0.73,-1.57,9.69,-0.16,0.07,0.50
2912,1.80,-1.27,9.69,-0.16,0.07,0.50
2916,1.80,-1.27,9.69,-0.16,0.04,0.55
2921,1.80,-1.27,9.69,-0.16,0.02,0.57
2927,1.80,-1.27,9.69,-0.18,0.03,0.55
2931,1.80,-1.27,9.69,-0.21,0.06,0.52
2936,1.80,-1.27,9.69,-0.22,0.07,0.48
2941,1.80,-1.27,9.69,-0.22,0.08,0.47
2947,1.80,-1.27,9.69,-0.22,0.08,0.49
2951,1.80,-1.27,9.69,-0.23,0.07,0.53
2956,1.80,-1.27,9.69,-0.23,0.05,0.54
2961,0.69,-1.00,8.62,-0.23,0.05,0.54
2967,0.92,-0.88,9.12,-0.23,0.05,0.54
2971,0.92,-0.88,9.12,-0.24,-0.00,0.50
2977,0.92,-0.88,9.12,-0.24,0.00,0.51
2981,0.92,-0.88,9.12,-0.24,0.01,0.53
2986,0.92,-0.88,9.12,-0.25,0.02,0.54
2991,0.92,-0.88,9.12,-0.27,0.04,0.52
2997,1.15,-0.50,9.50,-0.27,0.04,0.52
3001,1.15,-0.50,9.50,-0.27,0.07,0.47
3006,1.15,-0.50,9.50,-0.28,0.09,0.48
3012,1.15,-0.50,9.50,-0.29,0.11,0.48
3016,1.15,-0.50,9.50,-0.29,0.11,0.46
3021,1.15,-0.50,9.50,-0.28,0.10,0.44
3026,1.15,-0.50,9.50,-0.28,0.09,0.43
3032,0.96,-1.65,9.65,-0.28,0.09,0.43
3036,0.96,-1.65,9.65,-0.26,0.07,0.45
3041,0.96,-1.65,9.65,-0.26,0.07,0.44
3047,0.96,-1.65,9.65,-0.26,0.05,0.43
3051,0.96,-1.65,9.65,-0.26,0.06,0.41
3056,0.96,-1.65,9.65,-0.25,0.07,0.40
3061,0.96,-1.65,9.65,-0.26,0.10,0.39
3067,0.96,-1.65,9.65,-0.26,0.11,0.38
3071,0.96,-1.65,9.65,-0.26,0.11,0.36
3076,0.96,-1.65,9.65,-0.27,0.10,0.35
3081,0.96,-1.65,9.65,-0.27,0.07,0.33
3087,1.04,-4.06,8.50,-0.27,0.07,0.33
3091,1.04,-4.06,8.50,-0.27,0.02,0.33
3096,1.04,-4.06,8.50,-0.27,0.01,0.32
3102,0.96,-4.52,9.00,-0.27,0.01,0.32
3106,0.96,-4.52,9.00,-0.25,0.02,0.28
3111,0.96,-4.52,9.00,-0.24,0.04,0.27
3117,0.96,-4.52,9.00,-0.24,0.07,0.27
3121,0.96,-4.52,9.00,-0.24,0.10,0.28
3126,0.96,-4.52,9.00,-0.24,0.12,0.26
3131,0.96,-4.52,9.00,-0.24,0.11,0.25
3137,0.57,-4.94,9.08,-0.24,0.11,0.25
3141,0.57,-4.94,9.08,-0.23,0.08,0.23
3146,0.57,-4.94,9.08,-0.21,0.06,0.24
3151,0.57,-4.94,9.08,-0.21,0.05,0.24
3156,0.54,-4.48,9.27,-0.21,0.05,0.24
3162,0.54,-4.48,9.27,-0.18,0.06,0.23
3167,0.54,-4.48,9.27,-0.18,0.07,0.22
3171,0.54,-4.48,9.27,-0.16,0.08,0.22
3176,0.54,-4.48,9.27,-0.15,0.11,0.23
3181,0.54,-4.48,9.27,-0.14,0.12,0.24
3187,0.54,-4.48,9.27,-0.13,0.12,0.25
3191,0.54,-4.48,9.27,-0.12,0.11,0.27
3196,0.54,-4.48,9.27,-0.12,0.10,0.27
3201,0.54,-4.48,9.27,-0.11,0.09,0.26
3207,0.54,-4.48,9.27,-0.12,0.07,0.25
3211,0.54,-4.48,9.27,-0.12,0.06,0.25
3217,0.54,-4.48,9.27,-0.12,0.06,0.25
3221,0.54,-4.48,9.27,-0.12,0.06,0.26
3226,0.54,-4.48,9.27,-0.12,0.06,0.26
3231,0.54,-4.48,9.27,-0.13,0.06,0.25
3237,0.54,-4.48,9.27,-0.12,0.06,0.24
3241,0.54,-4.48,9.27,-0.12,0.07,0.24
3246,0.54,-4.48,9.27,-0.13,0.07,0.24
3252,0.54,-4.48,9.27,-0.12,0.07,0.24
3257,0.54,-4.48,9.27,-0.12,0.07,0.24
3262,-0.73,-1.49,9.23,-0.12,0.07,0.24
3266,-0.84,-1.53,9.08,-0.12,0.07,0.24
3272,-0.84,-1.53,9.08,-0.13,0.08,0.20
3277,-0.84,-1.53,9.08,-0.15,0.07,0.19
3281,-1.07,-1.49,8.96,-0.15,0.07,0.19
3286,-1.07,-1.49,8.96,-0.15,0.06,0.19
3292,-0.77,-1.30,8.96,-0.15,0.06,0.19
3297,-0.77,-1.30,8.96,-0.16,0.06,0.18
3301,-1.00,-1.38,9.12,-0.16,0.06,0.18
3306,-1.15,-1.46,9.12,-0.16,0.06,0.18
3311,-1.15,-1.46,9.12,-0.18,0.05,0.13
3316,-1.15,-1.46,9.12,-0.18,0.05,0.12
3321,-1.15,-1.46,9.12,-0.19,0.06,0.10
3327,-1.15,-1.46,9.12,-0.19,0.06,0.09
3331,-1.34,-1.53,9.00,-0.19,0.06,0.09
3336,-1.46,-1.65,9.20,-0.19,0.06,0.09
3341,-1.46,-1.65,9.20,-0.19,0.08,0.04
3347,-1.68,-1.88,9.20,-0.19,0.08,0.04
3352,-1.68,-1.88,9.20,-0.20,0.08,-0.00
3357,-1.76,-1.95,9.20,-0.20,0.08,-0.00
3361,-2.03,-2.07,9.08,-0.20,0.08,-0.00
3366,-1.99,-2.18,9.04,-0.20,0.08,-0.00
3371,-1.99,-2.18,9.04,-0.21,0.07,-0.07
3377,-1.99,-2.18,9.04,-0.21,0.07,-0.10
3382,-1.99,-2.18,9.04,-0.21,0.06,-0.12
3386,-2.26,-2.53,8.77,-0.21,0.06,-0.12
3391,-2.53,-2.61,8.73,-0.21,0.06,-0.12
3396,-2.53,-2.61,8.73,-0.21,0.06,-0.15
3401,-2.53,-2.61,8.73,-0.21,0.06,-0.17
3406,-2.53,-2.61,8.73,-0.20,0.06,-0.18
3412,-2.53,-2.61,8.73,-0.18,0.03,-0.16
3417,-2.53,-2.61,8.73,-0.19,0.02,-0.18
3421,-0.61,-4.18,9.96,-0.19,0.02,-0.18
3426,-1.53,-3.91,9.58,-0.19,0.02,-0.18
3431,-1.53,-3.91,9.58,-0.17,0.02,-0.19
3436,-1.53,-3.91,9.58,-0.16,0.04,-0.16
3441,-1.53,-3.91,9.58,-0.15,0.07,-0.15
3447,-1.53,-3.91,9.58,-0.15,0.09,-0.15
3452,-1.53,-3.91,9.58,-0.14,0.11,-0.17
3456,-1.72,-3.83,8.88,-0.14,0.11,-0.17
3461,-1.46,-3.83,8.82,-0.14,0.11,-0.17
3467,-1.46,-3.83,8.82,-0.14,0.06,-0.12
3472,-1.46,-3.83,8.82,-0.13,0.04,-0.11
3477,-1.27,-3.87,9.23,-0.13,0.04,-0.11
3481,-1.07,-3.48,9.34,-0.13,0.04,-0.11
3486,-1.07,-3.48,9.34,-0.11,-0.01,-0.10
3491,-1.07,-3.48,9.34,-0.11,-0.01,-0.08
3497,-1.07,-3.48,9.34,-0.11,0.01,-0.09
3502,-1.07,-3.48,9.34,-0.10,0.02,-0.09
3506,-0.73,-3.33,9.16,-0.10,0.02,-0.09
3511,-0.61,-3.37,9.04,-0.10,0.02,-0.09
3517,-0.61,-3.37,9.04,-0.08,0.04,-0.06
3521,-0.73,-3.14,9.08,-0.08,0.04,-0.06
3526,-0.77,-3.03,9.20,-0.08,0.04,-0.06
3532,-0.77,-3.03,9.20,-0.07,0.03,-0.05
3537,-0.77,-3.03,9.20,-0.07,0.03,-0.05
3541,-0.77,-3.45,9.12,-0.07,0.03,-0.05
3546,-0.80,-3.37,9.16,-0.07,0.03,-0.05
3552,-0.80,-3.37,9.16,-0.05,0.01,-0.03
3556,-0.69,-3.22,8.96,-0.05,0.01,-0.03
3561,-0.73,-3.22,9.04,-0.05,0.01,-0.03
3566,-0.69,-3.33,9.08,-0.05,0.01,-0.03
3571,-0.69,-3.33,9.08,-0.04,-0.01,-0.04
3576,-0.69,-3.33,9.08,-0.03,-0.01,-0.05
3581,-0.69,-3.33,9.08,-0.03,-0.00,-0.06
3587,-0.69,-3.33,9.08,-0.04,0.00,-0.07
3591,-0.96,-3.14,9.20,-0.04,0.00,-0.07
3596,-0.96,-3.18,9.23,-0.04,0.00,-0.07
3601,-0.96,-3.18,9.23,-0.04,0.00,-0.11
3607,-0.88,-2.99,9.12,-0.04,0.00,-0.11
3612,-0.88,-2.99,9.12,-0.04,0.00,-0.13
3617,-1.04,-3.26,9.23,-0.04,0.00,-0.13
3621,-1.00,-3.41,9.27,-0.04,0.00,-0.13
3626,-1.07,-3.52,9.34,-0.04,0.00,-0.13
3631,-1.07,-3.52,9.34,-0.04,0.01,-0.17
3637,-1.07,-3.52,9.34,-0.04,0.01,-0.18
3641,-1.04,-3.60,9.27,-0.04,0.01,-0.18
3646,-1.00,-3.64,9.23,-0.04,0.01,-0.18
3652,-1.00,-3.64,9.23,-0.03,0.01,-0.20
3657,-1.00,-3.64,9.23,-0.02,0.00,-0.20
3661,-1.04,-3.48,9.16,-0.02,0.00,-0.20
3666,-1.07,-3.52,9.12,-0.02,0.00,-0.20
3672,-1.07,-3.52,9.12,-0.02,0.00,-0.21
3677,-1.07,-3.52,9.12,-0.02,0.01,-0.22
3682,-1.04,-3.52,9.20,-0.02,0.01,-0.22
3686,-1.07,-3.56,9.12,-0.02,0.01,-0.22
3691,-1.04,-3.48,9.12,-0.02,0.01,-0.22
3696,-1.04,-3.48,9.12,-0.01,-0.00,-0.22
3701,-1.04,-3.48,9.12,-0.01,0.00,-0.22
3707,-1.04,-3.48,9.12,-0.00,-0.01,-0.21
3711,-1.57,-3.18,8.96,-0.00,-0.01,-0.21
3716,-1.04,-3.52,9.16,-0.00,-0.01,-0.21
3721,-1.04,-3.52,9.16,-0.00,0.00,-0.22
3727,-1.04,-3.52,9.16,0.01,-0.00,-0.21
3732,-1.04,-3.52,9.16,-0.00,0.01,-0.20
3737,-1.04,-3.52,9.16,-0.00,0.01,-0.20
3741,-1.11,-3.37,9.16,-0.00,0.01,-0.20
3746,-0.46,-3.14,9.08,-0.00,0.01,-0.20
3751,-0.46,-3.14,9.08,0.03,-0.02,-0.13
3757,-0.46,-3.14,9.08,0.03,-0.02,-0.13
3762,-0.46,-3.14,9.08,0.02,0.00,-0.13
3766,-1.34,-3.33,9.12,0.02,0.00,-0.13
3771,-1.46,-3.18,9.12,0.02,0.00,-0.13
3777,-1.46,-3.18,9.12,0.05,0.00,-0.04
3781,-1.19,-2.68,9.20,0.05,0.00,-0.04
3786,-1.27,-2.45,9.20,0.05,0.00,-0.04
3792,-1.11,-2.61,9.08,0.05,0.00,-0.04
3796,-1.15,-2.64,9.00,0.05,0.00,-0.04
3801,-1.34,-2.53,9.00,0.05,0.00,-0.04
3807,-1.34,-2.53,9.00,0.06,-0.01,0.05
3812,-1.34,-2.53,9.00,0.06,-0.01,0.06
3816,-1.42,-2.45,9.27,0.06,-0.01,0.06
3821,-1.34,-2.38,9.27,0.06,-0.01,0.06
3827,-1.34,-2.34,9.23,0.06,-0.01,0.06
3831,-1.38,-2.30,9.23,0.06,-0.01,0.06
3836,-1.30,-2.41,9.16,0.06,-0.01,0.06
3841,-1.30,-2.41,9.16,0.07,-0.03,0.08
3847,-1.30,-2.41,9.16,0.06,-0.02,0.09
3852,-1.34,-1.95,9.16,0.06,-0.02,0.09
3856,-1.34,-1.95,9.16,0.05,-0.01,0.10
3861,-1.38,-1.80,9.20,0.05,-0.01,0.10
3867,-1.34,-1.72,9.27,0.05,-0.01,0.10
3871,-1.30,-1.72,9.27,0.05,-0.01,0.10
3876,-1.34,-1.57,9.30,0.05,-0.01,0.10
3882,-1.34,-1.57,9.30,0.04,-0.01,0.10
3886,-1.34,-1.46,9.16,0.04,-0.01,0.10
3891,-1.30,-1.42,9.20,0.04,-0.01,0.10
3897,-1.27,-1.34,9.23,0.04,-0.01,0.10
3901,-1.30,-1.23,9.20,0.04,-0.01,0.10
3906,-1.23,-1.19,9.12,0.04,-0.01,0.10
3911,-1.15,-1.11,9.12,0.04,-0.01,0.10
3917,-1.15,-1.11,9.12,-0.01,-0.00,0.06
3921,-1.15,-1.00,9.08,-0.01,-0.00,0.06
3926,-1.19,-1.00,9.08,-0.01,-0.00,0.06
3932,-1.19,-1.00,9.04,-0.01,-0.00,0.06
3937,-1.19,-1.00,9.12,-0.01,-0.00,0.06
3941,-1.19,-1.00,9.12,-0.05,0.01,0.02
3946,-1.19,-1.11,9.20,-0.05,0.01,0.02
3951,-1.19,-1.11,9.20,-0.05,0.02,0.01
3957,-1.19,-1.11,9.20,-0.05,0.02,0.00
3961,-1.19,-1.15,9.12,-0.05,0.02,0.00
3967,-1.27,-1.15,9.12,-0.05,0.02,0.00
3972,-1.23,-1.23,9.04,-0.05,0.02,0.00
3976,-1.23,-1.23,9.04,-0.07,0.02,-0.02
3981,-1.27,-1.30,9.12,-0.07,0.02,-0.02
3987,-1.27,-1.34,9.12,-0.07,0.02,-0.02
3991,-1.34,-1.46,9.12,-0.07,0.02,-0.02
3996,-1.34,-1.49,9.16,-0.07,0.02,-0.02
4001,-1.34,-1.57,9.16,-0.07,0.02,-0.02
4007,-1.34,-1.57,9.16,-0.10,0.02,-0.06
4012,-1.30,-1.84,9.16,-0.10,0.02,-0.06
4016,-1.34,-1.99,9.12,-0.10,0.02,-0.06
4021,-1.38,-2.07,9.12,-0.10,0.02,-0.06
4026,-1.38,-2.14,9.08,-0.10,0.02,-0.06
4031,-1.34,-2.22,9.08,-0.10,0.02,-0.06
4037,-1.34,-2.22,9.08,-0.11,0.02,-0.11
4041,-1.34,-2.49,9.12,-0.11,0.02,-0.11
4046,-1.34,-2.53,9.12,-0.11,0.02,-0.11
4052,-1.38,-2.64,9.12,-0.11,0.02,-0.11
4056,-1.34,-2.72,9.12,-0.11,0.02,-0.11
4061,-1.38,-2.80,9.16,-0.11,0.02,-0.11
4067,-1.38,-2.80,9.16,-0.12,0.02,-0.16
4072,-1.38,-2.80,9.16,-0.11,0.03,-0.16
4077,-1.34,-3.10,9.20,-0.11,0.03,-0.16
4081,-1.34,-3.10,9.20,-0.12,0.03,-0.17
4086,-1.34,-3.33,9.16,-0.12,0.03,-0.17
4091,-1.34,-3.41,9.16,-0.12,0.03,-0.17
4096,-1.27,-3.48,9.20,-0.12,0.03,-0.17
4101,-1.19,-3.56,9.20,-0.12,0.03,-0.17
4107,-1.27,-3.48,9.16,-0.12,0.03,-0.17
4112,-1.07,-3.48,9.16,-0.12,0.03,-0.17
4116,-1.07,-3.48,9.16,-0.11,0.02,-0.19
4121,-1.07,-3.48,9.16,-0.11,0.02,-0.19
4126,-1.11,-3.52,9.12,-0.11,0.02,-0.19
4131,-1.11,-3.52,9.12,-0.11,0.02,-0.19
4137,-1.15,-3.60,9.12,-0.11,0.02,-0.19
4141,-1.11,-3.56,9.12,-0.11,0.02,-0.19
4146,-1.19,-3.60,9.08,-0.11,0.02,-0.19
4151,-1.15,-3.60,9.12,-0.11,0.02,-0.19
4157,-1.04,-3.60,9.16,-0.11,0.02,-0.19
4161,-1.15,-3.60,9.16,-0.11,0.02,-0.19
4166,-1.15,-3.56,9.16,-0.11,0.02,-0.19
4172,-1.07,-3.68,9.12,-0.11,0.02,-0.19
4176,-1.15,-3.60,9.12,-0.11,0.02,-0.19
4181,-1.15,-3.60,9.08,-0.11,0.02,-0.19
4186,-1.07,-3.60,9.16,-0.11,0.02,-0.19
4192,-1.04,-3.52,9.12,-0.11,0.02,-0.19
4197,-1.15,-3.41,9.12,-0.11,0.02,-0.19
4201,-1.15,-3.41,9.12,-0.03,0.00,-0.04
4206,-1.19,-3.37,9.12,-0.03,0.00,-0.04
4211,-1.19,-3.41,9.12,-0.03,0.00,-0.04
4216,-1.19,-3.41,9.16,-0.03,0.00,-0.04
4221,-1.11,-3.41,9.12,-0.03,0.00,-0.04
4227,-1.23,-3.33,9.08,-0.03,0.00,-0.04
4232,-1.15,-3.33,9.04,-0.03,0.00,-0.04
4236,-1.15,-3.33,9.04,-0.00,-0.01,0.01
4241,-1.15,-3.33,9.04,0.01,-0.00,0.02
4246,-1.19,-3.14,9.04,0.01,-0.00,0.02
4251,-1.19,-3.18,9.04,0.01,-0.00,0.02
4256,-1.19,-3.18,9.08,0.01,-0.00,0.02
4262,-1.23,-3.18,9.08,0.01,-0.00,0.02
4267,-1.23,-3.18,9.08,0.01,-0.00,0.02
4271,-1.23,-3.18,9.08,0.01,-0.00,0.06
4276,-1.27,-3.18,9.08,0.01,-0.00,0.06
4281,-1.27,-3.18,9.08,0.01,-0.00,0.06
4286,-1.23,-3.22,9.08,0.01,-0.00,0.06
4292,-1.27,-3.18,9.04,0.01,-0.00,0.06
4296,-1.27,-3.18,9.04,0.01,-0.00,0.06
4301,-1.30,-3.10,9.00,0.01,-0.00,0.06
4306,-1.30,-3.10,9.00,0.01,-0.00,0.06
4312,-1.30,-3.14,9.04,0.01,-0.00,0.06
4317,-1.34,-3.22,9.04,0.01,-0.00,0.06
4321,-1.34,-3.22,9.04,0.02,-0.01,0.07
4326,-1.34,-3.29,9.08,0.02,-0.01,0.07
4331,-1.34,-3.29,9.04,0.02,-0.01,0.07
4337,-1.34,-3.33,9.16,0.02,-0.01,0.07
4341,-1.34,-3.33,9.16,0.03,-0.01,0.05
4346,-1.34,-3.33,9.23,0.03,-0.01,0.05
4351,-1.34,-3.33,9.20,0.03,-0.01,0.05
4356,-1.34,-3.37,9.23,0.03,-0.01,0.05
4361,-1.34,-3.33,9.20,0.03,-0.01,0.05
4367,-1.38,-3.26,9.16,0.03,-0.01,0.05
4372,-1.34,-3.22,9.12,0.03,-0.01,0.05
4376,-1.34,-3.22,9.12,0.04,0.00,0.03
4381,-1.34,-3.22,9.12,0.03,0.00,0.02
4386,-1.34,-2.95,9.08,0.03,0.00,0.02
4391,-1.34,-2.91,9.08,0.03,0.00,0.02
4397,-1.34,-2.84,9.12,0.03,0.00,0.02
4402,-1.34,-2.68,9.00,0.03,0.00,0.02
4406,-1.34,-2.68,9.00,0.03,-0.00,0.00
4411,-1.34,-2.68,9.00,0.03,-0.01,-0.00
4416,-1.30,-2.61,9.08,0.03,-0.01,-0.00
4421,-1.30,-2.57,9.04,0.03,-0.01,-0.00
4426,-1.27,-2.53,9.08,0.03,-0.01,-0.00
4433,-1.30,-2.45,9.12,0.03,-0.01,-0.00
4437,-1.30,-2.26,9.16,0.03,-0.01,-0.00
4441,-1.30,-2.26,9.16,0.02,0.00,-0.02
4446,-1.30,-2.26,9.16,0.02,0.00,-0.02
4451,-1.27,-2.38,9.16,0.02,0.00,-0.02
4456,-1.30,-2.38,9.12,0.02,0.00,-0.02
4462,-1.34,-2.34,9.00,0.02,0.00,-0.02
4466,-1.27,-2.14,9.04,0.02,0.00,-0.02
4471,-1.27,-2.03,9.04,0.02,0.00,-0.02
4476,-1.27,-2.03,9.12,0.02,0.00,-0.02
4481,-1.27,-2.11,9.12,0.02,0.00,-0.02
4487,-1.27,-2.11,9.16,0.02,0.00,-0.02
4492,-1.30,-2.07,9.12,0.02,0.00,-0.02
4496,-1.30,-2.07,9.12,-0.01,-0.00,-0.03
4502,-1.30,-2.07,9.12,0.00,-0.00,-0.03
4507,-1.27,-2.07,9.12,0.00,-0.00,-0.03
4511,-1.27,-2.07,9.12,-0.01,-0.00,-0.04
4516,-1.27,-2.07,9.12,-0.01,0.00,-0.04
4521,-1.27,-2.18,9.20,-0.01,0.00,-0.04
4527,-1.30,-2.26,9.12,-0.01,0.00,-0.04
4531,-1.30,-2.26,9.12,-0.01,-0.00,-0.05
4536,-1.30,-2.30,9.16,-0.01,-0.00,-0.05
4541,-1.30,-2.41,9.12,-0.01,-0.00,-0.05
4547,-1.30,-2.45,9.08,-0.01,-0.00,-0.05
4552,-1.30,-2.45,9.08,-0.02,0.00,-0.07
4556,-1.34,-2.53,9.12,-0.02,0.00,-0.07
4562,-1.30,-2.53,9.08,-0.02,0.00,-0.07
4566,-1.30,-2.53,9.08,-0.03,0.00,-0.09
4571,-1.27,-2.53,9.08,-0.03,0.00,-0.09
4576,-1.27,-2.57,9.08,-0.03,0.00,-0.09
4581,-1.27,-2.57,9.12,-0.03,0.00,-0.09
4588,-1.27,-2.61,9.12,-0.03,0.00,-0.09
4593,-1.27,-2.68,9.12,-0.03,0.00,-0.09
4596,-1.27,-2.68,9.12,-0.05,0.01,-0.13
4601,-1.27,-2.68,9.12,-0.05,0.01,-0.13
4607,-1.23,-2.87,9.12,-0.05,0.01,-0.13
4612,-1.19,-3.14,9.20,-0.05,0.01,-0.13
4616,-1.19,-3.14,9.20,-0.04,0.01,-0.13
4622,-1.19,-3.14,9.20,-0.04,0.01,-0.13
4627,-1.15,-3.10,9.12,-0.04,0.01,-0.13
4631,-1.15,-3.10,9.12,-0.03,0.01,-0.13
4636,-1.15,-3.10,9.12,-0.03,0.01,-0.13
4641,-1.15,-3.10,9.12,-0.02,0.01,-0.12
4647,-1.15,-3.48,9.08,-0.02,0.01,-0.12
4651,-1.15,-3.48,9.08,-0.02,0.01,-0.11
4656,-1.15,-3.52,9.04,-0.02,0.01,-0.11
4661,-1.15,-3.48,9.08,-0.02,0.01,-0.11
4667,-1.19,-3.45,9.04,-0.02,0.01,-0.11
4672,-1.19,-3.45,9.04,-0.02,-0.00,-0.09
4676,-1.23,-3.45,9.08,-0.02,-0.00,-0.09
4681,-1.19,-3.52,9.08,-0.02,-0.00,-0.09
4687,-1.23,-3.56,9.12,-0.02,-0.00,-0.09
4692,-1.19,-3.48,9.12,-0.02,-0.00,-0.09
4697,-1.19,-3.45,9.16,-0.02,-0.00,-0.09
4701,-1.19,-3.45,9.16,0.01,-0.00,-0.06
4706,-1.19,-3.45,9.16,0.01,0.00,-0.06
4711,-1.19,-3.41,9.12,0.01,0.00,-0.06
4717,-1.19,-3.33,9.16,0.01,0.00,-0.06
4721,-1.19,-3.33,9.16,0.02,-0.00,-0.04
4726,-1.15,-3.10,9.04,0.02,-0.00,-0.04
4732,-1.15,-3.10,9.08,0.02,-0.00,-0.04
4736,-1.15,-3.10,9.08,0.03,0.00,-0.01
4741,-1.15,-3.10,9.08,0.02,-0.00,-0.01
4746,-1.19,-2.91,9.12,0.02,-0.00,-0.01
4752,-1.15,-2.84,9.12,0.02,-0.00,-0.01
4756,-1.15,-2.84,9.12,0.03,-0.00,0.00
4761,-1.15,-2.84,9.12,0.03,-0.01,0.01
4767,-1.15,-2.72,9.12,0.03,-0.01,0.01
4771,-1.15,-2.72,9.12,0.02,-0.01,0.02
4776,-1.15,-2.72,9.12,0.03,-0.01,0.02
4781,-1.11,-2.49,9.04,0.03,-0.01,0.02
4787,-1.11,-2.41,9.08,0.03,-0.01,0.02
4791,-1.11,-2.41,9.08,0.02,-0.01,0.02
4796,-1.15,-2.34,9.12,0.02,-0.01,0.02
4802,-1.19,-2.34,9.12,0.02,-0.01,0.02
4806,-1.19,-2.34,9.12,0.02,-0.00,0.03
4812,-1.11,-2.34,9.20,0.02,-0.00,0.03
4817,-1.15,-2.34,9.12,0.02,-0.00,0.03
4821,-1.15,-2.34,9.12,0.02,0.00,0.03
4826,-1.15,-2.34,9.12,0.02,0.00,0.04
4831,-1.15,-2.26,9.12,0.02,0.00,0.04
4837,-1.15,-2.26,9.12,0.02,0.00,0.04
4841,-1.15,-2.26,9.12,0.01,-0.01,0.04
4846,-1.15,-2.26,9.08,0.01,-0.01,0.04
4852,-1.19,-2.26,9.08,0.01,-0.01,0.04
4856,-1.19,-2.26,9.08,0.00,-0.01,0.04
4861,-1.19,-2.26,9.08,0.01,-0.01,0.05
4866,-1.19,-2.34,9.08,0.01,-0.01,0.05
4872,-1.23,-2.38,9.12,0.01,-0.01,0.05
4876,-1.23,-2.38,9.12,0.00,-0.00,0.04
4881,-1.23,-2.38,9.12,-0.00,-0.00,0.04
4887,-1.27,-2.45,9.08,-0.00,-0.00,0.04
4891,-1.27,-2.45,9.08,-0.01,-0.01,0.03
4896,-1.27,-2.45,9.08,-0.01,-0.00,0.03
4902,-1.27,-2.45,9.08,-0.02,-0.00,0.02
4907,-1.34,-2.41,9.12,-0.02,-0.00,0.02
4911,-1.34,-2.41,9.12,-0.01,0.00,0.02
4916,-1.30,-2.49,9.08,-0.01,0.00,0.02
4921,-1.30,-2.53,9.12,-0.01,0.00,0.02
4927,-1.34,-2.53,9.08,-0.01,0.00,0.02
4831,-1.15,-2.26,9.12,0.02,0.00,0.04
4837,-1.15,-2.26,9.12,0.02,0.00,0.04
4841,-1.15,-2.26,9.12,0.01,-0.01,0.04
4846,-1.15,-2.26,9.08,0.01,-0.01,0.04
4852,-1.19,-2.26,9.08,0.01,-0.01,0.04
4856,-1.19,-2.26,9.08,0.00,-0.01,0.04
4861,-1.19,-2.26,9.08,0.01,-0.01,0.05
4866,-1.19,-2.34,9.08,0.01,-0.01,0.05
4872,-1.23,-2.38,9.12,0.01,-0.01,0.05
4876,-1.23,-2.38,9.12,0.00,-0.00,0.04
4881,-1.23,-2.38,9.12,-0.00,-0.00,0.04
4887,-1.27,-2.45,9.08,-0.00,-0.00,0.04
4891,-1.27,-2.45,9.08,-0.01,-0.01,0.03
4896,-1.27,-2.45,9.08,-0.01,-0.00,0.03
