timestamp,accX,accY,accZ,gyroX,gyroY,gyroZ
Left
7,0.38,1.23,8.96,-0.04,-0.05,0.18
18,-0.50,0.54,9.58,-0.04,-0.05,0.18
20,-0.50,0.54,9.58,-0.02,-0.16,-0.34
21,1.27,-0.69,10.45,-0.02,-0.16,-0.34
26,1.27,-0.69,10.45,-0.02,-0.16,-0.31
31,1.19,-1.68,10.57,-0.02,-0.16,-0.31
36,1.19,-1.68,10.57,0.00,-0.16,-0.29
41,0.57,-1.68,10.53,0.00,-0.16,-0.29
46,0.57,-1.68,10.53,0.05,-0.10,-0.19
51,0.57,-1.68,10.53,0.06,-0.08,-0.16
56,0.57,-1.68,10.53,0.07,-0.06,-0.12
61,0.57,-1.68,10.53,0.09,-0.03,-0.06
66,0.57,-1.68,10.53,0.13,-0.00,0.00
71,0.57,-1.68,10.53,0.17,0.04,0.07
76,0.57,-1.68,10.53,0.18,0.06,0.13
81,0.57,-1.68,10.53,0.21,0.08,0.17
86,0.57,-1.68,10.53,0.23,0.07,0.20
91,0.57,-1.68,10.53,0.24,0.04,0.22
96,0.57,-1.68,10.53,0.25,-0.03,0.24
101,0.57,-1.68,10.53,0.23,-0.11,0.25
106,0.57,-1.68,10.53,0.20,-0.21,0.26
111,-1.23,-0.61,9.46,0.20,-0.21,0.26
116,-1.23,-0.61,9.46,0.15,-0.32,0.23
121,-1.23,-0.61,9.46,0.16,-0.33,0.23
126,-1.46,-1.61,10.04,0.16,-0.33,0.23
131,-1.46,-1.61,10.04,0.18,-0.28,0.25
136,-1.46,-1.61,10.04,0.20,-0.26,0.30
141,-1.46,-1.61,10.04,0.22,-0.25,0.33
146,-1.46,-1.61,10.04,0.24,-0.26,0.36
151,-1.46,-1.61,10.04,0.27,-0.27,0.38
156,-1.46,-1.61,10.04,0.30,-0.26,0.42
162,-0.04,-2.72,9.16,0.30,-0.26,0.42
166,-0.04,-2.72,9.16,0.36,-0.23,0.51
171,-0.04,-2.72,9.16,0.37,-0.23,0.54
176,-0.04,-2.72,9.16,0.38,-0.24,0.55
181,-0.04,-2.72,9.16,0.37,-0.25,0.58
186,-0.04,-2.72,9.16,0.35,-0.25,0.61
191,-0.04,-2.72,9.16,0.35,-0.25,0.60
197,3.10,-1.15,9.96,0.35,-0.25,0.60
201,3.10,-1.15,9.96,0.31,-0.26,0.60
206,3.10,-1.15,9.96,0.33,-0.23,0.66
211,3.10,-1.15,9.96,0.35,-0.18,0.71
216,3.10,-1.15,9.96,0.37,-0.13,0.72
221,3.10,-1.15,9.96,0.36,-0.13,0.71
226,3.10,-1.15,9.96,0.35,-0.14,0.71
232,0.84,-0.23,9.38,0.35,-0.14,0.71
236,0.84,-0.23,9.38,0.38,-0.08,0.84
241,0.84,-0.23,9.38,0.37,-0.04,0.88
246,0.84,-0.23,9.38,0.36,0.01,0.86
251,0.84,-0.23,9.38,0.34,0.04,0.83
256,0.84,-0.23,9.38,0.34,0.04,0.81
261,0.84,-0.23,9.38,0.32,0.03,0.81
267,-2.07,0.15,10.49,0.32,0.03,0.81
271,-2.07,0.15,10.49,0.32,-0.01,0.84
276,-2.07,0.15,10.49,0.32,-0.04,0.83
281,-2.07,0.15,10.49,0.32,-0.05,0.80
286,-2.07,0.15,10.49,0.31,-0.06,0.77
291,-2.07,0.15,10.49,0.30,-0.08,0.73
295,-2.07,0.15,10.49,0.28,-0.11,0.69
302,-3.95,1.99,7.82,0.28,-0.11,0.69
306,-3.95,1.99,7.82,0.22,-0.05,0.60
311,-3.95,1.99,7.82,0.18,-0.03,0.51
317,-3.95,1.99,7.82,0.13,-0.06,0.41
321,-3.95,1.99,7.82,0.10,-0.13,0.34
326,-3.95,1.99,7.82,0.08,-0.19,0.32
330,-3.95,1.99,7.82,0.07,-0.24,0.30
336,-0.11,-1.30,10.73,0.07,-0.24,0.30
342,0.92,-1.38,10.69,0.07,-0.24,0.30
346,0.92,-1.38,10.69,0.14,-0.17,0.20
352,0.92,-1.38,10.69,0.17,-0.12,0.22
356,0.92,-1.38,10.69,0.21,-0.04,0.28
361,0.92,-1.38,10.69,0.24,0.04,0.35
365,0.92,-1.38,10.69,0.27,0.13,0.40
372,-0.23,1.68,8.24,0.27,0.13,0.40
376,-0.23,1.68,8.24,0.25,0.21,0.36
381,-0.23,1.68,8.24,0.24,0.19,0.33
387,-0.57,0.88,7.01,0.24,0.19,0.33
391,-0.57,0.88,7.01,0.21,0.07,0.37
396,-0.57,0.88,7.01,0.19,0.00,0.38
400,-0.57,0.88,7.01,0.17,-0.02,0.32
407,-3.41,2.14,7.32,0.17,-0.02,0.32
411,-3.41,2.14,7.32,0.12,-0.05,0.15
416,-3.41,2.14,7.32,0.11,-0.05,0.10
421,-2.57,0.08,6.97,0.11,-0.05,0.10
426,-2.57,0.08,6.97,0.10,-0.13,0.07
431,-2.57,0.08,6.97,0.10,-0.13,0.06
436,-2.57,0.08,6.97,0.07,-0.12,0.04
441,-1.80,-0.30,11.26,0.07,-0.12,0.04
446,-1.80,-0.30,11.26,0.07,-0.14,0.02
450,-1.80,-0.30,11.26,0.09,-0.17,0.06
457,4.94,-3.14,18.50,0.09,-0.17,0.06
461,4.94,-3.14,18.50,0.07,-0.24,0.21
466,4.94,-3.14,18.50,0.05,-0.21,0.31
471,4.94,-3.14,18.50,0.12,-0.09,0.46
476,4.33,-4.37,20.11,0.12,-0.09,0.46
481,4.33,-4.37,20.11,0.38,0.31,0.76
485,4.33,-4.37,20.11,0.49,0.48,0.91
491,0.65,-1.72,11.38,0.49,0.48,0.91
496,0.65,-1.72,11.38,0.64,0.77,1.24
501,0.65,-1.72,11.38,0.67,0.82,1.39
506,0.65,-1.72,11.38,0.68,0.79,1.48
512,-6.12,0.77,4.83,0.68,0.79,1.48
516,-6.12,0.77,4.83,0.59,0.52,1.51
521,-6.12,0.77,4.83,0.50,0.30,1.45
527,-4.64,0.54,5.44,0.50,0.30,1.45
531,-4.64,0.54,5.44,0.30,-0.13,1.27
536,-4.64,0.54,5.44,0.26,-0.32,1.21
541,-4.64,0.54,5.44,0.21,-0.43,1.19
546,-3.41,-1.76,8.88,0.21,-0.43,1.19
551,-3.41,-1.76,8.88,0.23,-0.44,1.21
556,-3.41,-1.76,8.88,0.20,-0.35,1.17
561,-2.18,-2.87,12.64,0.20,-0.35,1.17
566,-2.18,-2.87,12.64,0.26,-0.14,1.10
571,-2.18,-2.87,12.64,0.34,-0.04,1.13
576,-2.18,-2.87,12.64,0.40,0.05,1.21
581,-2.18,-2.87,12.64,0.44,0.13,1.31
586,-2.18,-2.87,12.64,0.44,0.22,1.37
590,-2.18,-2.87,12.64,0.46,0.31,1.38
596,0.42,0.34,9.84,0.46,0.31,1.38
601,0.42,0.34,9.84,0.46,0.48,1.34
606,0.42,0.34,9.84,0.44,0.57,1.33
610,0.42,0.34,9.84,0.42,0.66,1.30
616,-4.06,1.23,10.46,0.42,0.66,1.30
622,-4.06,1.23,10.46,0.40,0.71,1.24
626,-4.06,1.23,10.46,0.34,0.57,1.12
631,-4.06,1.23,10.46,0.29,0.41,1.09
636,-4.06,1.23,10.46,0.26,0.27,1.08
641,-4.06,1.23,10.46,0.21,0.18,1.06
647,-4.06,1.23,10.46,0.20,0.15,1.01
651,-4.06,1.23,10.46,0.16,0.14,0.92
656,-4.06,1.23,10.46,0.17,0.14,0.84
660,-4.06,1.23,10.46,0.18,0.21,0.83
666,-0.38,-1.46,13.25,0.18,0.21,0.83
671,-0.38,-1.46,13.25,0.22,0.37,0.85
676,-0.38,-1.46,13.25,0.26,0.40,0.82
682,0.69,-1.04,9.04,0.26,0.40,0.82
686,0.69,-1.04,9.04,0.28,0.36,0.77
691,0.69,-1.04,9.04,0.27,0.33,0.74
696,0.69,-1.04,9.04,0.23,0.32,0.67
701,1.42,3.60,7.43,0.23,0.32,0.67
706,1.42,3.60,7.43,0.11,0.29,0.47
710,1.42,3.60,7.43,0.05,0.29,0.41
716,1.95,2.68,10.11,0.05,0.29,0.41
721,1.95,2.68,10.11,-0.02,0.32,0.35
726,1.95,2.68,10.11,-0.04,0.34,0.32
731,1.95,2.68,10.11,-0.03,0.36,0.30
736,3.10,1.95,10.77,-0.03,0.36,0.30
741,3.10,1.95,10.77,0.00,0.43,0.30
745,3.10,1.95,10.77,0.02,0.50,0.29
751,-0.42,3.37,8.96,0.02,0.50,0.29
756,-0.42,3.37,8.96,0.07,0.60,0.22
761,-0.42,3.37,8.96,0.06,0.62,0.21
766,-0.42,3.37,8.96,0.07,0.62,0.23
771,-1.27,1.84,9.00,0.07,0.62,0.23
776,-1.27,1.84,9.00,0.05,0.62,0.24
781,-1.27,1.84,9.00,0.05,0.72,0.15
787,-10.73,5.44,9.92,0.05,0.72,0.15
791,-10.73,5.44,9.92,-0.03,0.77,-0.12
796,-10.73,5.44,9.92,-0.08,0.67,-0.24
801,-10.73,5.44,9.92,-0.20,0.50,-0.33
807,8.35,-3.75,9.23,-0.20,0.50,-0.33
811,8.35,-3.75,9.23,-0.32,-0.31,-0.27
815,8.35,-3.75,9.23,-0.35,-0.60,-0.12
821,12.41,-2.03,5.98,-0.35,-0.60,-0.12
826,12.41,-2.03,5.98,-0.22,-0.78,0.08
831,12.41,-2.03,5.98,-0.17,-0.59,0.11
836,12.41,-2.03,5.98,-0.05,-0.34,0.15
841,12.41,-2.03,5.98,0.06,-0.06,0.21
846,12.41,-2.03,5.98,0.07,0.22,0.33
851,12.41,-2.03,5.98,0.07,0.37,0.51
857,4.10,-0.27,11.96,0.07,0.37,0.51
861,4.10,-0.27,11.96,0.13,0.38,0.85
865,4.10,-0.27,11.96,0.11,0.35,0.89
871,4.10,-0.27,11.96,0.08,0.29,0.82
876,4.10,-0.27,11.96,0.04,0.28,0.68
881,4.10,-0.27,11.96,-0.04,0.23,0.53
886,4.10,-0.27,11.96,-0.07,0.15,0.40
891,-5.82,-2.84,8.16,-0.07,0.15,0.40
896,-5.82,-2.84,8.16,-0.06,-0.01,0.32
900,-5.82,-2.84,8.16,-0.03,-0.09,0.36
906,-1.04,-1.76,10.69,-0.03,-0.09,0.36
911,0.38,-1.07,10.50,-0.03,-0.09,0.36
916,0.38,-1.07,10.50,-0.01,-0.17,0.42
921,0.38,-1.07,10.50,-0.01,-0.10,0.37
927,-2.68,0.57,9.73,-0.01,-0.10,0.37
931,-2.68,0.57,9.73,0.03,0.19,0.32
936,-2.68,0.57,9.73,0.07,0.32,0.36
941,-4.79,1.00,10.03,0.07,0.32,0.36
946,-4.79,1.00,10.03,0.12,0.45,0.49
951,-4.79,1.00,10.03,0.11,0.39,0.54
956,-4.79,1.00,10.03,0.10,0.31,0.56
961,-3.52,0.42,7.74,0.10,0.31,0.56
965,-3.52,0.42,7.74,0.08,0.16,0.54
970,-3.52,0.42,7.74,0.09,0.11,0.52
976,-3.91,1.91,7.31,0.09,0.11,0.52
982,-3.91,1.91,7.31,0.07,0.10,0.50
986,-3.91,1.91,7.31,0.06,0.04,0.56
991,-3.91,1.91,7.31,0.01,0.05,0.55
996,0.92,0.34,10.49,0.01,0.05,0.55
1001,0.92,0.34,10.49,-0.03,-0.01,0.52
1006,0.92,0.34,10.49,-0.02,-0.01,0.54
1011,0.30,-0.84,9.50,-0.02,-0.01,0.54
1016,0.30,-0.84,9.50,0.03,0.03,0.52
1021,0.30,-0.84,9.50,0.04,0.11,0.50
1026,0.30,-0.84,9.50,0.06,0.14,0.48
1032,-3.60,-0.19,9.50,0.06,0.14,0.48
1036,-3.60,-0.19,9.50,0.07,0.16,0.53
1040,-3.60,-0.19,9.50,0.04,0.09,0.54
1046,-1.49,-0.69,9.89,0.04,0.09,0.54
1051,-1.49,-0.69,9.89,-0.00,-0.05,0.46
1056,-1.49,-0.69,9.89,0.01,-0.10,0.42
1061,-1.49,-0.69,9.89,0.04,-0.12,0.44
1066,-1.49,-0.69,9.89,0.07,-0.06,0.46
1071,-1.49,-0.69,9.89,0.08,0.01,0.48
1076,-1.49,-0.69,9.89,0.12,0.07,0.50
1081,-3.22,-0.77,10.73,0.12,0.07,0.50
1086,-3.22,-0.77,10.73,0.15,0.22,0.53
1090,-3.22,-0.77,10.73,0.17,0.22,0.52
1096,-2.76,-0.88,8.62,0.17,0.22,0.52
1101,-2.76,-0.88,8.62,0.17,0.15,0.52
1106,-2.76,-0.88,8.62,0.20,0.07,0.56
1111,-2.76,-0.88,8.62,0.20,0.03,0.61
1116,-1.11,-2.11,9.84,0.20,0.03,0.61
1121,-1.11,-2.11,9.84,0.20,-0.04,0.64
1126,-1.11,-2.11,9.84,0.18,-0.03,0.62
1132,-1.11,-2.11,9.84,0.16,-0.02,0.61
1136,-1.11,-2.11,9.84,0.18,-0.02,0.62
1141,-1.11,-2.11,9.84,0.19,-0.01,0.65
1146,-1.11,-2.11,9.84,0.21,-0.00,0.70
1151,-1.11,-2.11,9.84,0.25,0.00,0.76
1156,-1.11,-2.11,9.84,0.29,0.04,0.80
1160,-1.11,-2.11,9.84,0.29,0.09,0.84
1166,-0.65,-1.11,8.66,0.29,0.09,0.84
1171,-1.38,-1.15,8.82,0.29,0.09,0.84
1176,-1.38,-1.15,8.82,0.30,0.09,0.91
1181,-1.38,-1.15,8.82,0.29,0.04,0.93
1186,2.64,-2.61,11.15,0.29,0.04,0.93
1191,2.64,-2.61,11.15,0.29,-0.06,1.04
1196,2.64,-2.61,11.15,0.31,-0.05,1.12
1201,2.41,-0.46,10.34,0.31,-0.05,1.12
1206,2.41,-0.46,10.34,0.33,0.04,1.20
1211,2.41,-0.46,10.34,0.33,0.08,1.21
1216,2.41,-0.46,10.34,0.33,0.12,1.20
1221,1.23,-1.49,9.58,0.33,0.12,1.20
1226,1.23,-1.49,9.58,0.35,0.12,1.25
1231,1.23,-1.49,9.58,0.35,0.10,1.29
1236,2.45,-0.46,10.84,0.35,0.10,1.29
1241,2.45,-0.46,10.84,0.33,0.06,1.32
1245,2.45,-0.46,10.84,0.31,0.06,1.32
1250,2.45,-0.46,10.84,0.28,0.08,1.30
1256,0.88,0.42,11.50,0.28,0.08,1.30
1262,0.88,0.42,11.50,0.27,0.12,1.30
1267,0.88,0.42,11.50,0.25,0.19,1.25
1271,0.88,0.42,11.50,0.25,0.19,1.26
1276,0.88,0.42,11.50,0.27,0.19,1.27
1281,0.88,0.42,11.50,0.27,0.19,1.28
1286,0.88,0.42,11.50,0.27,0.18,1.28
1291,1.04,0.23,9.88,0.27,0.18,1.28
1296,1.04,0.23,9.88,0.21,0.15,1.21
1301,1.04,0.23,9.88,0.20,0.14,1.20
1306,0.08,0.92,10.35,0.20,0.14,1.20
1311,0.08,0.92,10.35,0.19,0.16,1.20
1316,0.08,0.92,10.35,0.15,0.17,1.17
1321,1.84,-0.50,12.64,0.15,0.17,1.17
1326,1.84,-0.50,12.64,0.14,0.20,1.15
1331,1.84,-0.50,12.64,0.13,0.25,1.16
1336,1.84,-0.50,12.64,0.15,0.29,1.17
1341,0.38,0.73,10.80,0.15,0.29,1.17
1346,0.38,0.73,10.80,0.16,0.37,1.14
1350,0.38,0.73,10.80,0.17,0.39,1.13
1356,-0.38,0.46,9.69,0.17,0.39,1.13
1361,-0.38,0.46,9.69,0.17,0.36,1.14
1365,-0.38,0.46,9.69,0.15,0.34,1.12
1371,-0.38,0.46,9.69,0.10,0.31,1.07
1376,0.80,0.46,9.46,0.10,0.31,1.07
1381,0.80,0.46,9.46,0.05,0.23,0.93
1386,0.80,0.46,9.46,0.05,0.22,0.89
1391,0.80,0.46,9.46,0.04,0.23,0.87
1396,0.80,0.46,9.46,0.01,0.26,0.83
1401,0.80,0.46,9.46,-0.03,0.29,0.75
1406,0.80,0.46,9.46,-0.05,0.31,0.65
1411,0.80,0.46,9.46,-0.02,0.31,0.56
1416,0.80,0.46,9.46,-0.04,0.30,0.53
1421,0.80,0.46,9.46,-0.07,0.30,0.53
1426,0.69,1.49,9.89,-0.07,0.30,0.53
1431,0.69,1.49,9.89,-0.09,0.27,0.48
1435,0.69,1.49,9.89,-0.10,0.28,0.42
1441,0.69,1.49,9.89,-0.10,0.29,0.38
1446,-0.88,2.14,9.73,-0.10,0.29,0.38
1451,-0.88,2.14,9.73,-0.11,0.34,0.40
1456,-0.88,2.14,9.73,-0.12,0.35,0.38
1461,-1.19,1.68,9.04,-0.12,0.35,0.38
1466,-1.19,1.68,9.04,-0.11,0.33,0.31
1471,-1.19,1.68,9.04,-0.11,0.31,0.31
1476,-1.19,1.68,9.04,-0.10,0.29,0.33
1481,-1.19,1.68,9.04,-0.11,0.27,0.34
1486,-1.19,1.68,9.04,-0.12,0.28,0.31
1491,-1.19,1.68,9.04,-0.14,0.26,0.25
1496,-2.14,2.41,8.31,-0.14,0.26,0.25
1501,-2.14,2.41,8.31,-0.22,0.19,0.16
1506,-2.14,2.41,8.31,-0.26,0.12,0.15
1511,-2.14,2.41,8.31,-0.30,0.06,0.19
1516,-2.14,2.41,8.31,-0.29,0.07,0.25
1521,-2.14,2.41,8.31,-0.20,0.15,0.34
1526,-2.14,2.41,8.31,-0.13,0.29,0.40
1531,-2.14,2.41,8.31,-0.05,0.47,0.43
1536,-2.14,2.41,8.31,0.04,0.64,0.42
1540,-2.14,2.41,8.31,0.11,0.75,0.41
1546,-2.14,2.41,8.31,0.12,0.81,0.42
1551,-7.01,3.68,1.84,0.12,0.81,0.42
1556,-7.01,3.68,1.84,0.02,0.65,0.43
1560,-7.01,3.68,1.84,-0.08,0.45,0.38
1566,0.73,3.68,6.82,-0.08,0.45,0.38
1571,0.73,3.68,6.82,-0.27,-0.02,0.21
1576,0.73,3.68,6.82,-0.39,-0.15,0.12
1581,-0.65,2.30,10.88,-0.39,-0.15,0.12
1586,-0.65,2.30,10.88,-0.44,-0.19,-0.07
1591,-0.65,2.30,10.88,-0.39,-0.13,-0.13
1596,-0.65,2.30,10.88,-0.32,-0.02,-0.14
1601,-1.30,1.04,10.42,-0.32,-0.02,-0.14
1606,-1.30,1.04,10.42,-0.29,0.15,-0.11
1611,-1.30,1.04,10.42,-0.23,0.23,-0.07
1616,1.84,3.41,10.15,-0.23,0.23,-0.07
1621,1.84,3.41,10.15,-0.25,0.30,-0.00
1626,1.84,3.41,10.15,-0.29,0.37,0.01
1631,1.84,3.41,10.15,-0.29,0.43,-0.03
1636,1.84,3.41,10.15,-0.26,0.48,-0.08
1641,1.84,3.41,10.15,-0.22,0.52,-0.08
1646,1.84,3.41,10.15,-0.16,0.53,-0.01
1651,1.84,3.41,10.15,-0.16,0.48,0.07
1656,1.84,3.41,10.15,-0.18,0.39,0.12
1660,1.84,3.41,10.15,-0.19,0.24,0.09
1666,1.84,3.41,10.15,-0.27,0.10,0.02
1671,1.84,3.41,10.15,-0.26,-0.01,-0.02
1676,1.84,3.41,10.15,-0.29,-0.07,-0.01
1681,1.84,3.41,10.15,-0.29,-0.10,0.04
1686,-0.08,0.54,9.35,-0.29,-0.10,0.04
1691,-0.08,0.54,9.35,-0.27,-0.06,0.07
1696,-0.08,0.54,9.35,-0.23,-0.03,0.04
1701,-0.08,0.54,9.35,-0.20,0.01,0.03
1706,-0.08,0.54,9.35,-0.17,0.05,0.05
1711,-0.08,0.54,9.35,-0.13,0.08,0.08
1716,-0.08,0.54,9.35,-0.11,0.11,0.11
1721,1.07,0.11,9.93,-0.11,0.11,0.11
1726,1.07,0.11,9.93,-0.08,0.14,0.14
1731,1.07,0.11,9.93,-0.08,0.14,0.15
1736,1.07,0.11,9.93,-0.08,0.14,0.17
1741,1.07,0.11,9.93,-0.06,0.15,0.19
1746,1.07,0.11,9.93,-0.05,0.14,0.21
1751,1.07,0.11,9.93,-0.04,0.13,0.21
1757,1.38,-0.80,10.42,-0.04,0.13,0.21
1761,1.72,-1.38,9.92,-0.04,0.13,0.21
1765,0.30,-0.73,9.00,-0.04,0.13,0.21
1771,0.30,-0.73,9.00,0.00,0.10,0.29
1776,0.30,-0.73,9.00,0.02,0.15,0.31
1781,0.30,-0.73,9.00,0.04,0.16,0.33
1786,0.30,-0.73,9.00,0.03,0.14,0.35
1791,0.30,-0.73,9.00,0.05,0.12,0.38
1796,0.30,-0.73,9.00,0.05,0.10,0.39
1801,0.30,-0.73,9.00,0.04,0.06,0.38
1806,0.30,-0.73,9.00,0.04,0.03,0.38
1811,-0.54,-0.96,9.46,0.04,0.03,0.38
1816,-0.54,-0.96,9.46,0.08,0.04,0.48
1821,-0.54,-0.96,9.46,0.08,0.05,0.53
1826,-0.54,-0.96,9.46,0.08,0.09,0.55
1831,-0.54,-0.96,9.46,0.11,0.16,0.56
1836,-0.54,-0.96,9.46,0.13,0.24,0.57
1841,-0.54,-0.96,9.46,0.16,0.31,0.57
1846,-0.54,-0.96,9.46,0.19,0.32,0.56
1850,-0.54,-0.96,9.46,0.19,0.24,0.57
1856,-0.54,-0.96,9.46,0.15,0.11,0.61
1861,-0.54,-0.96,9.46,0.11,-0.07,0.67
1865,-0.54,-0.96,9.46,0.10,-0.22,0.72
1871,-0.54,-0.96,9.46,0.10,-0.29,0.76
1876,3.45,-1.49,8.93,0.10,-0.29,0.76
1881,3.45,-1.49,8.93,0.15,-0.27,0.86
1886,3.45,-1.49,8.93,0.20,-0.13,0.92
1891,3.45,-1.49,8.93,0.22,0.06,0.97
1895,3.45,-1.49,8.93,0.26,0.22,1.00
1901,3.45,-1.49,8.93,0.29,0.33,1.03
1906,3.45,-1.49,8.93,0.28,0.37,1.09
1910,3.45,-1.49,8.93,0.31,0.33,1.15
1915,-1.84,0.23,10.57,0.31,0.33,1.15
1921,-1.84,0.23,10.57,0.29,0.26,1.18
1926,-1.84,0.23,10.57,0.24,0.10,1.11
1931,-1.84,0.23,10.57,0.22,-0.00,1.07
1936,-2.95,-0.69,7.70,0.22,-0.00,1.07
1941,-2.64,-1.15,9.77,0.22,-0.00,1.07
1945,-2.64,-1.15,9.77,0.16,-0.11,0.98
1950,-2.64,-1.15,9.77,0.15,-0.11,0.93
1956,-2.64,-1.15,9.77,0.14,-0.10,0.89
1961,-2.64,-1.15,9.77,0.16,-0.11,0.89
1966,-2.64,-1.15,9.77,0.18,-0.08,0.90
1970,-0.27,-1.46,8.66,0.18,-0.08,0.90
1975,-0.27,-1.46,8.66,0.19,-0.03,0.89
1982,-2.30,-0.38,8.92,0.19,-0.03,0.89
1986,-2.64,-0.50,9.27,0.19,-0.03,0.89
1990,-1.07,0.38,9.69,0.19,-0.03,0.89
1996,-1.07,0.38,9.69,0.22,0.17,0.85
2001,-1.07,0.38,9.69,0.21,0.16,0.87
2006,-0.23,0.23,9.80,0.21,0.16,0.87
2011,-0.23,0.23,9.80,0.18,0.06,0.84
2016,-0.23,0.23,9.80,0.16,0.04,0.82
2020,0.92,-0.23,9.93,0.16,0.04,0.82
2025,0.30,0.69,10.00,0.16,0.04,0.82
2031,0.30,0.69,10.00,0.15,0.05,0.84
2036,0.30,0.69,10.00,0.14,0.11,0.82
2041,-0.96,-1.15,10.61,0.14,0.11,0.82
2045,-1.30,-0.34,10.00,0.14,0.11,0.82
2051,-1.30,-0.34,10.00,0.18,0.20,0.83
2056,-1.30,-0.34,10.00,0.17,0.19,0.84
2061,-0.50,0.50,9.85,0.17,0.19,0.84
2066,-1.42,0.23,10.80,0.17,0.19,0.84
2071,-1.42,0.23,10.80,0.13,0.17,0.81
2076,-1.42,0.23,10.80,0.11,0.16,0.77
2081,-1.42,0.23,10.80,0.10,0.13,0.73
2086,-1.42,0.23,10.80,0.10,0.10,0.73
2091,-1.19,-1.04,9.39,0.10,0.10,0.73
2095,-0.88,-0.88,11.38,0.10,0.10,0.73
2101,-0.88,-0.88,11.38,0.11,0.07,0.73
2106,-0.88,-0.88,11.38,0.11,0.07,0.73
2111,-0.23,-0.57,9.58,0.11,0.07,0.73
2116,-1.34,-0.46,9.35,0.11,0.07,0.73
2120,-1.34,-0.46,9.35,0.12,0.15,0.70
2126,-1.34,-0.46,9.35,0.13,0.17,0.72
2130,-1.34,-0.46,9.35,0.14,0.17,0.75
2136,-1.34,-0.46,9.35,0.14,0.17,0.78
2141,-0.23,-0.30,9.20,0.14,0.17,0.78
2146,-0.23,-0.30,9.20,0.13,0.12,0.81
2151,-0.11,-0.54,9.96,0.13,0.12,0.81
2156,-0.08,-0.88,9.69,0.13,0.12,0.81
2160,-0.19,-0.30,9.42,0.13,0.12,0.81
2165,-0.19,-0.30,9.42,0.14,0.09,0.90
2172,-0.19,-0.30,9.42,0.14,0.10,0.92
2176,0.11,-1.65,9.65,0.14,0.10,0.92
2180,0.46,-1.72,10.00,0.14,0.10,0.92
2186,0.46,-1.72,10.00,0.15,0.10,0.99
2191,0.46,-1.72,10.00,0.17,0.10,1.04
2196,0.46,-1.72,10.00,0.16,0.08,1.08
2201,2.07,-1.68,11.04,0.16,0.08,1.08
2206,1.49,-1.34,11.34,0.16,0.08,1.08
2210,1.07,-1.42,10.69,0.16,0.08,1.08
2215,1.07,-1.42,10.69,0.24,0.09,1.18
2221,1.07,-1.42,10.69,0.26,0.12,1.23
2226,1.07,-1.42,10.69,0.26,0.16,1.28
2231,0.69,-1.04,10.19,0.26,0.16,1.28
2236,1.07,-0.69,10.03,0.26,0.16,1.28
2241,1.07,-0.69,10.03,0.27,0.16,1.34
2246,1.34,-0.50,10.65,0.27,0.16,1.34
2250,1.68,-1.00,11.34,0.27,0.16,1.34
2256,1.68,-1.00,11.34,0.26,0.13,1.41
2261,1.68,-1.00,11.34,0.25,0.15,1.41
2266,-0.08,-1.00,10.77,0.25,0.15,1.41
2271,0.34,-0.46,11.22,0.25,0.15,1.41
2276,0.34,-0.46,11.22,0.22,0.22,1.43
2281,0.54,-0.80,11.07,0.22,0.22,1.43
2285,0.30,-1.34,10.61,0.22,0.22,1.43
2291,-0.04,-1.88,10.61,0.22,0.22,1.43
2296,-0.04,-1.88,10.61,0.18,0.25,1.40
2300,-0.04,-1.88,10.61,0.19,0.26,1.39
2306,-0.04,-1.88,10.61,0.19,0.27,1.38
2311,-0.04,-1.88,10.61,0.18,0.25,1.38
2316,-0.04,-1.88,10.61,0.18,0.25,1.39
2320,-0.11,-1.15,11.11,0.18,0.25,1.39
2326,-0.11,-1.15,11.11,0.19,0.26,1.35
2331,-0.11,-1.15,11.11,0.19,0.28,1.33
2336,-0.46,-0.84,10.49,0.19,0.28,1.33
2340,-1.46,-0.88,10.15,0.19,0.28,1.33
2345,-1.46,-0.88,10.15,0.19,0.33,1.30
2351,-1.46,-0.88,10.15,0.18,0.31,1.28
2356,-1.46,-0.88,10.15,0.19,0.29,1.26
2361,-1.46,-0.88,10.15,0.16,0.29,1.24
2366,0.46,0.92,11.49,0.16,0.29,1.24
2370,1.11,-0.54,10.61,0.16,0.29,1.24
2376,1.11,-0.54,10.61,0.12,0.35,1.18
2381,1.11,-0.54,10.61,0.11,0.36,1.14
2386,0.88,1.00,10.61,0.11,0.36,1.14
2390,-0.11,1.15,10.69,0.11,0.36,1.14
2396,-0.11,1.15,10.69,0.05,0.43,1.03
2401,-0.11,1.15,10.69,0.04,0.43,1.03
2406,0.65,2.53,9.96,0.04,0.43,1.03
2411,-0.73,2.41,9.23,0.04,0.43,1.03
2415,-0.08,2.91,8.84,0.04,0.43,1.03
2420,-0.08,2.91,8.84,-0.06,0.46,0.87
2426,-0.08,2.91,8.84,-0.10,0.44,0.84
2431,-0.08,2.91,8.84,-0.12,0.39,0.82
2436,0.34,1.95,10.69,-0.12,0.39,0.82
2440,0.34,1.95,10.69,-0.17,0.37,0.71
2445,1.84,1.38,10.95,-0.17,0.37,0.71
2451,1.84,1.38,10.95,-0.16,0.36,0.69
2456,1.84,1.38,10.95,-0.16,0.35,0.66
2461,0.30,2.22,11.19,-0.16,0.35,0.66
2465,0.96,1.11,10.46,-0.16,0.35,0.66
2470,1.30,2.07,9.23,-0.16,0.35,0.66
2476,1.30,2.07,9.23,-0.19,0.46,0.54
2481,1.30,2.07,9.23,-0.20,0.45,0.52
2486,-0.30,2.14,10.00,-0.20,0.45,0.52
2490,0.50,1.80,10.38,-0.20,0.45,0.52
2497,0.50,1.80,10.38,-0.24,0.47,0.44
2501,0.50,1.80,10.38,-0.26,0.44,0.42
2506,0.00,1.61,10.19,-0.26,0.44,0.42
2510,0.00,1.61,10.19,-0.30,0.38,0.29
2515,-0.11,1.34,9.58,-0.30,0.38,0.29
2521,-0.46,1.80,8.66,-0.30,0.38,0.29
2526,-0.73,3.68,7.47,-0.30,0.38,0.29
2531,-0.42,2.91,8.70,-0.30,0.38,0.29
2536,-0.42,2.95,8.20,-0.30,0.38,0.29
2540,0.34,2.95,8.62,-0.30,0.38,0.29
2547,0.34,2.95,8.62,-0.34,0.38,0.21
2551,0.46,3.29,8.50,-0.34,0.38,0.21
2556,-0.92,2.18,9.12,-0.34,0.38,0.21
2560,-0.92,2.18,8.96,-0.34,0.38,0.21
2565,-0.65,1.72,9.61,-0.34,0.38,0.21
2571,0.15,1.38,9.46,-0.34,0.38,0.21
2575,1.04,2.14,10.00,-0.34,0.38,0.21
2581,0.80,1.30,9.65,-0.34,0.38,0.21
2585,1.00,1.53,9.88,-0.34,0.38,0.21
2591,1.00,1.53,9.88,-0.38,0.28,0.15
2595,0.30,2.14,9.54,-0.38,0.28,0.15
2600,1.07,2.30,9.27,-0.38,0.28,0.15
2606,1.07,2.30,9.27,-0.37,0.36,0.22
2610,-0.61,1.57,8.92,-0.37,0.36,0.22
2615,-1.00,2.03,9.04,-0.37,0.36,0.22
2621,-0.42,0.57,9.27,-0.37,0.36,0.22
2626,-0.61,1.57,8.96,-0.37,0.36,0.22
2631,-1.30,0.88,8.66,-0.37,0.36,0.22
2636,-0.30,0.00,9.96,-0.37,0.36,0.22
2640,-0.23,0.27,10.04,-0.37,0.36,0.22
2645,-0.04,0.04,10.49,-0.37,0.36,0.22
2650,0.84,-0.08,9.50,-0.37,0.36,0.22
2656,0.57,-0.77,9.08,-0.37,0.36,0.22
2660,-0.04,-1.49,9.08,-0.37,0.36,0.22
2665,-1.65,0.15,8.16,-0.37,0.36,0.22
2671,-1.15,0.57,9.35,-0.37,0.36,0.22
2676,-0.54,-0.96,8.89,-0.37,0.36,0.22
2681,0.92,-2.22,10.23,-0.37,0.36,0.22
2685,1.23,-0.38,9.54,-0.37,0.36,0.22
2691,1.68,-2.03,9.58,-0.37,0.36,0.22
2695,-0.80,-1.88,8.84,-0.37,0.36,0.22
2701,0.11,-1.65,9.96,-0.37,0.36,0.22
2706,0.15,-1.61,9.65,-0.37,0.36,0.22
2711,-0.19,-2.22,9.50,-0.37,0.36,0.22
2715,0.19,-1.91,8.92,-0.37,0.36,0.22
2720,0.19,-1.88,8.58,-0.37,0.36,0.22
2726,0.19,-1.88,8.58,-0.12,0.19,0.97
2731,0.50,-1.84,9.54,-0.12,0.19,0.97
2736,1.00,-1.99,10.11,-0.12,0.19,0.97
2741,0.80,-3.29,10.07,-0.12,0.19,0.97
2745,1.07,-2.14,10.95,-0.12,0.19,0.97
2750,1.65,-2.95,11.04,-0.12,0.19,0.97
2756,1.00,-1.72,11.41,-0.12,0.19,0.97
2761,1.00,-1.72,11.41,-0.05,0.18,1.13
2765,-0.23,-1.72,10.11,-0.05,0.18,1.13
2770,0.27,-1.53,10.27,-0.05,0.18,1.13
2776,0.38,-1.38,9.89,-0.05,0.18,1.13
2781,1.46,-0.65,10.45,-0.05,0.18,1.13
2785,1.46,-0.65,10.45,-0.06,0.18,1.11
2790,1.46,-0.65,10.45,-0.07,0.17,1.11
2795,2.14,-0.77,10.11,-0.07,0.17,1.11
2800,2.14,-0.77,10.11,-0.09,0.20,1.09
2807,2.14,-0.77,10.11,-0.11,0.24,1.07
2811,-1.30,1.04,10.73,-0.11,0.24,1.07
2815,-1.30,1.04,10.73,-0.18,0.28,0.96
2820,-1.30,1.04,10.73,-0.20,0.23,0.92
2826,1.27,0.38,10.34,-0.20,0.23,0.92
2831,0.61,1.23,9.42,-0.20,0.23,0.92
2836,-0.57,1.46,8.66,-0.20,0.23,0.92
2840,-0.57,1.46,8.66,-0.26,0.27,0.74
2845,-0.88,2.80,9.23,-0.26,0.27,0.74
2851,-0.88,2.80,9.23,-0.27,0.30,0.72
2856,-1.19,3.26,9.65,-0.27,0.30,0.72
2860,0.11,2.84,10.15,-0.27,0.30,0.72
2865,0.61,2.45,10.69,-0.27,0.30,0.72
2870,1.07,2.53,11.15,-0.27,0.30,0.72
2875,-0.11,2.91,10.54,-0.27,0.30,0.72
2881,-0.23,2.64,10.15,-0.27,0.30,0.72
2886,-0.69,2.68,8.88,-0.27,0.30,0.72
2891,-0.69,2.68,8.88,-0.41,0.31,0.37
2895,-0.50,3.68,9.92,-0.41,0.31,0.37
2901,-1.19,3.64,8.92,-0.41,0.31,0.37
2906,-0.77,3.33,9.54,-0.41,0.31,0.37
2910,-1.30,3.48,9.00,-0.41,0.31,0.37
2916,-0.19,2.61,9.84,-0.41,0.31,0.37
2922,-0.38,2.91,9.34,-0.41,0.31,0.37
2926,-0.38,2.91,9.34,-0.55,0.31,0.06
2931,0.42,1.99,8.96,-0.55,0.31,0.06
2935,-0.30,2.76,8.92,-0.55,0.31,0.06
2940,0.30,2.18,9.35,-0.55,0.31,0.06
2945,0.42,1.95,8.89,-0.55,0.31,0.06
2951,0.11,1.80,8.66,-0.55,0.31,0.06
2956,-1.04,2.11,8.54,-0.55,0.31,0.06
2960,-1.04,2.11,8.54,-0.58,0.33,-0.14
2965,-1.04,2.11,8.54,-0.57,0.34,-0.14
2970,-0.15,1.88,9.04,-0.57,0.34,-0.14
2975,-1.00,2.22,8.66,-0.57,0.34,-0.14
2982,-0.08,1.88,9.08,-0.57,0.34,-0.14
2985,-1.30,2.07,8.04,-0.57,0.34,-0.14
2990,-0.84,1.38,8.16,-0.57,0.34,-0.14
2995,-0.92,1.88,8.31,-0.57,0.34,-0.14
3001,-0.50,1.95,8.20,-0.57,0.34,-0.14
3006,-0.92,2.57,8.85,-0.57,0.34,-0.14
3011,-0.92,2.57,8.85,-0.59,0.21,-0.27
3015,0.92,1.38,10.27,-0.59,0.21,-0.27
3020,0.84,0.77,10.11,-0.59,0.21,-0.27
3026,0.23,1.19,10.80,-0.59,0.21,-0.27
3031,-0.04,0.73,9.80,-0.59,0.21,-0.27
3036,0.04,0.96,10.11,-0.59,0.21,-0.27
3041,-0.27,0.61,8.85,-0.59,0.21,-0.27
3045,-0.27,0.61,8.85,-0.55,0.23,-0.38
3050,-2.64,1.68,8.24,-0.55,0.23,-0.38
3056,-1.95,1.07,8.12,-0.55,0.23,-0.38
3061,-0.96,0.92,8.50,-0.55,0.23,-0.38
3065,-0.96,0.92,8.50,-0.56,0.18,-0.43
3070,-0.19,1.53,8.66,-0.56,0.18,-0.43
3075,-0.19,1.53,8.66,-0.56,0.15,-0.45
3080,-0.19,1.53,8.66,-0.58,0.14,-0.49
3086,-1.00,1.30,9.08,-0.58,0.14,-0.49
3091,-1.30,1.42,8.73,-0.58,0.14,-0.49
3096,-1.57,0.88,8.35,-0.58,0.14,-0.49
3100,-1.57,0.88,8.35,-0.53,0.17,-0.49
3106,-0.96,1.15,8.36,-0.53,0.17,-0.49
3111,-0.34,1.15,9.23,-0.53,0.17,-0.49
3115,-0.27,0.96,9.04,-0.53,0.17,-0.49
3121,-0.27,1.80,8.46,-0.53,0.17,-0.49
3126,1.42,0.77,9.38,-0.53,0.17,-0.49
3131,1.42,0.77,9.38,-0.50,0.05,-0.49
3136,1.42,0.77,9.38,-0.49,0.06,-0.49
3140,-1.15,0.80,8.81,-0.49,0.06,-0.49
3145,-0.88,1.00,9.65,-0.49,0.06,-0.49
3152,-0.77,0.42,9.35,-0.49,0.06,-0.49
3156,-0.88,-0.19,8.82,-0.49,0.06,-0.49
3160,-0.50,0.15,9.46,-0.49,0.06,-0.49
3165,-0.38,-0.57,9.81,-0.49,0.06,-0.49
3172,0.00,-0.34,9.80,-0.49,0.06,-0.49
3176,0.46,-0.42,9.81,-0.49,0.06,-0.49
3181,0.08,-0.69,8.46,-0.49,0.06,-0.49
3187,-0.42,0.11,8.96,-0.49,0.06,-0.49
3190,-0.08,-0.57,9.73,-0.49,0.06,-0.49
3195,0.15,-0.19,9.16,-0.49,0.06,-0.49
3200,-0.11,-1.23,9.80,-0.49,0.06,-0.49
3206,-0.84,-0.15,9.20,-0.49,0.06,-0.49
3212,-0.27,-0.96,10.19,-0.49,0.06,-0.49
3217,0.27,-0.92,9.77,-0.49,0.06,-0.49
3220,0.27,-0.92,9.77,-0.31,0.08,-0.48
3226,0.27,-0.92,9.77,-0.31,0.06,-0.48
3231,-0.50,0.23,9.69,-0.31,0.06,-0.48
3237,-0.30,0.04,10.50,-0.31,0.06,-0.48
3241,0.19,0.15,10.80,-0.31,0.06,-0.48
3246,-0.19,0.88,9.69,-0.31,0.06,-0.48
3252,-0.73,-0.08,9.42,-0.31,0.06,-0.48
3256,-0.73,-0.08,9.42,-0.29,0.08,-0.45
3260,0.08,-0.42,9.69,-0.29,0.08,-0.45
3265,-0.30,-0.30,8.96,-0.29,0.08,-0.45
3272,0.00,0.61,9.58,-0.29,0.08,-0.45
3276,0.65,0.80,9.69,-0.29,0.08,-0.45
3281,0.65,-0.15,9.61,-0.29,0.08,-0.45
3285,0.65,-0.15,9.61,-0.23,0.04,-0.29
3290,0.65,-0.15,9.61,-0.24,0.05,-0.28
3295,-0.08,0.34,9.39,-0.24,0.05,-0.28
3302,-0.04,-0.08,9.65,-0.24,0.05,-0.28
3306,-0.04,-0.08,9.65,-0.22,0.04,-0.20
3311,-1.00,-0.27,8.62,-0.22,0.04,-0.20
3317,-0.77,-0.80,8.58,-0.22,0.04,-0.20
3320,-0.77,-0.80,8.58,-0.18,0.03,-0.10
3326,-0.77,-0.80,8.58,-0.17,0.02,-0.07
3331,-0.54,-0.88,8.74,-0.17,0.02,-0.07
3337,-1.23,-0.96,9.69,-0.17,0.02,-0.07
3340,-1.23,-0.96,9.69,-0.12,0.01,0.03
3346,-1.23,-0.96,9.69,-0.11,0.01,0.07
3352,0.15,-2.38,11.04,-0.11,0.01,0.07
3356,0.15,-2.38,11.04,-0.07,0.01,0.15
3360,0.15,-2.38,11.04,-0.05,0.02,0.17
3365,-0.19,-2.84,10.35,-0.05,0.02,0.17
3372,-0.88,-2.38,9.43,-0.05,0.02,0.17
3376,-0.88,-2.38,9.43,0.01,0.06,0.28
3381,-1.34,-2.95,9.16,0.01,0.06,0.28
3385,-1.61,-2.03,8.58,0.01,0.06,0.28
3392,0.30,-1.99,9.12,0.01,0.06,0.28
3396,0.30,-1.99,9.12,0.02,-0.02,0.33
3400,-0.23,-1.61,9.61,0.02,-0.02,0.33
3406,-0.38,-0.50,9.20,0.02,-0.02,0.33
3412,-1.04,-1.84,9.16,0.02,-0.02,0.33
3416,-0.80,-1.30,9.08,0.02,-0.02,0.33
3421,-0.42,-0.73,9.65,0.02,-0.02,0.33
3426,-0.42,-0.73,9.65,0.01,-0.03,0.39
3431,-0.42,-0.73,9.65,0.00,-0.03,0.38
3437,-0.46,-0.92,10.39,0.00,-0.03,0.38
3441,-0.46,-0.92,10.39,0.01,-0.00,0.39
3445,-0.46,-0.92,10.39,0.01,0.01,0.39
3451,-0.92,-0.04,9.65,0.01,0.01,0.39
3457,-0.11,-0.88,9.61,0.01,0.01,0.39
3461,-0.11,-0.88,9.61,0.01,0.05,0.37
3466,-0.11,-0.88,9.61,0.01,0.06,0.36
3472,-1.15,-0.23,8.74,0.01,0.06,0.36
3476,-1.15,-0.23,8.74,-0.00,0.01,0.35
3481,-1.15,-0.23,8.74,-0.02,-0.02,0.34
3486,-1.15,-0.23,8.74,-0.03,-0.03,0.32
3492,-0.84,0.69,9.04,-0.03,-0.03,0.32
3495,-0.84,0.69,9.04,-0.07,-0.04,0.25
3500,-0.73,0.96,9.12,-0.07,-0.04,0.25
3506,-1.38,0.73,9.69,-0.07,-0.04,0.25
3512,-1.34,1.00,10.00,-0.07,-0.04,0.25
3515,-1.34,1.00,10.00,-0.10,0.05,0.15
3520,-0.84,1.27,9.34,-0.10,0.05,0.15
3527,-1.53,1.61,9.16,-0.10,0.05,0.15
3531,-1.53,1.61,9.16,-0.16,0.05,0.01
3536,-0.92,2.03,9.12,-0.16,0.05,0.01
3541,-1.23,1.38,8.74,-0.16,0.05,0.01
3545,-1.23,1.38,8.74,-0.21,0.04,-0.06
3550,-1.23,1.38,8.74,-0.21,0.03,-0.10
3556,-0.34,2.11,9.58,-0.21,0.03,-0.10
3562,0.08,2.07,9.77,-0.21,0.03,-0.10
3565,0.08,2.07,9.77,-0.22,0.04,-0.15
3571,0.30,1.80,10.35,-0.22,0.04,-0.15
3577,-0.65,0.96,9.50,-0.22,0.04,-0.15
3581,-0.65,0.96,9.50,-0.25,0.08,-0.23
3585,-0.65,0.96,9.50,-0.27,0.07,-0.27
3591,-1.11,2.18,9.16,-0.27,0.07,-0.27
3597,-1.72,2.07,9.20,-0.27,0.07,-0.27
3600,-1.72,2.07,9.20,-0.29,0.09,-0.31
3606,-1.72,2.07,9.20,-0.28,0.08,-0.32
3612,-1.04,1.38,7.47,-0.28,0.08,-0.32
3615,-1.04,1.38,7.47,-0.30,0.04,-0.38
3621,-1.04,1.38,7.47,-0.31,0.00,-0.39
3626,-1.49,1.57,8.58,-0.31,0.00,-0.39
3632,-1.04,1.68,9.46,-0.31,0.00,-0.39
3636,-1.04,1.68,9.46,-0.32,-0.02,-0.42
3640,-1.04,1.68,9.46,-0.33,-0.04,-0.43
3647,0.57,0.69,11.07,-0.33,-0.04,-0.43
3650,0.57,0.69,11.07,-0.33,-0.05,-0.49
3656,0.57,0.69,11.07,-0.32,-0.03,-0.52
3662,0.11,0.00,10.91,-0.32,-0.03,-0.52
3666,0.11,0.00,10.91,-0.30,0.08,-0.55
3671,0.11,0.00,10.91,-0.30,0.12,-0.54
3676,-1.49,0.57,8.96,-0.30,0.12,-0.54
3681,-0.77,-0.19,9.04,-0.30,0.12,-0.54
3685,-0.77,-0.19,9.04,-0.29,0.14,-0.54
3690,-0.77,-0.19,9.04,-0.30,0.12,-0.55
3695,-0.30,-0.50,9.27,-0.30,0.12,-0.55
3702,-0.30,-0.50,9.27,-0.29,0.10,-0.57
3707,0.15,-0.38,9.30,-0.29,0.10,-0.57
3712,-1.53,-1.27,9.58,-0.29,0.10,-0.57
3715,-1.53,-1.27,9.58,-0.27,-0.01,-0.48
3720,-1.53,-1.27,9.58,-0.26,-0.04,-0.48
3726,-1.53,-1.27,9.58,-0.26,-0.04,-0.49
3732,0.73,-0.88,9.65,-0.26,-0.04,-0.49
3735,0.73,-0.88,9.65,-0.25,-0.07,-0.48
3740,0.73,-0.88,9.65,-0.24,-0.07,-0.48
3746,0.73,-0.88,9.65,-0.22,-0.04,-0.50
3752,0.84,-1.07,9.96,-0.22,-0.04,-0.50
3756,0.84,-1.07,9.96,-0.19,0.03,-0.49
3760,0.73,-0.73,9.92,-0.19,0.03,-0.49
3765,-0.15,-0.80,9.23,-0.19,0.03,-0.49
3772,-0.50,-0.73,9.54,-0.19,0.03,-0.49
3776,-0.50,-0.73,9.54,-0.15,0.10,-0.46
3781,-0.57,-1.42,9.16,-0.15,0.10,-0.46
3787,-1.04,-0.23,9.12,-0.15,0.10,-0.46
3791,-1.04,-0.23,9.12,-0.12,0.05,-0.39
3795,-1.04,-0.23,9.12,-0.12,0.01,-0.36
3800,1.19,-0.96,10.07,-0.12,0.01,-0.36
3807,0.65,-1.07,9.04,-0.12,0.01,-0.36
3811,0.65,-1.07,9.04,-0.07,-0.06,-0.31
3816,-0.11,-1.27,9.54,-0.07,-0.06,-0.31
3822,-0.19,-1.07,10.00,-0.07,-0.06,-0.31
3826,-0.19,-1.07,10.00,-0.05,-0.00,-0.24
3831,-0.19,-1.07,10.00,-0.03,0.00,-0.22
3837,0.73,-0.96,10.00,-0.03,0.00,-0.22
3840,0.73,-0.96,10.00,-0.04,0.01,-0.19
3846,0.73,-0.96,10.00,-0.05,0.01,-0.19
4532,0.50,-1.68,10.19,-0.05,0.01,-0.19
4543,0.50,-1.68,10.19,-0.04,0.03,-0.17
4545,0.50,-1.68,10.19,-0.13,0.05,-0.26
4547,0.50,-1.68,10.19,-0.12,0.07,-0.28
4551,0.50,-1.68,10.19,-0.13,0.06,-0.30
4556,-1.38,0.00,8.74,-0.13,0.06,-0.30
4561,-1.91,0.04,8.77,-0.13,0.06,-0.30
4567,-1.57,0.57,9.12,-0.13,0.06,-0.30
4571,-1.57,0.57,9.12,-0.14,0.10,-0.31
4576,-0.50,0.73,9.08,-0.14,0.10,-0.31
4581,-0.50,0.73,9.08,-0.17,0.02,-0.34
4586,-0.50,0.73,9.08,-0.16,-0.02,-0.34
4591,-0.50,0.73,9.08,-0.15,-0.03,-0.33
4597,-1.07,-0.69,9.08,-0.15,-0.03,-0.33
4600,-1.07,-0.69,9.08,-0.12,0.02,-0.28
4606,-1.07,-0.69,9.08,-0.11,0.04,-0.29
4611,-1.07,-0.69,9.08,-0.13,0.04,-0.30
4617,-1.34,0.11,8.78,-0.13,0.04,-0.30
4621,-1.34,0.11,8.78,-0.13,0.03,-0.28
4626,-1.34,0.11,8.78,-0.15,0.04,-0.29
4632,0.11,-0.15,9.20,-0.15,0.04,-0.29
4636,0.11,-0.15,9.20,-0.15,-0.01,-0.28
4640,0.11,-0.15,9.20,-0.16,-0.01,-0.28
4645,0.11,-0.15,9.20,-0.15,0.01,-0.29
4650,-1.27,-0.04,9.93,-0.15,0.01,-0.29
4656,-1.27,-0.04,9.93,-0.16,0.01,-0.28
4662,-1.27,-0.04,9.93,-0.14,0.02,-0.28
4667,-1.84,-0.15,9.69,-0.14,0.02,-0.28
4671,-1.84,-0.15,9.69,-0.12,0.14,-0.28
4676,-1.84,-0.15,9.69,-0.14,0.17,-0.27
4682,-1.84,-0.15,9.69,-0.16,0.13,-0.25
4686,-1.84,-0.15,9.69,-0.17,0.07,-0.27
4691,-1.84,-0.15,9.69,-0.20,0.01,-0.30
4696,-1.84,-0.15,9.69,-0.20,-0.01,-0.33
4702,-1.61,-0.69,9.42,-0.20,-0.01,-0.33
4706,-1.61,-0.69,9.42,-0.18,-0.01,-0.28
4711,-1.61,-0.69,9.42,-0.19,-0.03,-0.25
4716,-1.61,-0.69,9.42,-0.18,-0.03,-0.27
4721,-1.61,-0.69,9.42,-0.19,-0.03,-0.31
4726,-1.61,-0.69,9.42,-0.17,-0.01,-0.32
4731,-1.61,-0.69,9.42,-0.17,0.01,-0.30
4736,1.38,-0.54,10.11,-0.17,0.01,-0.30
4741,1.38,-0.54,10.11,-0.15,0.03,-0.29
4746,1.38,-0.54,10.11,-0.16,0.05,-0.33
4752,1.38,-0.54,10.11,-0.16,0.07,-0.33
4756,1.38,-0.54,10.11,-0.17,0.07,-0.32
4761,1.38,-0.54,10.11,-0.17,0.06,-0.32
4766,1.38,-0.54,10.11,-0.17,0.05,-0.33
4772,-0.88,-1.27,9.04,-0.17,0.05,-0.33
4776,-0.88,-1.27,9.04,-0.16,0.03,-0.32
4781,-0.88,-1.27,9.04,-0.16,0.03,-0.33
4787,-0.88,-1.27,9.04,-0.16,0.01,-0.33
4791,-0.88,-1.27,9.04,-0.16,-0.01,-0.33
4796,-0.88,-1.27,9.04,-0.17,0.00,-0.34
4801,-0.88,-1.27,9.04,-0.16,0.05,-0.36
4807,-2.07,-1.49,9.50,-0.16,0.05,-0.36
4811,-2.07,-1.49,9.50,-0.16,0.13,-0.35
4816,-2.07,-1.49,9.50,-0.14,0.11,-0.33
4822,-2.07,-1.49,9.50,-0.14,0.07,-0.33
4826,-2.07,-1.49,9.50,-0.14,0.04,-0.34
4831,-2.07,-1.49,9.50,-0.14,0.01,-0.34
4836,-2.07,-1.49,9.50,-0.13,-0.00,-0.32
4841,-0.80,-0.34,9.84,-0.13,-0.00,-0.32
4846,-0.80,-0.34,9.84,-0.14,0.02,-0.33
4851,-0.80,-0.34,9.84,-0.14,0.01,-0.32
4856,-0.80,-0.34,9.84,-0.13,0.01,-0.32
4861,-0.80,-0.34,9.84,-0.13,0.02,-0.32
4866,-0.80,-0.34,9.84,-0.14,0.02,-0.32
4871,-0.80,-0.34,9.84,-0.16,0.02,-0.33
4876,-0.30,-0.19,9.50,-0.16,0.02,-0.33
4881,-0.30,-0.19,9.50,-0.18,0.05,-0.37
4886,-0.30,-0.19,9.50,-0.18,0.07,-0.37
4892,0.11,-0.84,9.89,-0.18,0.07,-0.37
4896,0.11,-0.84,9.89,-0.17,0.06,-0.36
4901,0.11,-0.84,9.89,-0.17,0.05,-0.36
4906,0.11,-0.84,9.89,-0.16,0.06,-0.35
4911,0.11,-0.84,9.89,-0.16,0.06,-0.34
4916,0.11,-0.84,9.89,-0.16,0.07,-0.34
4921,0.11,-0.84,9.89,-0.17,0.09,-0.35
4926,-0.30,-0.77,8.70,-0.17,0.09,-0.35
4831,-2.07,-1.49,9.50,-0.14,0.01,-0.34
4836,-2.07,-1.49,9.50,-0.13,-0.00,-0.32
4841,-0.80,-0.34,9.84,-0.13,-0.00,-0.32
4846,-0.80,-0.34,9.84,-0.14,0.02,-0.33
4851,-0.80,-0.34,9.84,-0.14,0.01,-0.32
4856,-0.80,-0.34,9.84,-0.13,0.01,-0.32
4861,-0.80,-0.34,9.84,-0.13,0.02,-0.32
4866,-0.80,-0.34,9.84,-0.14,0.02,-0.32
4871,-0.80,-0.34,9.84,-0.16,0.02,-0.33
4876,-0.30,-0.19,9.50,-0.16,0.02,-0.33
4881,-0.30,-0.19,9.50,-0.18,0.05,-0.37
4886,-0.30,-0.19,9.50,-0.18,0.07,-0.37
4892,0.11,-0.84,9.89,-0.18,0.07,-0.37
4896,0.11,-0.84,9.89,-0.17,0.06,-0.36
4901,0.11,-0.84,9.89,-0.17,0.05,-0.36
