timestamp,accX,accY,accZ,gyroX,gyroY,gyroZ
Right
5,-0.88,0.04,10.39,-0.06,0.08,-0.14
18,-0.88,0.04,10.39,-0.06,0.09,-0.15
20,-0.88,0.04,10.39,0.12,0.04,0.17
21,-0.88,0.04,10.39,0.05,-0.02,0.18
25,2.11,1.00,10.53,0.05,-0.02,0.18
30,2.11,1.00,10.53,0.05,-0.11,0.17
36,2.91,-0.23,12.95,0.05,-0.11,0.17
41,2.14,-0.61,13.37,0.05,-0.11,0.17
46,2.14,-0.61,13.37,0.11,-0.10,0.11
51,2.14,-0.61,13.37,0.13,0.01,0.14
57,-2.61,-0.57,9.77,0.13,0.01,0.14
60,-2.61,-0.57,9.77,0.15,0.18,0.23
65,-2.61,-0.57,9.77,0.12,0.18,0.24
71,-1.72,1.04,7.51,0.12,0.18,0.24
77,-1.46,0.27,8.70,0.12,0.18,0.24
80,-1.46,0.27,8.70,0.03,-0.02,0.10
86,-1.46,0.27,8.70,0.04,-0.07,0.13
91,-3.45,0.19,8.27,0.04,-0.07,0.13
96,-3.45,0.19,8.27,0.06,-0.04,0.22
100,-3.45,0.19,8.27,0.06,-0.05,0.26
106,-3.45,0.19,8.27,0.04,-0.06,0.24
111,1.07,-0.61,9.77,0.04,-0.06,0.24
116,1.07,-0.61,9.77,0.03,-0.15,0.18
120,1.07,-0.61,9.77,0.05,-0.14,0.18
127,0.50,-1.07,10.07,0.05,-0.14,0.18
131,0.50,-1.07,10.07,0.06,-0.09,0.25
136,0.50,-1.07,10.07,0.07,-0.03,0.26
142,0.23,0.77,11.80,0.07,-0.03,0.26
145,0.23,0.77,11.80,0.03,0.08,0.15
150,0.23,0.77,11.80,0.03,0.11,0.10
156,0.23,0.77,11.80,0.03,0.11,0.10
161,0.42,-1.00,10.92,0.03,0.11,0.10
166,0.42,-1.00,10.92,0.04,0.06,0.12
171,0.42,-1.00,10.92,0.02,0.04,0.12
177,-2.26,0.04,8.35,0.02,0.04,0.12
180,-2.26,0.04,8.35,0.02,0.10,0.07
186,-2.26,0.04,8.35,0.01,0.11,0.11
191,-2.68,1.65,6.78,0.01,0.11,0.11
196,-1.57,1.65,8.32,0.01,0.11,0.11
200,-1.57,1.65,8.32,-0.09,0.01,0.09
206,-1.57,1.65,8.32,-0.10,-0.06,0.03
212,0.04,-0.57,8.58,-0.10,-0.06,0.03
215,0.04,-0.57,8.58,-0.10,-0.17,0.06
220,0.04,-0.57,8.58,-0.07,-0.18,0.10
226,0.04,-0.57,8.58,-0.04,-0.15,0.13
232,1.72,-0.27,13.14,-0.04,-0.15,0.13
236,1.72,-0.27,13.14,-0.00,-0.01,0.13
241,1.72,-0.27,13.14,0.01,0.08,0.10
247,-0.88,0.50,10.11,0.01,0.08,0.10
252,-0.88,0.50,10.11,-0.00,0.22,0.07
256,-0.88,0.50,10.11,-0.04,0.21,0.10
261,-0.88,0.50,10.11,-0.06,0.17,0.11
266,-0.42,0.30,7.43,-0.06,0.17,0.11
271,-0.42,0.30,7.43,-0.10,0.01,0.07
276,-0.42,0.30,7.43,-0.11,-0.06,0.06
281,-0.11,-0.54,10.45,-0.11,-0.06,0.06
286,-0.11,-0.54,10.45,-0.13,-0.06,0.01
291,-0.11,-0.54,10.45,-0.12,-0.01,0.00
296,-0.42,-2.03,9.39,-0.12,-0.01,0.00
302,-0.15,-1.07,10.50,-0.12,-0.01,0.00
306,-0.15,-1.07,10.50,-0.08,0.03,0.05
311,-0.15,-1.07,10.50,-0.07,-0.01,0.05
316,0.92,-1.19,8.50,-0.07,-0.01,0.05
322,0.92,-1.19,8.50,-0.09,-0.06,0.08
326,0.92,-1.19,8.50,-0.08,-0.05,0.07
332,0.92,-1.19,8.50,-0.07,-0.00,0.08
335,0.92,-1.19,8.50,-0.08,0.06,0.11
340,0.92,-1.19,8.50,-0.09,0.10,0.14
346,0.92,-1.19,8.50,-0.08,0.10,0.15
352,1.19,0.27,10.65,-0.08,0.10,0.15
356,1.19,0.27,10.65,-0.05,0.04,0.13
361,1.19,0.27,10.65,-0.04,-0.01,0.16
367,0.08,-0.57,8.73,-0.04,-0.01,0.16
370,0.08,-0.57,8.73,-0.04,0.00,0.27
376,0.08,-0.57,8.73,-0.04,0.03,0.30
381,0.08,-0.57,8.73,-0.06,0.05,0.29
386,-1.68,1.99,6.97,-0.06,0.05,0.29
391,-1.68,1.99,6.97,-0.15,0.04,0.23
396,-1.68,1.99,6.97,-0.17,-0.02,0.21
402,1.19,-0.96,11.19,-0.17,-0.02,0.21
406,1.19,-0.96,11.19,-0.12,-0.14,0.18
411,1.19,-0.96,11.19,-0.09,-0.15,0.18
416,0.11,-2.49,12.72,-0.09,-0.15,0.18
421,-1.42,-1.72,11.38,-0.09,-0.15,0.18
426,-1.42,-1.72,11.38,-0.04,0.08,0.12
431,-1.42,-1.72,11.38,-0.04,0.19,0.11
437,-3.71,0.42,7.47,-0.04,0.19,0.11
440,-3.71,0.42,7.47,-0.12,0.28,0.05
446,-3.71,0.42,7.47,-0.18,0.24,-0.01
451,-4.06,-0.11,5.66,-0.18,0.24,-0.01
456,-3.60,-0.50,7.12,-0.18,0.24,-0.01
461,-3.60,-0.50,7.12,-0.21,0.03,-0.09
466,-3.60,-0.50,7.12,-0.21,-0.02,-0.05
472,0.50,0.08,11.11,-0.21,-0.02,-0.05
476,0.50,0.08,11.11,-0.20,-0.09,-0.07
481,0.50,0.08,11.11,-0.17,-0.13,-0.12
487,0.50,0.08,11.11,-0.15,-0.13,-0.14
490,0.50,0.08,11.11,-0.12,-0.08,-0.14
496,0.50,0.08,11.11,-0.12,0.00,-0.10
501,0.50,0.08,11.11,-0.12,0.08,-0.06
507,-0.46,2.49,8.70,-0.12,0.08,-0.06
511,-0.46,2.49,8.70,-0.18,0.15,-0.14
516,-0.46,2.49,8.70,-0.21,0.12,-0.21
520,0.57,2.22,10.57,-0.21,0.12,-0.21
527,0.19,1.34,10.73,-0.21,0.12,-0.21
531,0.19,1.34,10.73,-0.25,0.08,-0.29
536,0.19,1.34,10.73,-0.22,0.06,-0.27
541,0.46,0.23,10.38,-0.22,0.06,-0.27
546,0.46,0.23,10.38,-0.21,0.07,-0.32
551,0.46,0.23,10.38,-0.21,0.08,-0.33
557,-1.95,1.38,7.12,-0.21,0.08,-0.33
560,-1.95,1.38,7.12,-0.24,0.09,-0.29
566,-1.95,1.38,7.12,-0.25,0.05,-0.27
571,-1.95,1.38,7.12,-0.27,0.02,-0.30
577,-1.27,0.46,7.70,-0.27,0.02,-0.30
581,-1.27,0.46,7.70,-0.25,-0.02,-0.26
586,-1.27,0.46,7.70,-0.22,-0.06,-0.18
592,-0.46,-1.53,6.40,-0.22,-0.06,-0.18
596,-0.46,-1.53,6.40,-0.18,-0.12,-0.12
601,-0.46,-1.53,6.40,-0.17,-0.09,-0.12
606,-0.46,-1.53,6.40,-0.11,-0.07,-0.07
611,-0.23,-1.68,12.49,-0.11,-0.07,-0.07
616,-0.23,-1.68,12.49,-0.05,-0.01,-0.03
622,-0.23,-1.68,12.49,-0.04,0.01,-0.04
627,0.73,-0.88,8.81,-0.04,0.01,-0.04
631,0.73,-0.88,8.81,-0.06,0.01,-0.05
636,0.73,-0.88,8.81,-0.08,0.04,-0.05
641,0.73,-0.88,8.81,-0.10,0.03,-0.04
646,0.84,-0.77,8.84,-0.10,0.03,-0.04
651,0.84,-0.77,8.84,-0.12,0.04,-0.09
656,0.84,-0.77,8.84,-0.09,0.08,-0.11
661,-2.30,-0.38,11.99,-0.09,0.08,-0.11
666,-2.30,-0.38,11.99,-0.07,0.18,-0.06
671,-2.30,-0.38,11.99,-0.04,0.20,-0.02
677,-2.03,-0.04,7.55,-0.04,0.20,-0.02
680,-2.03,-0.04,7.55,-0.04,0.10,0.05
686,-2.03,-0.04,7.55,-0.02,-0.01,0.07
691,-2.03,-0.04,7.55,-0.04,-0.12,0.10
697,-0.30,-0.50,6.66,-0.04,-0.12,0.10
701,-0.30,-0.50,6.66,-0.06,-0.20,0.16
706,-0.30,-0.50,6.66,-0.07,-0.18,0.18
712,-0.30,-0.50,6.66,-0.04,-0.12,0.20
716,-0.30,-0.50,6.66,-0.06,-0.06,0.21
721,-0.30,-0.50,6.66,-0.05,-0.01,0.20
726,-0.30,-0.50,6.66,-0.06,0.02,0.15
732,1.46,-2.99,11.57,-0.06,0.02,0.15
736,1.46,-2.99,11.57,-0.04,0.03,0.10
741,1.46,-2.99,11.57,-0.02,0.03,0.12
747,1.46,-2.99,11.57,-0.02,0.03,0.13
751,1.46,-2.99,11.57,-0.04,0.05,0.15
756,1.46,-2.99,11.57,-0.06,0.08,0.16
761,1.46,-2.99,11.57,-0.10,0.10,0.15
766,-1.15,-1.07,6.86,-0.10,0.10,0.15
771,-1.15,-1.07,6.86,-0.12,0.00,0.16
776,-1.15,-1.07,6.86,-0.09,-0.09,0.18
782,-1.15,-1.07,6.86,-0.05,-0.16,0.18
786,-1.15,-1.07,6.86,0.01,-0.18,0.18
791,-1.15,-1.07,6.86,0.07,-0.13,0.16
796,-1.15,-1.07,6.86,0.12,-0.03,0.17
801,-2.14,-2.57,9.84,0.12,-0.03,0.17
806,-2.14,-2.57,9.84,0.12,0.19,0.26
811,-2.14,-2.57,9.84,0.05,0.22,0.29
816,-2.14,-2.57,9.84,-0.02,0.20,0.25
821,-2.14,-2.57,9.84,-0.09,0.13,0.16
826,-2.14,-2.57,9.84,-0.14,0.06,0.08
831,-2.14,-2.57,9.84,-0.16,-0.01,0.07
836,-1.65,-0.80,9.69,-0.16,-0.01,0.07
841,-1.65,-0.80,9.69,-0.07,-0.08,0.24
846,-1.65,-0.80,9.69,-0.06,-0.08,0.30
852,-1.65,-0.80,9.69,-0.03,-0.08,0.33
856,-1.65,-0.80,9.69,-0.02,-0.12,0.31
861,-1.65,-0.80,9.69,-0.02,-0.13,0.29
866,-1.65,-0.80,9.69,-0.03,-0.12,0.28
871,-0.38,-0.80,9.77,-0.03,-0.12,0.28
876,-0.38,-0.80,9.77,-0.04,-0.05,0.34
881,-0.38,-0.80,9.77,-0.07,-0.01,0.34
886,0.19,0.42,10.07,-0.07,-0.01,0.34
891,0.19,0.42,10.07,-0.14,0.05,0.20
896,0.19,0.42,10.07,-0.16,0.05,0.12
901,0.19,0.42,10.07,-0.15,0.06,0.09
906,-1.19,-1.65,11.19,-0.15,0.06,0.09
911,-1.19,-1.65,11.19,-0.14,0.08,0.08
916,-1.19,-1.65,11.19,-0.13,0.08,0.04
921,-1.76,-0.61,9.35,-0.13,0.08,0.04
926,-1.76,-0.61,9.35,-0.16,0.08,-0.07
931,-1.76,-0.61,9.35,-0.19,0.08,-0.07
936,-1.76,-0.61,9.35,-0.22,0.07,-0.07
941,-1.76,-0.61,9.35,-0.26,0.05,-0.10
946,-1.76,-0.61,9.35,-0.27,0.02,-0.15
951,-1.76,-0.61,9.35,-0.28,-0.00,-0.18
956,0.46,0.96,8.50,-0.28,-0.00,-0.18
961,0.46,0.96,8.50,-0.31,-0.04,-0.21
966,0.46,0.96,8.50,-0.30,-0.04,-0.23
972,0.46,0.96,8.50,-0.29,-0.00,-0.25
976,0.46,0.96,8.50,-0.30,0.04,-0.23
981,0.46,0.96,8.50,-0.27,0.06,-0.21
986,0.46,0.96,8.50,-0.27,0.10,-0.26
991,-0.92,2.99,10.27,-0.27,0.10,-0.26
996,-0.92,2.99,10.27,-0.31,0.14,-0.36
1001,-0.92,2.99,10.27,-0.33,0.14,-0.35
1006,-0.92,2.99,10.27,-0.35,0.12,-0.36
1011,-0.92,2.99,10.27,-0.38,0.11,-0.39
1016,-0.92,2.99,10.27,-0.39,0.10,-0.40
1021,-0.92,2.99,10.27,-0.41,0.07,-0.43
1027,-1.00,1.42,9.80,-0.41,0.07,-0.43
1031,-1.00,1.42,9.80,-0.41,0.09,-0.49
1036,-1.00,1.42,9.80,-0.40,0.12,-0.49
1041,-1.00,1.42,9.80,-0.38,0.15,-0.45
1045,-1.00,1.42,9.80,-0.37,0.13,-0.41
1050,-1.53,0.04,8.77,-0.37,0.13,-0.41
1056,-1.53,0.04,8.77,-0.38,0.09,-0.41
1061,0.19,-0.88,9.65,-0.38,0.09,-0.41
1066,0.19,-0.88,9.65,-0.36,-0.04,-0.46
1071,0.19,-0.88,9.65,-0.35,-0.05,-0.45
1076,0.19,-0.88,9.65,-0.33,-0.04,-0.43
1081,0.19,-0.88,9.65,-0.32,0.00,-0.40
1086,0.19,-0.88,9.65,-0.31,0.08,-0.38
1090,0.19,-0.88,9.65,-0.31,0.14,-0.34
1096,-0.46,1.27,11.46,-0.31,0.14,-0.34
1101,-0.46,1.27,11.46,-0.30,0.19,-0.35
1106,-0.46,1.27,11.46,-0.31,0.18,-0.36
1111,-0.46,1.27,11.46,-0.29,0.16,-0.35
1116,-0.46,1.27,11.46,-0.26,0.11,-0.29
1121,-0.46,1.27,11.46,-0.25,0.05,-0.21
1126,-0.46,1.27,11.46,-0.25,0.01,-0.14
1131,-0.46,1.27,11.46,-0.26,-0.02,-0.10
1136,-0.46,1.27,11.46,-0.27,-0.06,-0.07
1141,-0.46,1.27,11.46,-0.26,-0.11,-0.07
1146,3.71,-1.91,13.64,-0.26,-0.11,-0.07
1151,3.71,-1.91,13.64,-0.18,-0.15,-0.08
1156,3.71,-1.91,13.64,-0.14,-0.12,-0.09
1160,3.71,-1.91,13.64,-0.08,-0.05,-0.12
1166,1.46,-3.52,11.72,-0.08,-0.05,-0.12
1171,1.46,-3.52,11.72,-0.05,0.18,-0.07
1176,1.46,-3.52,11.72,-0.08,0.27,-0.03
1181,-0.61,0.08,7.36,-0.08,0.27,-0.03
1186,-0.61,0.08,7.36,-0.21,0.26,-0.06
1191,-0.61,0.08,7.36,-0.26,0.17,-0.13
1196,-0.61,0.08,7.36,-0.27,0.10,-0.22
1201,-0.61,0.08,7.36,-0.26,0.03,-0.23
1206,-0.61,0.08,7.36,-0.21,0.00,-0.16
1211,-0.61,0.08,7.36,-0.18,-0.00,-0.08
1217,0.00,-1.99,9.12,-0.18,-0.00,-0.08
1221,0.00,-1.99,9.12,-0.14,-0.06,-0.02
1226,0.00,-1.99,9.12,-0.13,-0.11,-0.07
1231,0.00,-1.99,9.12,-0.16,-0.15,-0.12
1236,0.00,-1.99,9.12,-0.17,-0.14,-0.11
1241,0.00,-1.99,9.12,-0.15,-0.11,-0.07
1246,0.00,-1.99,9.12,-0.15,-0.06,-0.04
1252,-0.69,-1.23,10.46,-0.15,-0.06,-0.04
1256,-0.69,-1.23,10.46,-0.16,0.05,-0.11
1261,-0.69,-1.23,10.46,-0.16,0.09,-0.18
1266,-0.69,-1.23,10.46,-0.15,0.11,-0.21
1271,-0.69,-1.23,10.46,-0.14,0.12,-0.21
1276,-0.69,-1.23,10.46,-0.12,0.12,-0.19
1280,-0.69,-1.23,10.46,-0.11,0.13,-0.18
1286,-0.84,-0.54,10.11,-0.11,0.13,-0.18
1291,-0.84,-0.54,10.11,-0.12,0.13,-0.18
1296,-0.84,-0.54,10.11,-0.16,0.15,-0.21
1301,-0.84,-0.54,10.11,-0.18,0.17,-0.23
1306,-0.84,-0.54,10.11,-0.19,0.15,-0.21
1311,-0.84,-0.54,10.11,-0.24,0.11,-0.18
1315,-0.84,-0.54,10.11,-0.25,0.05,-0.18
1321,0.50,0.69,8.23,-0.25,0.05,-0.18
1326,0.50,0.69,8.23,-0.30,-0.15,-0.19
1331,0.50,0.69,8.23,-0.30,-0.24,-0.19
1336,0.50,0.69,8.23,-0.31,-0.29,-0.19
1341,0.50,0.69,8.23,-0.25,-0.30,-0.17
1346,0.50,0.69,8.23,-0.20,-0.26,-0.15
1351,0.50,0.69,8.23,-0.17,-0.17,-0.16
1356,0.50,0.69,8.23,-0.11,-0.04,-0.19
1361,0.50,0.69,8.23,-0.10,0.13,-0.24
1366,0.50,0.69,8.23,-0.10,0.29,-0.28
1371,0.50,0.69,8.23,-0.15,0.36,-0.26
1376,0.50,0.69,8.23,-0.19,0.37,-0.24
1381,0.50,0.69,8.23,-0.24,0.29,-0.25
1386,0.50,0.69,8.23,-0.32,0.16,-0.27
1391,0.50,0.69,8.23,-0.31,-0.02,-0.30
1396,0.50,0.69,8.23,-0.29,-0.17,-0.30
1401,0.50,0.69,8.23,-0.26,-0.24,-0.32
1406,1.23,-1.80,12.83,-0.26,-0.24,-0.32
1411,1.23,-1.80,12.83,-0.16,-0.13,-0.28
1416,1.23,-1.80,12.83,-0.12,0.01,-0.22
1421,1.23,-1.80,12.83,-0.12,0.14,-0.16
1426,1.23,-1.80,12.83,-0.12,0.20,-0.11
1431,1.23,-1.80,12.83,-0.14,0.20,-0.06
1435,1.23,-1.80,12.83,-0.20,0.16,-0.05
1441,-0.46,0.92,6.71,-0.20,0.16,-0.05
1446,-0.46,0.92,6.71,-0.23,-0.02,-0.06
1451,-0.46,0.92,6.71,-0.22,-0.08,-0.06
1456,-0.46,0.92,6.71,-0.21,-0.11,-0.04
1461,-0.46,0.92,6.71,-0.18,-0.11,-0.02
1466,-0.46,0.92,6.71,-0.14,-0.08,-0.02
1470,-0.46,0.92,6.71,-0.14,-0.04,-0.06
1476,0.00,0.38,11.26,-0.14,-0.04,-0.06
1481,0.00,0.38,11.26,-0.19,0.08,-0.22
1486,0.00,0.38,11.26,-0.22,0.13,-0.29
1490,0.00,0.38,11.26,-0.26,0.17,-0.33
1496,-1.68,1.27,6.44,-0.26,0.17,-0.33
1501,-1.68,1.27,6.44,-0.36,0.15,-0.39
1505,-1.68,1.27,6.44,-0.43,0.10,-0.47
1511,-0.57,1.34,8.43,-0.43,0.10,-0.47
1516,-0.57,1.34,8.43,-0.47,-0.03,-0.64
1521,-0.57,1.34,8.43,-0.42,-0.09,-0.65
1526,-0.57,1.34,8.43,-0.35,-0.12,-0.64
1531,2.34,0.08,16.63,-0.35,-0.12,-0.64
1536,2.34,0.08,16.63,-0.23,0.05,-0.68
1540,2.34,0.08,16.63,-0.20,0.24,-0.72
1546,-1.72,1.84,9.92,-0.20,0.24,-0.72
1551,-1.72,1.84,9.92,-0.27,0.46,-0.69
1556,-1.72,1.84,9.92,-0.37,0.47,-0.66
1560,-1.72,1.84,9.92,-0.47,0.42,-0.65
1566,-5.67,3.79,-4.06,-0.47,0.42,-0.65
1571,-5.67,3.79,-4.06,-0.60,0.16,-0.60
1575,-5.67,3.79,-4.06,-0.63,-0.02,-0.51
1581,4.10,1.88,11.11,-0.63,-0.02,-0.51
1585,4.10,1.88,11.11,-0.44,-0.48,-0.25
1590,5.05,-0.88,19.43,-0.44,-0.48,-0.25
1596,5.05,-0.88,19.43,-0.21,-0.60,-0.30
1601,6.17,-4.29,20.80,-0.21,-0.60,-0.30
1606,6.17,-4.29,20.80,-0.00,-0.24,-0.37
1610,6.17,-4.29,20.80,-0.06,0.03,-0.34
1616,2.07,-3.45,10.61,-0.06,0.03,-0.34
1621,2.07,-3.45,10.61,-0.19,0.37,-0.31
1626,2.07,-3.45,10.61,-0.33,0.49,-0.45
1631,2.07,-3.45,10.61,-0.46,0.54,-0.61
1636,2.07,-3.45,10.61,-0.51,0.53,-0.72
1641,2.07,-3.45,10.61,-0.53,0.50,-0.78
1645,2.07,-3.45,10.61,-0.53,0.43,-0.77
1651,-1.49,-4.75,9.43,-0.53,0.43,-0.77
1656,-1.49,-4.75,9.43,-0.29,0.15,-0.59
1660,-1.49,-4.75,9.43,-0.19,0.02,-0.52
1666,3.87,-5.05,14.68,-0.19,0.02,-0.52
1671,3.87,-5.05,14.68,0.01,-0.09,-0.49
1676,3.87,-5.05,14.68,0.03,-0.06,-0.49
1680,3.87,-5.05,14.68,0.01,0.00,-0.46
1686,-2.41,1.30,7.73,0.01,0.00,-0.46
1691,-2.41,1.30,7.73,-0.14,0.16,-0.46
1695,-2.41,1.30,7.73,-0.23,0.23,-0.51
1701,-4.18,4.98,3.71,-0.23,0.23,-0.51
1706,-4.18,4.98,3.71,-0.42,0.22,-0.61
1711,-4.18,4.98,3.71,-0.45,0.15,-0.62
1716,-4.18,4.98,3.71,-0.45,0.02,-0.59
1721,-0.96,0.00,8.08,-0.45,0.02,-0.59
1726,-0.96,0.00,8.08,-0.30,-0.21,-0.42
1730,-0.96,0.00,8.08,-0.20,-0.25,-0.34
1736,0.34,-0.27,14.10,-0.20,-0.25,-0.34
1741,0.34,-0.27,14.10,-0.08,-0.21,-0.20
1746,0.34,-0.27,14.10,-0.06,-0.24,-0.18
1751,0.34,-0.27,14.10,-0.06,-0.30,-0.23
1756,8.35,-0.34,9.27,-0.06,-0.30,-0.23
1761,8.35,-0.34,9.27,-0.20,-0.24,-0.48
1765,8.35,-0.34,9.27,-0.27,-0.11,-0.57
1771,-3.60,-1.00,10.34,-0.27,-0.11,-0.57
1776,-3.60,-1.00,10.34,-0.34,0.40,-0.62
1780,-3.60,-1.00,10.34,-0.34,0.64,-0.60
1786,-3.60,-1.00,10.34,-0.29,0.81,-0.59
1791,-6.24,-0.77,12.53,-0.29,0.81,-0.59
1796,-6.24,-0.77,12.53,-0.21,0.85,-0.64
1801,-6.24,-0.77,12.53,-0.14,0.67,-0.65
1806,0.88,-4.06,6.36,-0.14,0.67,-0.65
1811,0.88,-4.06,6.36,-0.10,0.16,-0.53
1815,0.88,-4.06,6.36,-0.08,-0.14,-0.43
1821,0.88,-4.06,6.36,-0.08,-0.38,-0.34
1826,1.00,-2.45,8.39,-0.08,-0.38,-0.34
1831,1.00,-2.45,8.39,-0.09,-0.48,-0.31
1835,1.00,-2.45,8.39,-0.09,-0.34,-0.33
1841,-4.29,2.07,14.90,-0.09,-0.34,-0.33
1846,-4.29,2.07,14.90,-0.12,0.13,-0.42
1850,-4.29,2.07,14.90,-0.10,0.36,-0.45
1856,-4.29,2.07,14.90,-0.08,0.53,-0.46
1861,-4.29,2.07,14.90,-0.09,0.60,-0.43
1866,-4.29,2.07,14.90,-0.03,0.53,-0.35
1871,-4.29,2.07,14.90,-0.07,0.37,-0.28
1876,0.34,-1.27,5.94,-0.07,0.37,-0.28
1881,0.34,-1.27,5.94,-0.13,-0.04,-0.26
1885,0.34,-1.27,5.94,-0.16,-0.20,-0.35
1891,0.34,-1.27,5.94,-0.15,-0.28,-0.46
1895,0.34,-1.27,5.94,-0.12,-0.27,-0.59
1901,0.34,-1.27,5.94,-0.11,-0.16,-0.73
1906,0.34,-1.27,5.94,-0.13,0.03,-0.83
1911,-0.92,0.34,8.78,-0.13,0.03,-0.83
1916,-0.92,0.34,8.78,-0.23,0.45,-0.86
1920,-0.92,0.34,8.78,-0.29,0.59,-0.83
1925,-3.26,3.29,7.27,-0.29,0.59,-0.83
1930,-3.26,3.29,7.27,-0.37,0.65,-0.84
1936,-3.26,3.29,7.27,-0.41,0.65,-0.89
1941,-3.26,3.29,7.27,-0.31,0.51,-0.95
1946,-0.08,1.61,13.52,-0.31,0.51,-0.95
1951,-0.08,1.61,13.52,-0.12,0.30,-0.76
1955,-0.08,1.61,13.52,-0.07,0.19,-0.61
1961,1.07,1.53,9.77,-0.07,0.19,-0.61
1966,1.07,1.53,9.77,-0.04,0.03,-0.48
1970,1.07,1.53,9.77,-0.08,-0.01,-0.47
1976,1.07,1.53,9.77,-0.10,-0.01,-0.43
1981,0.19,1.34,8.93,-0.10,-0.01,-0.43
1986,0.19,1.34,8.93,-0.16,0.02,-0.33
1990,0.19,1.34,8.93,-0.18,0.06,-0.33
1996,1.00,-0.34,12.14,-0.18,0.06,-0.33
2001,1.00,-0.34,12.14,-0.20,0.16,-0.49
2005,1.00,-0.34,12.14,-0.14,0.20,-0.55
2011,1.00,-0.34,12.14,-0.12,0.25,-0.58
2016,1.23,-5.25,11.88,-0.12,0.25,-0.58
2021,1.23,-5.25,11.88,-0.05,0.33,-0.52
2026,1.23,-5.25,11.88,-0.05,0.34,-0.51
2031,-2.91,-4.45,8.42,-0.05,0.34,-0.51
2035,-2.91,-4.45,8.42,-0.07,0.33,-0.53
2040,-2.91,-4.45,8.42,-0.07,0.30,-0.51
2046,-2.91,-4.45,8.42,-0.08,0.25,-0.48
2051,-1.61,-1.27,9.65,-0.08,0.25,-0.48
2056,-1.61,-1.27,9.65,-0.12,0.14,-0.58
2061,-1.61,-1.27,9.65,-0.10,0.11,-0.59
2066,-0.46,-2.91,9.23,-0.10,0.11,-0.59
2071,-0.46,-2.91,9.23,-0.07,0.07,-0.50
2075,-0.46,-2.91,9.23,-0.04,0.07,-0.45
2081,-0.46,-2.91,9.23,-0.04,0.05,-0.41
2086,2.49,-1.27,14.25,-0.04,0.05,-0.41
2091,2.49,-1.27,14.25,0.01,0.11,-0.46
2095,2.49,-1.27,14.25,0.01,0.21,-0.51
2101,-1.34,0.46,10.27,0.01,0.21,-0.51
2106,-1.34,0.46,10.27,-0.03,0.40,-0.47
2110,-1.34,0.46,10.27,-0.05,0.37,-0.39
2116,-0.80,0.50,6.44,-0.05,0.37,-0.39
2121,-0.80,0.50,6.44,-0.10,0.18,-0.33
2126,-0.80,0.50,6.44,-0.10,0.06,-0.33
2131,-0.80,0.50,6.44,-0.08,0.01,-0.35
2136,-1.46,-0.54,10.00,-0.08,0.01,-0.35
2141,-1.46,-0.54,10.00,-0.04,0.11,-0.36
2145,-1.46,-0.54,10.00,-0.02,0.14,-0.29
2151,-4.10,-0.84,9.00,-0.02,0.14,-0.29
2155,-4.10,-0.84,9.00,-0.03,0.14,-0.27
2160,-4.10,-0.84,9.00,-0.02,0.08,-0.29
2166,-4.10,-0.84,9.00,-0.04,0.01,-0.32
2171,-1.07,-1.30,7.09,-0.04,0.01,-0.32
2176,-1.07,-1.30,7.09,-0.12,-0.04,-0.41
2180,-1.07,-1.30,7.09,-0.10,-0.08,-0.40
2186,-1.07,-1.30,7.09,-0.12,-0.07,-0.40
2191,-1.07,-1.30,7.09,-0.11,-0.03,-0.43
2196,-1.07,-1.30,7.09,-0.06,0.04,-0.47
2201,-1.07,-1.30,7.09,-0.06,0.14,-0.51
2206,0.50,0.11,13.64,-0.06,0.14,-0.51
2211,0.50,0.11,13.64,-0.04,0.35,-0.60
2215,0.50,0.11,13.64,-0.04,0.41,-0.61
2221,-0.42,-1.84,8.23,-0.04,0.41,-0.61
2226,-0.42,-1.84,8.23,-0.07,0.37,-0.56
2230,-0.42,-1.84,8.23,-0.11,0.28,-0.54
2236,-0.42,-1.84,8.23,-0.16,0.20,-0.55
2241,-1.68,0.57,6.82,-0.16,0.20,-0.55
2246,-1.68,0.57,6.82,-0.17,0.06,-0.52
2251,-1.68,0.57,6.82,-0.16,0.01,-0.50
2256,1.99,-0.42,13.33,-0.16,0.01,-0.50
2260,1.99,-0.42,13.33,-0.05,-0.03,-0.51
2265,1.99,-0.42,13.33,-0.02,0.02,-0.53
2270,1.99,-0.42,13.33,0.01,0.08,-0.50
2275,-1.95,-0.04,7.59,0.01,0.08,-0.50
2281,-1.95,-0.04,7.59,-0.06,0.19,-0.37
2286,-1.95,-0.04,7.59,-0.11,0.15,-0.32
2291,-1.95,-0.04,7.59,-0.16,0.07,-0.35
2296,-1.95,-0.04,7.59,-0.22,-0.01,-0.43
2300,-1.95,-0.04,7.59,-0.21,-0.05,-0.52
2306,-1.95,-0.04,7.59,-0.17,-0.09,-0.54
2311,-1.95,-0.04,7.59,-0.10,-0.04,-0.53
2316,-1.95,-0.04,7.59,-0.07,0.02,-0.49
2321,-1.95,-0.04,7.59,-0.03,0.04,-0.45
2326,-1.95,-0.04,7.59,-0.04,0.06,-0.48
2331,-1.95,-0.04,7.59,-0.08,0.10,-0.58
2335,-1.95,-0.04,7.59,-0.11,0.13,-0.66
2341,-0.23,-0.34,9.04,-0.11,0.13,-0.66
2346,1.57,-0.50,9.50,-0.11,0.13,-0.66
2351,1.57,-0.50,9.50,-0.17,0.17,-0.67
2356,1.57,-0.50,9.50,-0.18,0.17,-0.75
2361,1.57,-0.50,9.50,-0.20,0.19,-0.84
2366,1.57,-0.50,9.50,-0.20,0.19,-0.85
2370,1.57,-0.50,9.50,-0.15,0.17,-0.82
2376,-1.11,-0.57,10.57,-0.15,0.17,-0.82
2381,-1.11,-0.57,10.57,-0.12,0.21,-0.81
2385,-1.11,-0.57,10.57,-0.06,0.22,-0.77
2391,-1.11,-0.57,10.57,-0.07,0.24,-0.76
2396,0.27,-0.57,10.61,-0.07,0.24,-0.76
2401,0.27,-0.57,10.61,-0.01,0.19,-0.74
2405,0.27,-0.57,10.61,-0.06,0.17,-0.76
2411,0.30,0.50,8.23,-0.06,0.17,-0.76
2415,0.30,0.50,8.23,-0.13,0.13,-0.82
2420,0.30,0.50,8.23,-0.17,0.11,-0.84
2426,0.30,0.50,8.23,-0.19,0.12,-0.85
2431,0.80,0.73,7.70,-0.19,0.12,-0.85
2436,0.80,0.73,7.70,-0.19,0.04,-0.75
2441,0.80,0.73,7.70,-0.17,0.04,-0.76
2446,0.80,0.73,7.70,-0.11,0.01,-0.76
2451,0.80,0.73,7.70,-0.06,-0.01,-0.78
2455,0.80,0.73,7.70,0.02,0.06,-0.81
2461,0.80,0.73,7.70,0.04,0.21,-0.85
2466,-0.57,-1.68,12.68,0.04,0.21,-0.85
2471,-0.57,-1.68,12.68,0.05,0.46,-0.72
2475,-0.57,-1.68,12.68,-0.01,0.47,-0.69
2481,2.30,-0.42,8.32,-0.01,0.47,-0.69
2486,2.30,-0.42,8.32,-0.05,0.31,-0.75
2490,2.30,-0.42,8.32,-0.08,0.22,-0.81
2496,2.30,-0.42,8.32,-0.07,0.18,-0.85
2501,2.30,-0.42,8.32,-0.04,0.21,-0.85
2505,2.30,-0.42,8.32,-0.02,0.32,-0.83
2511,2.30,-0.42,8.32,0.05,0.43,-0.75
2516,-5.02,-1.42,10.61,0.05,0.43,-0.75
2520,-5.02,-1.42,10.61,0.13,0.47,-0.50
2525,-5.02,-1.42,10.61,0.15,0.39,-0.43
2530,-5.02,-1.42,10.61,0.13,0.29,-0.43
2535,0.54,-0.27,8.54,0.13,0.29,-0.43
2541,0.54,-0.27,8.54,0.09,0.20,-0.48
2546,0.54,-0.27,8.54,0.10,0.04,-0.47
2551,0.54,-0.27,8.54,0.13,0.01,-0.40
2556,0.54,-0.27,8.54,0.19,0.03,-0.32
2560,0.54,-0.27,8.54,0.19,0.14,-0.30
2566,0.54,-0.27,8.54,0.21,0.28,-0.33
2570,0.54,-0.27,8.54,0.17,0.40,-0.38
2576,0.54,-0.27,8.54,0.14,0.51,-0.47
2581,0.54,-0.27,8.54,0.11,0.58,-0.52
2586,0.54,-0.27,8.54,0.11,0.59,-0.50
2590,0.54,-0.27,8.54,0.09,0.54,-0.44
2595,0.54,-0.27,8.54,0.08,0.46,-0.36
2601,-1.68,-0.38,5.60,0.08,0.46,-0.36
2606,-1.49,-1.00,7.35,0.08,0.46,-0.36
2610,-1.49,-1.00,7.35,0.04,0.10,-0.34
2616,-1.49,-1.00,7.35,0.08,0.01,-0.41
2620,-1.49,-1.00,7.35,0.12,-0.03,-0.48
2626,-1.49,-1.00,7.35,0.13,-0.01,-0.53
2630,-1.49,-1.00,7.35,0.19,0.10,-0.53
2636,-2.76,-0.73,8.70,0.19,0.10,-0.53
2640,-2.76,-0.73,8.70,0.13,0.37,-0.44
2645,-2.76,-0.73,8.70,0.08,0.47,-0.42
2651,-2.76,-0.73,8.70,0.01,0.51,-0.44
2656,-2.76,-0.73,8.70,-0.06,0.49,-0.47
2660,-2.76,-0.73,8.70,-0.06,0.39,-0.46
2665,-2.76,-0.73,8.70,-0.04,0.24,-0.40
2671,-5.18,2.72,-0.69,-0.04,0.24,-0.40
2676,-5.18,2.72,-0.69,-0.02,-0.09,-0.19
2680,-5.18,2.72,-0.69,-0.02,-0.22,-0.05
2686,-5.18,2.72,-0.69,-0.05,-0.33,0.08
2690,-5.18,2.72,-0.69,-0.29,-0.57,0.20
2695,-5.18,2.72,-0.69,0.03,-0.94,0.32
2700,-5.18,2.72,-0.69,0.34,-1.21,0.33
2706,-5.18,2.72,-0.69,1.31,-0.69,0.06
2710,-5.18,2.72,-0.69,1.11,0.87,-0.17
2716,-5.18,2.72,-0.69,0.12,1.79,-0.26
2720,-5.18,2.72,-0.69,0.59,2.15,-0.47
2726,-18.00,1.80,-15.97,0.59,2.15,-0.47
2730,-18.00,1.80,-15.97,-0.37,2.23,-0.61
2736,-18.00,1.80,-15.97,-1.37,2.12,-0.69
2741,-5.17,9.08,-5.90,-1.37,2.12,-0.69
2745,-5.17,9.08,-5.90,-0.68,1.00,-1.11
2751,-5.17,9.08,-5.90,-0.41,-0.06,-1.29
2756,-5.17,9.08,-5.90,-0.04,-0.82,-1.39
2760,-5.17,9.08,-5.90,0.38,-1.32,-1.32
2765,-5.17,9.08,-5.90,0.78,-1.47,-1.06
2770,-5.17,9.08,-5.90,0.78,-1.31,-0.75
2776,-3.37,1.91,10.19,0.78,-1.31,-0.75
2780,-3.37,1.91,10.19,0.52,-0.59,-0.29
2786,-3.37,1.91,10.19,0.19,-0.29,-0.16
2791,3.83,14.36,8.81,0.19,-0.29,-0.16
2796,3.83,14.36,8.81,-0.25,-0.03,-0.18
2800,3.83,14.36,8.81,-0.36,-0.00,-0.36
2806,3.83,14.36,8.81,-0.38,0.03,-0.54
2810,3.83,14.36,8.81,-0.06,0.19,-0.68
2815,3.83,14.36,8.81,0.06,0.49,-0.72
2820,3.83,14.36,8.81,0.20,0.73,-0.66
2826,3.83,14.36,8.81,0.27,0.85,-0.54
2830,3.83,14.36,8.81,0.30,0.87,-0.37
2835,3.83,14.36,8.81,0.27,0.79,-0.25
2841,3.83,14.36,8.81,0.15,0.62,-0.21
2846,3.83,14.36,8.81,0.16,0.41,-0.23
2851,3.83,14.36,8.81,0.14,0.20,-0.29
2856,3.83,14.36,8.81,0.10,0.09,-0.34
2860,3.83,14.36,8.81,0.20,0.03,-0.31
2865,3.83,14.36,8.81,0.20,0.07,-0.27
2870,3.83,14.36,8.81,0.42,0.40,-0.30
2876,3.83,14.36,8.81,0.38,0.84,-0.23
2880,3.83,14.36,8.81,-0.05,1.29,0.25
2885,3.83,14.36,8.81,0.24,1.59,0.85
2890,3.83,14.36,8.81,0.21,1.02,1.29
2896,16.32,5.17,12.34,0.21,1.02,1.29
2900,16.32,5.17,12.34,0.09,-0.80,1.33
2906,16.32,5.17,12.34,0.65,-1.35,1.12
2911,16.32,5.17,12.34,1.25,-1.62,0.91
2916,16.32,5.17,12.34,0.87,-1.63,0.71
2920,5.21,-21.57,6.78,0.87,-1.63,0.71
2926,5.21,-21.57,6.78,0.29,-0.88,0.57
2931,-13.71,8.66,36.01,0.29,-0.88,0.57
2935,-16.13,14.17,32.98,0.29,-0.88,0.57
2940,-1.76,7.78,14.68,0.29,-0.88,0.57
2946,-1.76,7.78,14.68,-0.00,1.06,0.29
2950,-1.76,7.78,14.68,0.08,0.64,0.03
2955,-1.76,7.78,14.68,-0.10,0.33,-0.32
2960,-1.76,7.78,14.68,-0.07,-0.01,-0.58
2966,-1.76,7.78,14.68,0.22,-0.54,-0.61
2970,-1.76,7.78,14.68,0.33,-0.90,-0.61
2975,-1.76,7.78,14.68,0.24,-0.81,-0.69
2980,-1.76,7.78,14.68,0.20,-0.43,-0.80
2986,-6.78,1.27,19.30,0.20,-0.43,-0.80
2990,-6.78,1.27,19.30,0.04,0.83,-1.15
2996,-6.78,1.27,19.30,-0.04,1.40,-1.33
3000,-6.78,1.27,19.30,-0.20,1.74,-1.41
3005,-6.78,1.27,19.30,-0.30,1.87,-1.44
3010,-6.78,1.27,19.30,-0.29,1.60,-1.32
3016,-6.78,1.27,19.30,-0.17,0.93,-1.03
3021,-6.78,1.27,19.30,-0.12,0.24,-0.69
3025,-6.78,1.27,19.30,-0.01,-0.53,-0.28
3030,-2.76,-2.91,9.42,-0.01,-0.53,-0.28
3035,-8.73,1.04,13.21,-0.01,-0.53,-0.28
3041,-8.73,1.04,13.21,0.13,-0.55,-0.16
3046,-8.73,1.04,13.21,0.18,-0.12,0.01
3051,6.55,10.65,9.65,0.18,-0.12,0.01
3055,8.43,6.63,3.79,0.18,-0.12,0.01
3061,8.43,6.63,3.79,-0.18,-0.09,-0.07
3066,8.43,6.63,3.79,-0.32,-0.28,-0.23
3070,8.43,6.63,3.79,-0.43,-0.33,-0.43
3076,8.43,6.63,3.79,-0.48,-0.26,-0.59
3080,8.43,6.63,3.79,-0.49,-0.17,-0.63
3086,8.43,6.63,3.79,-0.30,-0.08,-0.61
3091,8.43,6.63,3.79,-0.29,0.08,-0.60
3095,0.11,0.88,13.33,-0.29,0.08,-0.60
3100,0.11,0.88,13.33,-0.15,0.29,-0.80
3106,0.11,0.88,13.33,-0.13,0.33,-0.94
3111,0.11,0.88,13.33,-0.13,0.37,-1.02
3115,-1.72,-5.06,3.18,-0.13,0.37,-1.02
3121,-1.72,-5.06,3.18,-0.19,0.47,-0.96
3126,-1.72,-5.06,3.18,-0.22,0.49,-0.89
3131,-1.72,-5.06,3.18,-0.26,0.52,-0.92
3136,3.52,5.71,13.25,-0.26,0.52,-0.92
3141,-1.95,9.08,12.60,-0.26,0.52,-0.92
3145,-10.34,6.51,12.95,-0.26,0.52,-0.92
3150,-10.34,6.51,12.95,-0.25,0.65,-1.57
3156,-20.23,2.34,13.98,-0.25,0.65,-1.57
3161,-15.02,6.59,14.02,-0.25,0.65,-1.57
3165,0.38,7.01,12.95,-0.25,0.65,-1.57
3171,0.38,7.01,12.95,0.08,0.96,-1.05
3176,0.38,7.01,12.95,-0.24,0.40,-0.61
3180,24.64,6.59,9.04,-0.24,0.40,-0.61
3185,21.26,-0.92,4.86,-0.24,0.40,-0.61
3191,21.26,-0.92,4.86,-0.40,-0.63,-0.80
3195,-1.49,-2.41,9.30,-0.40,-0.63,-0.80
3200,-1.30,0.30,13.60,-0.40,-0.63,-0.80
3206,-1.30,0.30,13.60,-0.17,0.03,-1.14
3211,-1.30,0.30,13.60,-0.22,0.18,-1.01
3215,3.79,3.79,19.65,-0.22,0.18,-1.01
3220,1.88,1.88,18.39,-0.22,0.18,-1.01
3226,1.88,1.88,18.39,-0.35,0.49,-1.12
3231,1.88,1.88,18.39,-0.31,0.53,-1.35
3235,1.76,-13.21,3.07,-0.31,0.53,-1.35
3240,2.38,-12.18,2.57,-0.31,0.53,-1.35
3246,2.38,-12.18,2.57,-0.14,0.15,-0.99
3251,2.38,-12.18,2.57,-0.13,0.03,-0.77
3256,2.38,-12.18,2.57,-0.18,-0.07,-0.67
3260,2.38,-12.18,2.57,-0.18,-0.09,-0.72
3265,2.38,-12.18,2.57,-0.16,-0.05,-0.89
3270,2.38,-12.18,2.57,-0.11,0.03,-1.06
3275,0.80,-2.57,15.86,-0.11,0.03,-1.06
3280,0.80,-2.57,15.86,0.09,0.27,-1.11
3285,0.80,-2.57,15.86,0.22,0.37,-0.94
3291,0.80,-2.57,15.86,0.23,0.47,-0.74
3296,0.80,-2.57,15.86,0.21,0.55,-0.52
3300,-5.09,-1.91,4.94,0.21,0.55,-0.52
3305,-5.09,-1.91,4.94,0.18,0.59,-0.25
3311,-5.09,-1.91,4.94,0.15,0.57,-0.27
3316,-5.09,-1.91,4.94,0.18,0.46,-0.29
3320,-1.00,-2.95,12.72,0.18,0.46,-0.29
3326,1.53,-3.37,12.79,0.18,0.46,-0.29
3331,1.53,-3.37,12.79,0.35,-0.03,-0.21
3335,-1.80,-3.52,9.69,0.35,-0.03,-0.21
3340,-4.45,-4.33,7.78,0.35,-0.03,-0.21
3346,-4.45,-4.33,7.78,0.41,0.17,0.01
3351,-4.45,-4.33,7.78,0.38,0.29,0.11
3355,-5.82,-1.11,5.63,0.38,0.29,0.11
3360,-4.37,-0.27,6.44,0.38,0.29,0.11
3366,-4.37,-0.27,6.44,0.18,0.29,0.10
3371,-4.37,-0.27,6.44,0.19,0.17,0.00
3376,-0.69,-2.03,10.35,0.19,0.17,0.00
3380,0.04,-2.64,11.68,0.19,0.17,0.00
3385,-0.57,-3.60,10.84,0.19,0.17,0.00
3390,-0.57,-3.60,10.84,0.38,0.04,0.16
3396,-0.57,-3.60,10.84,0.36,0.12,0.24
3401,-0.57,-3.60,10.84,0.28,0.19,0.22
3405,-1.23,0.00,7.77,0.28,0.19,0.22
3410,-0.84,1.07,8.62,0.28,0.19,0.22
3416,-0.84,1.07,8.62,0.12,0.07,0.04
3420,2.34,-0.96,9.00,0.12,0.07,0.04
3425,0.69,-1.23,10.69,0.12,0.07,0.04
3431,0.69,-1.23,10.69,0.10,-0.04,-0.03
3436,0.69,-1.23,10.69,0.12,0.02,-0.07
3440,-2.11,-2.49,10.11,0.12,0.02,-0.07
3445,-2.22,-2.41,9.84,0.12,0.02,-0.07
3451,-2.22,-2.41,9.84,0.10,0.26,-0.04
3455,0.96,0.30,9.31,0.10,0.26,-0.04
3460,-0.42,1.53,8.42,0.10,0.26,-0.04
3466,-0.42,1.53,8.42,0.07,0.20,-0.13
3471,-0.42,1.53,8.42,0.07,0.14,-0.14
3475,0.04,-0.04,7.09,0.07,0.14,-0.14
3480,0.04,-0.69,8.70,0.07,0.14,-0.14
3486,-0.77,-0.61,8.27,0.07,0.14,-0.14
3490,-0.27,-0.23,9.58,0.07,0.14,-0.14
3495,0.08,0.50,8.96,0.07,0.14,-0.14
3501,0.08,0.50,8.96,-0.10,-0.01,-0.27
3506,0.08,0.50,8.96,-0.11,-0.01,-0.26
3510,3.91,0.08,10.84,-0.11,-0.01,-0.26
3515,4.75,-0.34,12.26,-0.11,-0.01,-0.26
3521,4.75,-0.34,12.26,-0.11,-0.05,-0.34
3526,-0.15,0.77,10.77,-0.11,-0.05,-0.34
3530,-1.34,-0.84,10.65,-0.11,-0.05,-0.34
3536,-0.69,0.00,9.73,-0.11,-0.05,-0.34
3540,-0.15,0.80,8.36,-0.11,-0.05,-0.34
3545,0.23,1.23,8.93,-0.11,-0.05,-0.34
3551,0.23,1.23,8.93,-0.18,0.26,-0.63
3556,0.23,1.23,8.93,-0.19,0.21,-0.69
3560,3.14,1.84,8.81,-0.19,0.21,-0.69
3565,1.15,0.27,9.88,-0.19,0.21,-0.69
3571,1.15,0.27,9.88,-0.29,0.04,-1.01
3576,1.15,0.27,9.88,-0.31,0.10,-1.08
3581,-3.29,-0.08,10.04,-0.31,0.10,-1.08
3585,-0.88,1.34,11.41,-0.31,0.10,-1.08
3590,0.57,2.11,11.54,-0.31,0.10,-1.08
3595,0.57,2.11,11.54,-0.20,0.33,-1.00
3600,0.57,2.11,11.54,-0.21,0.32,-1.06
3606,0.57,2.11,11.54,-0.25,0.31,-1.15
3610,0.54,1.84,10.35,-0.25,0.31,-1.15
3615,0.73,1.30,10.50,-0.25,0.31,-1.15
3620,0.46,1.34,11.60,-0.25,0.31,-1.15
3625,1.34,0.80,12.07,-0.25,0.31,-1.15
3631,1.34,0.80,12.07,-0.20,0.22,-1.19
3636,-0.92,3.22,11.84,-0.20,0.22,-1.19
3640,0.08,3.14,11.41,-0.20,0.22,-1.19
3645,-0.80,2.64,10.73,-0.20,0.22,-1.19
3650,-0.80,2.64,10.73,-0.26,0.41,-1.32
3655,-1.04,1.88,10.57,-0.26,0.41,-1.32
3661,-1.04,1.88,10.57,-0.26,0.40,-1.30
3665,-2.30,-0.27,8.81,-0.26,0.40,-1.30
3670,-0.96,0.57,10.46,-0.26,0.40,-1.30
3676,-0.96,0.57,10.46,-0.20,0.28,-1.06
3680,4.06,-0.54,16.25,-0.20,0.28,-1.06
3685,2.91,-0.69,15.32,-0.20,0.28,-1.06
3691,1.19,-0.34,14.94,-0.20,0.28,-1.06
3695,0.00,-1.99,12.79,-0.20,0.28,-1.06
3700,-0.27,-2.41,10.61,-0.20,0.28,-1.06
3706,-0.27,-2.41,10.61,-0.03,0.44,-1.03
3711,-0.27,-2.41,10.61,-0.06,0.54,-0.90
3715,-1.80,0.27,9.27,-0.06,0.54,-0.90
3720,-0.30,0.34,9.93,-0.06,0.54,-0.90
3726,0.73,-0.15,11.45,-0.06,0.54,-0.90
3730,1.61,-1.30,13.17,-0.06,0.54,-0.90
3735,1.30,-2.34,13.83,-0.06,0.54,-0.90
3740,2.72,-3.48,14.63,-0.06,0.54,-0.90
3746,0.65,-3.29,12.30,-0.06,0.54,-0.90
3750,-2.87,-3.10,10.23,-0.06,0.54,-0.90
3755,-0.34,-1.30,9.12,-0.06,0.54,-0.90
3760,-1.49,-1.80,8.31,-0.06,0.54,-0.90
3766,-1.49,-1.80,8.31,0.11,0.41,-0.61
3770,1.04,-0.34,9.50,0.11,0.41,-0.61
3775,0.11,-0.50,10.41,0.11,0.41,-0.61
3781,0.11,-0.50,10.41,0.07,0.27,-0.66
3785,2.03,-3.37,13.17,0.07,0.27,-0.66
3790,1.99,-2.72,13.25,0.07,0.27,-0.66
3796,0.38,-3.18,13.67,0.07,0.27,-0.66
3800,0.65,-3.29,11.96,0.07,0.27,-0.66
3805,0.50,-3.22,11.30,0.07,0.27,-0.66
3810,0.11,-3.14,10.30,0.07,0.27,-0.66
3816,0.11,-3.14,10.30,0.18,0.42,-0.65
3820,-0.08,-0.69,9.46,0.18,0.42,-0.65
3825,0.04,-0.84,10.99,0.18,0.42,-0.65
3831,-1.07,-1.04,9.12,0.18,0.42,-0.65
3836,-1.19,-0.50,9.00,0.18,0.42,-0.65
3840,-1.19,-0.50,9.00,0.18,0.52,-0.66
3845,-4.67,-1.46,7.12,0.18,0.52,-0.66
3850,-4.67,-1.46,7.12,0.19,0.53,-0.64
3855,-4.67,-1.46,7.12,0.23,0.48,-0.57
3862,-4.67,-1.46,7.12,0.24,0.38,-0.47
3866,2.18,-1.27,10.07,0.24,0.38,-0.47
3870,2.18,-1.27,10.07,0.27,-0.10,-0.42
3875,2.18,-1.27,10.07,0.27,-0.07,-0.52
3880,-2.18,-2.11,10.42,0.27,-0.07,-0.52
3886,-3.14,-1.34,11.07,0.27,-0.07,-0.52
3890,-2.80,-1.15,10.61,0.27,-0.07,-0.52
3896,-1.30,-0.73,10.88,0.27,-0.07,-0.52
3900,3.45,1.72,11.19,0.27,-0.07,-0.52
3905,4.60,2.64,11.07,0.27,-0.07,-0.52
3910,6.17,0.57,11.26,0.27,-0.07,-0.52
3916,3.71,0.08,10.46,0.27,-0.07,-0.52
3921,-0.34,-4.67,9.96,0.27,-0.07,-0.52
3925,-0.34,-4.67,9.96,0.26,0.35,-0.65
3930,-4.86,-3.10,9.12,0.26,0.35,-0.65
3935,-3.03,-1.76,9.58,0.26,0.35,-0.65
3940,-3.26,-0.08,9.38,0.26,0.35,-0.65
3945,-0.08,1.72,9.54,0.26,0.35,-0.65
3951,0.46,1.95,9.00,0.26,0.35,-0.65
3956,0.54,-0.23,9.65,0.26,0.35,-0.65
3960,0.54,-0.23,9.65,0.28,0.11,-0.55
3965,0.46,-3.14,9.85,0.28,0.11,-0.55
3971,0.46,-3.14,9.85,0.30,0.06,-0.49
3976,-0.46,-2.91,11.76,0.30,0.06,-0.49
3980,-0.46,-2.91,11.76,0.38,0.09,-0.22
3985,0.19,0.46,12.87,0.38,0.09,-0.22
3990,0.61,2.72,12.11,0.38,0.09,-0.22
3995,1.42,2.61,11.72,0.38,0.09,-0.22
4000,-0.73,2.53,10.50,0.38,0.09,-0.22
4006,-1.34,0.84,8.50,0.38,0.09,-0.22
4011,-1.19,-1.27,6.47,0.38,0.09,-0.22
4015,-1.19,-1.27,6.47,0.19,0.29,-0.46
4020,3.87,-0.96,11.34,0.19,0.29,-0.46
4026,3.87,-0.96,11.34,0.17,0.14,-0.41
4031,5.67,-1.46,14.55,0.17,0.14,-0.41
4035,3.98,-2.22,14.36,0.17,0.14,-0.41
4040,2.68,-1.88,12.91,0.17,0.14,-0.41
4045,0.27,-2.22,11.03,0.17,0.14,-0.41
4050,-1.46,-1.34,9.42,0.17,0.14,-0.41
4056,-1.38,-1.07,8.36,0.17,0.14,-0.41
4061,-2.57,1.27,6.24,0.17,0.14,-0.41
4065,-2.57,1.27,6.24,0.15,0.56,-0.58
4070,0.27,1.91,7.97,0.15,0.56,-0.58
4075,0.15,0.15,8.89,0.15,0.56,-0.58
4080,-0.15,0.04,10.84,0.15,0.56,-0.58
4085,-0.42,-0.84,11.30,0.15,0.56,-0.58
4091,0.19,-2.34,12.64,0.15,0.56,-0.58
4096,-0.38,-3.33,12.11,0.15,0.56,-0.58
4100,-0.38,-3.33,12.11,0.33,0.10,-0.56
4105,-0.04,-1.46,9.50,0.33,0.10,-0.56
4110,1.53,-0.96,9.81,0.33,0.10,-0.56
4115,0.84,-0.96,8.62,0.33,0.10,-0.56
4120,1.15,-0.77,9.69,0.33,0.10,-0.56
4127,0.34,-1.76,9.92,0.33,0.10,-0.56
4131,-0.54,-2.95,9.85,0.33,0.10,-0.56
4135,-0.54,-2.95,9.85,0.31,0.28,-0.72
4140,-0.54,-2.95,9.85,0.33,0.34,-0.67
4145,-1.19,-3.41,11.30,0.33,0.34,-0.67
4150,-1.19,-3.41,11.30,0.39,0.37,-0.60
4155,-1.19,-3.41,11.30,0.40,0.37,-0.58
4161,-1.19,-3.41,11.30,0.43,0.35,-0.55
4166,1.00,-3.75,10.38,0.43,0.35,-0.55
4170,1.00,-3.75,10.38,0.50,0.22,-0.45
4175,-1.00,-2.07,8.50,0.50,0.22,-0.45
4180,-0.84,-1.19,9.42,0.50,0.22,-0.45
4185,-1.53,-0.19,8.42,0.50,0.22,-0.45
4191,-1.27,-0.27,8.77,0.50,0.22,-0.45
4195,-0.65,-0.23,9.38,0.50,0.22,-0.45
4200,-1.84,0.30,8.39,0.50,0.22,-0.45
4206,-1.49,-0.15,8.46,0.50,0.22,-0.45
4210,0.77,-1.04,8.84,0.50,0.22,-0.45
4215,1.84,-1.61,9.54,0.50,0.22,-0.45
4220,2.95,-1.53,11.54,0.50,0.22,-0.45
4227,3.79,-2.30,11.88,0.50,0.22,-0.45
4232,2.30,-1.91,11.84,0.50,0.22,-0.45
4235,2.30,-1.91,11.84,0.48,0.03,-0.22
4240,2.30,-1.91,11.84,0.52,0.18,-0.21
4245,-6.36,7.20,10.69,0.52,0.18,-0.21
4250,-6.47,3.95,10.19,0.52,0.18,-0.21
4256,-3.26,1.68,7.09,0.52,0.18,-0.21
4260,-3.26,1.68,7.09,0.24,0.37,0.03
4265,0.84,-1.42,7.36,0.24,0.37,0.03
4270,-0.61,-1.23,7.05,0.24,0.37,0.03
4276,-1.11,-3.60,8.08,0.24,0.37,0.03
4280,-1.11,-3.60,8.08,0.42,-0.09,-0.08
4285,-5.79,-3.60,9.04,0.42,-0.09,-0.08
4292,-6.09,-2.38,9.69,0.42,-0.09,-0.08
4295,-5.17,1.46,10.15,0.42,-0.09,-0.08
4300,-2.91,1.95,8.85,0.42,-0.09,-0.08
4306,-1.46,0.61,8.74,0.42,-0.09,-0.08
4310,-1.46,0.61,8.74,0.33,0.14,0.05
4315,-0.69,-6.17,6.97,0.33,0.14,0.05
4320,-0.30,-6.82,6.51,0.33,0.14,0.05
4327,2.14,-7.85,8.24,0.33,0.14,0.05
4331,0.96,-5.90,10.77,0.33,0.14,0.05
4336,2.41,-5.52,12.41,0.33,0.14,0.05
4340,2.41,-5.52,12.41,0.42,-0.14,0.13
4345,2.45,-1.88,13.79,0.42,-0.14,0.13
4352,2.26,-0.57,13.57,0.42,-0.14,0.13
4357,2.87,-0.69,10.84,0.42,-0.14,0.13
4360,2.87,-0.69,10.84,0.42,0.35,-0.13
4365,-0.61,-1.11,5.90,0.42,0.35,-0.13
4370,1.19,-2.22,3.45,0.42,0.35,-0.13
4376,1.07,-0.88,3.45,0.42,0.35,-0.13
4380,1.07,-0.88,3.45,0.33,0.17,0.02
4385,3.22,0.57,10.00,0.33,0.17,0.02
4391,4.86,0.27,12.49,0.33,0.17,0.02
4395,4.86,0.27,12.49,0.33,-0.23,-0.04
4401,4.86,0.27,12.49,0.35,-0.24,-0.09
4407,1.34,-1.38,12.38,0.35,-0.24,-0.09
4410,1.34,-1.38,12.38,0.39,-0.08,-0.12
4415,1.34,-1.38,12.38,0.40,0.03,-0.07
4420,-0.73,-0.92,7.13,0.40,0.03,-0.07
4427,-0.61,0.38,6.02,0.40,0.03,-0.07
4430,-0.61,0.38,6.02,0.25,0.12,-0.13
4435,-0.34,-0.11,8.92,0.25,0.12,-0.13
4441,0.23,0.34,10.04,0.25,0.12,-0.13
4445,0.23,0.34,10.04,0.20,-0.05,-0.39
4451,-1.65,-2.07,12.95,0.20,-0.05,-0.39
4456,-0.80,-1.88,12.61,0.20,-0.05,-0.39
4460,-0.80,-1.88,12.61,0.31,0.05,-0.26
4465,-0.80,-1.88,12.61,0.30,0.13,-0.25
4470,-2.30,1.91,8.12,0.30,0.13,-0.25
4476,-1.27,2.38,7.73,0.30,0.13,-0.25
4480,-1.27,2.38,7.73,0.24,0.14,-0.21
4486,-1.76,4.45,6.55,0.24,0.14,-0.21
4492,-0.69,3.48,8.70,0.24,0.14,-0.21
4495,-0.69,3.48,8.70,0.18,-0.02,-0.18
4500,-0.69,3.48,8.70,0.17,0.02,-0.16
4505,-3.60,0.27,10.84,0.17,0.02,-0.16
4511,-2.72,0.96,10.19,0.17,0.02,-0.16
4515,-2.72,0.96,10.19,0.24,0.03,-0.05
4521,-2.72,0.96,10.19,0.20,0.01,-0.12
4527,0.92,3.60,10.23,0.20,0.01,-0.12
4530,0.92,3.60,10.23,0.11,-0.02,-0.25
4535,0.92,3.60,10.23,0.06,-0.02,-0.36
4540,0.92,3.60,10.23,0.01,-0.04,-0.42
4546,-2.22,-3.10,7.47,0.01,-0.04,-0.42
4550,-2.22,-3.10,7.47,0.01,-0.04,-0.48
4555,0.46,-3.79,8.88,0.01,-0.04,-0.48
4560,1.46,-2.41,9.58,0.01,-0.04,-0.48
4566,0.80,-1.95,10.15,0.01,-0.04,-0.48
4571,0.80,-1.95,10.15,0.12,-0.04,-0.48
4575,2.14,-0.04,10.46,0.12,-0.04,-0.48
4580,0.73,-0.42,11.96,0.12,-0.04,-0.48
4586,0.42,-1.11,12.56,0.12,-0.04,-0.48
4591,0.46,-2.14,13.63,0.12,-0.04,-0.48
4596,-0.50,-2.80,12.79,0.12,-0.04,-0.48
4600,-0.50,-2.80,12.79,0.28,0.21,-0.34
4606,-0.50,-2.80,12.79,0.27,0.24,-0.34
4612,-2.57,-0.38,6.93,0.27,0.24,-0.34
4615,-2.57,-0.38,6.93,0.18,0.25,-0.28
4620,-2.57,-0.38,6.93,0.16,0.23,-0.25
4625,-3.45,0.96,7.63,0.16,0.23,-0.25
4630,-3.45,0.96,7.63,0.14,0.17,-0.22
4637,-3.45,0.96,7.63,0.14,0.10,-0.20
4641,-1.76,-1.65,9.69,0.14,0.10,-0.20
4647,-2.80,-3.37,10.96,0.14,0.10,-0.20
4650,-2.80,-3.37,10.96,0.25,-0.17,-0.03
4655,-2.80,-3.37,10.96,0.32,-0.15,0.04
4660,-2.80,-3.37,10.96,0.36,-0.12,0.13
4666,-1.80,-1.88,10.50,0.36,-0.12,0.13
4670,-1.80,-1.88,10.50,0.38,-0.01,0.25
4675,-1.11,0.50,10.00,0.38,-0.01,0.25
4680,-1.84,0.65,9.35,0.38,-0.01,0.25
4686,-2.34,-0.34,9.81,0.38,-0.01,0.25
4691,-2.34,-0.34,9.81,0.24,0.11,0.07
4695,-0.46,-1.80,8.93,0.24,0.11,0.07
4700,-0.04,-1.07,9.12,0.24,0.11,0.07
4707,1.00,-2.07,9.08,0.24,0.11,0.07
4711,-1.04,-0.34,9.58,0.24,0.11,0.07
4716,-1.72,-1.19,8.16,0.24,0.11,0.07
4720,-1.72,-1.19,8.16,0.16,0.01,-0.02
4726,-1.72,-1.19,8.16,0.16,0.04,-0.02
4732,-3.03,-0.84,8.32,0.16,0.04,-0.02
4735,-3.03,-0.84,8.32,0.17,0.07,-0.04
4740,-3.03,-0.84,8.32,0.15,0.03,-0.01
4747,-1.23,-0.23,6.66,0.15,0.03,-0.01
4752,1.15,1.11,8.20,0.15,0.03,-0.01
4755,1.15,1.11,8.20,0.11,-0.23,-0.01
4761,1.15,1.11,8.20,0.12,-0.29,-0.04
4767,3.71,-1.27,14.67,0.12,-0.29,-0.04
4770,3.71,-1.27,14.67,0.14,-0.22,-0.10
4775,3.71,-1.27,14.67,0.18,-0.10,-0.13
4781,3.71,-1.27,14.67,0.17,0.03,-0.12
4786,-1.15,-0.27,9.27,0.17,0.03,-0.12
4790,-1.15,-0.27,9.27,0.12,0.27,-0.13
4795,-1.15,-0.27,9.27,0.07,0.29,-0.17
4800,-1.15,-0.27,9.27,0.01,0.23,-0.24
4806,0.69,0.50,6.32,0.01,0.23,-0.24
4810,0.69,0.50,6.32,-0.02,0.00,-0.38
4815,0.30,-1.53,10.27,-0.02,0.00,-0.38
4821,0.73,-1.57,10.73,-0.02,0.00,-0.38
4825,0.73,-1.57,10.73,0.08,-0.08,-0.20
4831,-1.61,-0.11,11.68,0.08,-0.08,-0.20
4836,-0.80,-0.19,10.95,0.08,-0.08,-0.20
4840,-0.80,-0.19,10.95,0.11,0.06,-0.27
4845,-0.80,-0.19,10.95,0.12,0.05,-0.29
4851,1.11,-0.19,8.01,0.12,0.05,-0.29
4856,0.65,0.61,8.04,0.12,0.05,-0.29
4861,0.65,0.61,8.04,0.06,-0.01,-0.26
4866,0.65,0.61,8.04,0.05,0.03,-0.28
4871,-0.92,-0.19,9.96,0.05,0.03,-0.28
4875,-0.92,-0.19,9.96,0.04,0.09,-0.32
4880,-0.92,-0.19,9.96,0.06,0.08,-0.35
4886,-0.11,-0.42,10.96,0.06,0.08,-0.35
4891,-0.04,0.34,11.03,0.06,0.08,-0.35
4895,-0.04,0.34,11.03,0.10,0.06,-0.33
4901,-0.04,0.34,11.03,0.11,0.06,-0.30
4906,-1.04,-0.73,7.63,0.11,0.06,-0.30
4910,-1.04,-0.73,7.63,0.12,0.11,-0.32
4915,-1.04,-0.73,7.63,0.11,0.12,-0.29
4921,-1.04,-0.73,7.63,0.10,0.11,-0.25
4825,0.73,-1.57,10.73,0.08,-0.08,-0.20
4831,-1.61,-0.11,11.68,0.08,-0.08,-0.20
4836,-0.80,-0.19,10.95,0.08,-0.08,-0.20
4840,-0.80,-0.19,10.95,0.11,0.06,-0.27
4845,-0.80,-0.19,10.95,0.12,0.05,-0.29
4851,1.11,-0.19,8.01,0.12,0.05,-0.29
4856,0.65,0.61,8.04,0.12,0.05,-0.29
4861,0.65,0.61,8.04,0.06,-0.01,-0.26
4866,0.65,0.61,8.04,0.05,0.03,-0.28
4871,-0.92,-0.19,9.96,0.05,0.03,-0.28
4875,-0.92,-0.19,9.96,0.04,0.09,-0.32
4880,-0.92,-0.19,9.96,0.06,0.08,-0.35
4886,-0.11,-0.42,10.96,0.06,0.08,-0.35
4891,-0.04,0.34,11.03,0.06,0.08,-0.35
4895,-0.04,0.34,11.03,0.10,0.06,-0.33
4901,-0.04,0.34,11.03,0.11,0.06,-0.30
