timestamp,accX,accY,accZ,gyroX,gyroY,gyroZ
Straight
5,0.80,-0.77,10.80,-0.22,-0.10,-0.10
19,1.46,-0.57,10.92,-0.22,-0.10,-0.10
20,-1.04,-1.30,10.19,-0.22,-0.10,-0.10
22,-1.04,-1.30,10.19,0.01,-0.10,-0.01
25,1.49,0.11,10.04,0.01,-0.10,-0.01
30,1.49,0.11,10.04,0.02,-0.10,-0.03
35,1.15,-0.08,9.04,0.02,-0.10,-0.03
41,1.61,0.11,9.27,0.02,-0.10,-0.03
46,1.61,0.11,9.27,0.00,0.02,-0.09
52,-3.71,0.80,9.65,0.00,0.02,-0.09
55,-3.71,0.80,9.65,-0.05,0.20,-0.13
60,-3.71,0.80,9.65,-0.04,0.23,-0.11
65,-3.64,0.23,7.01,-0.04,0.23,-0.11
72,-3.07,1.95,7.35,-0.04,0.23,-0.11
75,-3.07,1.95,7.35,-0.09,0.05,-0.11
80,-0.08,-0.08,7.73,-0.09,0.05,-0.11
85,2.41,-0.88,9.31,-0.09,0.05,-0.11
91,4.33,-1.19,10.80,-0.09,0.05,-0.11
96,4.33,-1.19,10.80,0.00,-0.34,-0.00
100,5.17,-2.14,14.21,0.00,-0.34,-0.00
105,3.29,-1.68,14.52,0.00,-0.34,-0.00
112,1.11,-1.11,13.14,0.00,-0.34,-0.00
116,-1.30,-0.11,10.57,0.00,-0.34,-0.00
121,-1.88,0.27,7.89,0.00,-0.34,-0.00
125,-1.88,0.27,7.89,0.05,0.39,-0.08
131,-1.88,0.27,7.89,0.00,0.38,-0.08
137,1.88,1.15,6.40,0.00,0.38,-0.08
140,1.88,1.15,6.40,-0.09,0.15,-0.20
145,1.88,1.15,6.40,-0.06,0.03,-0.25
150,-1.49,-1.95,8.54,-0.06,0.03,-0.25
157,-2.14,-3.10,9.92,-0.06,0.03,-0.25
160,-2.14,-3.10,9.92,0.09,0.06,-0.01
166,-2.14,-3.10,9.92,0.11,0.08,0.12
171,-2.68,-0.65,10.53,0.11,0.08,0.12
175,-2.68,-0.65,10.53,0.13,0.02,0.12
180,-2.68,-0.65,10.53,0.12,-0.04,0.10
185,-2.68,-0.65,10.53,0.12,-0.10,0.12
192,1.88,-1.34,9.65,0.12,-0.10,0.12
195,1.88,-1.34,9.65,0.12,-0.19,0.23
200,0.96,-1.57,9.42,0.12,-0.19,0.23
205,0.34,-1.84,8.96,0.12,-0.19,0.23
212,0.27,-1.99,9.20,0.12,-0.19,0.23
216,0.27,-1.99,9.20,0.11,-0.02,0.18
220,1.00,-1.15,10.92,0.11,-0.02,0.18
225,1.38,-1.65,11.07,0.11,-0.02,0.18
232,-0.11,-1.19,10.69,0.11,-0.02,0.18
236,-2.11,-1.72,10.11,0.11,-0.02,0.18
241,-1.61,-2.49,10.27,0.11,-0.02,0.18
245,-1.61,-2.49,10.27,0.15,0.14,0.13
250,-1.61,-2.49,10.27,0.16,0.11,0.16
256,-1.88,-1.19,7.66,0.16,0.11,0.16
262,-1.65,-1.42,8.66,0.16,0.11,0.16
265,-1.65,-1.42,8.66,0.15,-0.01,0.11
271,-2.22,-1.46,7.82,0.15,-0.01,0.11
277,-1.61,-1.65,8.85,0.15,-0.01,0.11
280,-1.61,-1.65,8.85,0.14,-0.12,0.26
286,-1.61,-1.65,8.85,0.15,-0.14,0.24
291,-1.23,-1.30,9.38,0.15,-0.14,0.24
295,-1.23,-1.30,9.38,0.14,-0.11,0.20
300,-1.23,-1.30,9.38,0.14,-0.07,0.24
306,-1.23,-1.30,9.38,0.15,-0.03,0.29
311,-2.91,-1.91,8.70,0.15,-0.03,0.29
315,-2.91,-1.91,8.70,0.16,-0.03,0.38
320,-2.91,-1.91,8.70,0.16,-0.10,0.38
325,0.54,-0.80,12.14,0.16,-0.10,0.38
330,0.54,-0.80,12.14,0.15,-0.15,0.34
335,0.54,-0.80,12.14,0.21,-0.09,0.29
340,0.54,-0.80,12.14,0.20,-0.02,0.32
347,-0.77,-2.64,10.03,0.20,-0.02,0.32
350,-0.77,-2.64,10.03,0.19,0.03,0.37
356,-0.77,-2.64,10.03,0.17,0.04,0.34
361,-1.27,0.23,8.08,0.17,0.04,0.34
365,-1.27,0.23,8.08,0.12,-0.02,0.30
370,-1.27,0.23,8.08,0.10,-0.08,0.27
376,0.08,0.80,8.39,0.10,-0.08,0.27
382,0.54,-0.69,10.04,0.10,-0.08,0.27
385,0.54,-0.69,10.04,0.08,-0.12,0.16
391,-0.46,-1.99,9.61,0.08,-0.12,0.16
397,0.27,-2.30,9.50,0.08,-0.12,0.16
400,0.27,-2.30,9.50,0.09,-0.13,0.20
405,0.27,-2.30,9.50,0.06,-0.16,0.16
411,2.49,-0.54,11.54,0.06,-0.16,0.16
417,1.68,-0.42,10.19,0.06,-0.16,0.16
420,1.68,-0.42,10.19,0.06,-0.06,0.05
426,1.68,-0.42,10.19,0.06,0.01,0.04
432,-0.30,0.77,9.35,0.06,0.01,0.04
435,-0.30,0.77,9.35,0.06,0.06,0.03
440,-0.30,0.77,9.35,0.04,0.05,0.03
446,-0.30,0.77,9.35,0.03,0.03,0.05
451,1.53,1.23,10.38,0.03,0.03,0.05
455,1.53,1.23,10.38,0.02,-0.08,0.01
460,3.41,0.00,10.92,0.02,-0.08,0.01
465,1.34,0.30,10.50,0.02,-0.08,0.01
472,-1.57,0.96,10.27,0.02,-0.08,0.01
476,-1.57,0.96,10.27,0.04,0.07,0.00
480,-1.11,1.34,9.08,0.04,0.07,0.00
487,-2.72,2.45,8.35,0.04,0.07,0.00
491,-2.72,2.45,8.35,-0.03,0.08,0.02
496,-2.72,2.45,8.35,-0.06,0.01,0.01
502,-2.30,1.15,7.47,-0.06,0.01,0.01
506,-2.30,1.15,7.47,-0.06,-0.11,0.01
510,-2.30,1.15,7.47,-0.05,-0.19,0.08
516,3.60,-1.61,12.64,-0.05,-0.19,0.08
522,4.64,-1.23,13.25,-0.05,-0.19,0.08
526,4.64,-1.23,13.25,0.02,-0.27,-0.01
531,4.64,-1.23,13.25,0.06,-0.16,-0.09
537,-2.34,-2.68,10.23,0.06,-0.16,-0.09
540,-2.34,-2.68,10.23,0.09,0.14,-0.05
546,-2.34,-2.68,10.23,0.07,0.25,0.00
552,-2.41,1.72,6.62,0.07,0.25,0.00
556,-2.41,1.72,6.62,-0.05,0.24,-0.06
560,-2.41,1.72,6.62,-0.08,0.11,-0.13
566,-2.41,1.72,6.62,-0.07,-0.03,-0.20
571,1.49,-2.03,9.16,-0.07,-0.03,-0.20
576,1.49,-2.03,9.16,-0.02,-0.13,-0.19
580,1.49,-2.03,9.16,0.05,-0.08,-0.13
585,1.49,-2.03,9.16,0.10,-0.03,-0.02
592,-0.38,-0.84,9.73,0.10,-0.03,-0.02
596,-0.38,-0.84,9.73,0.12,0.04,0.04
601,-0.38,-0.84,9.73,0.12,0.06,-0.01
606,-1.04,1.38,8.01,0.12,0.06,-0.01
611,-1.04,1.38,8.01,0.09,0.06,-0.01
616,-1.04,1.38,8.01,0.09,0.03,0.07
622,-0.11,-0.57,8.93,0.09,0.03,0.07
625,-0.11,-0.57,8.93,0.10,-0.03,0.18
632,-0.11,-0.57,8.93,0.11,-0.04,0.18
637,-0.42,-0.96,10.92,0.11,-0.04,0.18
640,-0.42,-0.96,10.92,0.12,-0.02,0.26
645,-0.42,-0.96,10.92,0.13,-0.02,0.30
651,-0.42,-0.96,10.92,0.13,-0.02,0.33
657,-0.08,-0.57,10.19,0.13,-0.02,0.33
660,-0.08,-0.57,10.19,0.14,0.03,0.42
666,-0.08,-0.57,10.19,0.14,0.05,0.46
672,-2.11,-0.30,10.00,0.14,0.05,0.46
675,-2.11,-0.30,10.00,0.15,0.08,0.50
680,-2.11,-0.30,10.00,0.15,0.09,0.52
686,-2.11,-0.30,10.00,0.14,0.08,0.53
692,-2.30,1.15,8.23,0.14,0.08,0.53
696,-2.30,1.15,8.23,0.10,-0.01,0.56
700,-2.30,1.15,8.23,0.06,-0.07,0.53
706,-2.30,1.15,8.23,0.02,-0.13,0.47
712,-0.92,0.65,8.39,0.02,-0.13,0.47
716,-0.92,0.65,8.39,-0.05,-0.16,0.36
721,-0.92,0.65,8.39,-0.07,-0.13,0.32
727,-1.38,0.96,9.65,-0.07,-0.13,0.32
731,-1.38,0.96,9.65,-0.12,-0.10,0.25
736,-1.38,0.96,9.65,-0.14,-0.05,0.19
742,0.69,-0.57,11.26,-0.14,-0.05,0.19
746,0.69,-0.57,11.26,-0.12,-0.02,0.12
751,0.69,-0.57,11.26,-0.08,0.00,0.12
756,0.42,0.34,10.07,-0.08,0.00,0.12
762,-1.46,0.65,9.73,-0.08,0.00,0.12
766,-1.46,0.65,9.73,-0.04,0.15,0.18
771,-1.46,0.65,9.73,-0.04,0.15,0.19
777,-1.38,0.61,8.46,-0.04,0.15,0.19
780,-1.38,0.61,8.46,-0.05,0.12,0.17
786,-1.38,0.61,8.46,-0.05,0.08,0.18
791,-0.50,0.11,9.23,-0.05,0.08,0.18
797,0.54,0.19,9.23,-0.05,0.08,0.18
800,0.54,0.19,9.23,-0.09,-0.10,0.19
806,0.54,0.19,9.23,-0.09,-0.13,0.16
812,0.30,-0.50,9.38,-0.09,-0.13,0.16
816,0.30,-0.50,9.38,-0.11,-0.08,0.15
820,0.30,-0.50,9.38,-0.10,-0.05,0.17
826,0.30,-0.50,9.38,-0.10,-0.02,0.18
832,-0.92,0.50,9.54,-0.10,-0.02,0.18
836,-0.92,0.50,9.54,-0.13,0.04,0.17
841,-0.92,0.50,9.54,-0.13,0.02,0.16
847,-0.11,0.15,10.73,-0.13,0.02,0.16
851,-0.11,0.15,10.73,-0.13,0.03,0.14
856,-0.11,0.15,10.73,-0.12,0.05,0.14
860,-0.77,0.19,9.73,-0.12,0.05,0.14
866,0.34,0.50,10.84,-0.12,0.05,0.14
871,0.34,0.50,10.84,-0.12,0.05,0.16
876,0.34,0.50,10.84,-0.14,0.03,0.14
882,1.11,0.30,9.58,-0.14,0.03,0.14
886,1.11,0.30,9.58,-0.13,-0.01,0.12
891,1.11,0.30,9.58,-0.13,0.01,0.12
897,-0.04,-0.34,8.89,-0.13,0.01,0.12
900,-0.04,-0.34,8.89,-0.12,0.05,0.12
906,-0.04,-0.34,8.89,-0.12,0.05,0.11
911,-0.04,-0.34,8.89,-0.11,0.04,0.10
917,-0.38,-0.30,7.12,-0.11,0.04,0.10
920,-0.38,-0.30,7.12,-0.13,-0.05,0.07
926,-0.38,-0.30,7.12,-0.15,-0.09,0.04
932,1.91,-0.50,11.04,-0.15,-0.09,0.04
936,1.91,-0.50,11.04,-0.17,-0.13,0.03
941,1.91,-0.50,11.04,-0.17,-0.12,0.02
946,1.91,-0.50,11.04,-0.17,-0.09,0.00
952,0.11,-1.53,11.42,-0.17,-0.09,0.00
955,0.11,-1.53,11.42,-0.12,0.08,0.01
960,0.11,-1.53,11.42,-0.08,0.16,0.02
965,0.11,-1.53,11.42,-0.06,0.20,0.02
972,-0.80,-0.19,8.50,-0.06,0.20,0.02
975,-0.80,-0.19,8.50,-0.08,0.12,0.02
981,0.65,-0.34,8.54,-0.08,0.12,0.02
987,0.38,0.08,8.89,-0.08,0.12,0.02
990,0.38,0.08,8.89,-0.14,-0.04,-0.07
996,0.38,0.08,8.89,-0.13,-0.02,-0.07
1002,-1.19,0.84,9.00,-0.13,-0.02,-0.07
1006,-1.19,0.84,9.00,-0.16,0.01,-0.08
1011,-1.19,0.84,9.00,-0.17,-0.00,-0.10
1017,-0.69,0.65,9.58,-0.17,-0.00,-0.10
1020,-0.69,0.65,9.58,-0.19,-0.02,-0.14
1026,-0.69,0.65,9.58,-0.19,0.00,-0.15
1031,-0.69,0.65,9.58,-0.18,0.02,-0.13
1037,-0.61,0.54,9.96,-0.18,0.02,-0.13
1041,-0.61,0.54,9.96,-0.15,0.02,-0.07
1046,-0.61,0.54,9.96,-0.15,0.01,-0.07
1052,-0.61,-0.27,9.96,-0.15,0.01,-0.07
1056,-0.61,-0.27,9.96,-0.11,0.03,-0.05
1061,-0.61,-0.27,9.96,-0.12,0.03,-0.02
1066,-0.61,-0.27,9.96,-0.12,0.03,-0.01
1072,0.15,-1.11,10.07,-0.12,0.03,-0.01
1076,0.15,-1.11,10.07,-0.11,-0.02,0.01
1081,0.15,-1.11,10.07,-0.11,-0.01,0.02
1087,0.15,-1.11,10.07,-0.10,0.01,0.03
1091,0.15,-1.11,10.07,-0.09,0.03,0.04
1096,0.15,-1.11,10.07,-0.09,0.04,0.05
1101,-0.73,-0.34,8.92,-0.09,0.04,0.05
1107,-1.15,-0.34,7.97,-0.09,0.04,0.05
1111,-1.15,-0.34,7.97,-0.09,0.00,0.04
1116,-1.15,-0.34,7.97,-0.09,-0.01,0.05
1120,0.19,-0.80,9.46,-0.09,-0.01,0.05
1127,0.08,-0.65,8.89,-0.09,-0.01,0.05
1130,0.08,-0.65,8.89,-0.13,-0.06,0.01
1136,-1.42,-0.84,9.00,-0.13,-0.06,0.01
1142,-1.11,-1.15,8.42,-0.13,-0.06,0.01
1146,-1.11,-1.15,8.42,-0.12,0.01,-0.04
1151,-1.11,-1.15,8.42,-0.13,0.01,-0.05
1157,0.08,-0.73,10.39,-0.13,0.01,-0.05
1160,0.08,-0.73,10.39,-0.14,-0.03,-0.12
1166,0.08,-0.73,10.39,-0.13,-0.06,-0.12
1171,0.08,-0.73,10.39,-0.12,-0.05,-0.12
1176,-0.92,0.38,10.00,-0.12,-0.05,-0.12
1181,-0.92,0.38,10.00,-0.07,0.12,-0.09
1186,-0.92,0.38,10.00,-0.06,0.18,-0.08
1192,-0.50,0.80,10.27,-0.06,0.18,-0.08
1196,-0.50,0.80,10.27,-0.08,0.18,-0.13
1200,-0.50,0.80,10.27,-0.09,0.14,-0.16
1206,-0.50,0.80,10.27,-0.10,0.10,-0.17
1211,-0.38,0.96,8.58,-0.10,0.10,-0.17
1216,-0.38,0.96,8.58,-0.13,0.01,-0.14
1221,-0.38,0.96,8.58,-0.15,-0.02,-0.16
1227,-1.27,1.65,8.81,-0.15,-0.02,-0.16
1231,-1.27,1.65,8.81,-0.21,-0.04,-0.23
1236,-1.27,1.65,8.81,-0.19,-0.05,-0.25
1241,-1.27,1.65,8.81,-0.21,-0.08,-0.24
1247,1.42,0.15,9.61,-0.21,-0.08,-0.24
1251,1.42,0.15,9.61,-0.20,-0.08,-0.24
1256,1.42,0.15,9.61,-0.17,-0.04,-0.24
1262,-0.73,-0.19,9.12,-0.17,-0.04,-0.24
1266,-0.73,-0.19,9.12,-0.16,0.06,-0.24
1271,-0.73,-0.19,9.12,-0.14,0.07,-0.24
1277,1.15,0.61,10.00,-0.14,0.07,-0.24
1280,1.15,0.61,10.00,-0.12,0.08,-0.24
1286,1.15,0.61,10.00,-0.13,0.09,-0.25
1291,1.15,0.61,10.00,-0.12,0.11,-0.25
1296,-0.30,-0.54,8.73,-0.12,0.11,-0.25
1301,-0.30,-0.54,8.73,-0.12,0.07,-0.24
1306,-0.30,-0.54,8.73,-0.12,0.02,-0.22
1312,0.50,-0.54,8.12,-0.12,0.02,-0.22
1316,0.50,-0.54,8.12,-0.11,-0.03,-0.19
1321,0.50,-0.54,8.12,-0.12,-0.01,-0.20
1326,0.50,-0.54,8.12,-0.12,0.00,-0.21
1332,-1.42,-0.88,8.16,-0.12,0.00,-0.21
1336,-1.42,-0.88,8.16,-0.09,0.03,-0.18
1341,-1.42,-0.88,8.16,-0.08,0.00,-0.14
1347,-1.42,-0.88,8.16,-0.08,-0.02,-0.13
1351,-1.42,-0.88,8.16,-0.08,-0.04,-0.12
1356,-1.42,-0.88,8.16,-0.07,-0.05,-0.11
1361,-1.42,-0.88,8.16,-0.07,-0.05,-0.08
1367,0.54,-2.30,11.11,-0.07,-0.05,-0.08
1371,0.54,-2.30,11.11,-0.03,0.06,-0.01
1376,0.54,-2.30,11.11,-0.00,0.10,0.02
1382,0.54,-2.30,11.11,0.01,0.12,0.03
1386,0.54,-2.30,11.11,0.03,0.12,0.06
1391,0.54,-2.30,11.11,0.04,0.12,0.10
1396,0.54,-2.30,11.11,0.01,0.09,0.11
1401,-1.04,-0.42,9.20,0.01,0.09,0.11
1406,-1.04,-0.42,9.20,-0.02,0.03,0.06
1411,-1.04,-0.42,9.20,-0.04,0.00,0.06
1416,-0.88,-1.46,7.43,-0.04,0.00,0.06
1421,-0.88,-1.46,7.43,-0.02,-0.08,0.10
1426,-0.88,-1.46,7.43,-0.02,-0.11,0.11
1432,-0.88,-1.46,7.43,-0.04,-0.13,0.10
1436,-0.88,-1.46,7.43,-0.03,-0.13,0.09
1441,-0.88,-1.46,7.43,-0.03,-0.08,0.07
1446,-0.88,-1.46,7.43,-0.00,-0.01,0.06
1452,-1.91,-0.84,10.15,-0.00,-0.01,0.06
1456,-1.91,-0.84,10.15,0.02,0.06,0.08
1461,-1.91,-0.84,10.15,0.02,0.04,0.10
1467,-1.91,-0.84,10.15,0.00,0.00,0.10
1471,-1.91,-0.84,10.15,-0.00,-0.03,0.07
1476,-1.91,-0.84,10.15,-0.02,-0.02,0.05
1481,-1.91,-0.84,10.15,-0.01,-0.01,0.05
1487,0.84,-0.65,10.11,-0.01,-0.01,0.05
1491,0.84,-0.65,10.11,-0.03,0.02,0.05
1496,0.84,-0.65,10.11,-0.03,0.03,0.03
1502,0.84,-0.65,10.11,-0.03,0.04,0.02
1506,0.84,-0.65,10.11,-0.02,0.05,0.02
1511,0.84,-0.65,10.11,-0.03,0.05,0.01
1516,0.84,-0.65,10.11,-0.04,0.05,-0.00
1521,-0.11,-1.04,9.27,-0.04,0.05,-0.00
1526,-0.11,-1.04,9.27,-0.01,0.03,0.01
1531,-0.11,-1.04,9.27,-0.01,0.03,0.02
1536,-0.11,-1.04,9.27,-0.01,0.05,0.03
1541,-0.11,-1.04,9.27,-0.03,0.05,0.02
1546,-0.11,-1.04,9.27,-0.04,0.04,-0.01
1551,-0.11,-1.04,9.27,-0.07,0.04,-0.05
1557,-2.57,0.19,8.58,-0.07,0.04,-0.05
1561,-2.57,0.19,8.58,-0.07,0.03,-0.07
1566,-2.57,0.19,8.58,-0.06,0.02,-0.05
1572,-2.57,0.19,8.58,-0.07,-0.01,-0.03
1576,-2.57,0.19,8.58,-0.08,-0.05,-0.03
1581,-2.57,0.19,8.58,-0.09,-0.09,-0.04
1586,-2.57,0.19,8.58,-0.09,-0.09,-0.05
1591,0.88,0.88,11.22,-0.09,-0.09,-0.05
1596,0.88,0.88,11.22,-0.05,0.00,-0.04
1601,0.88,0.88,11.22,-0.04,0.08,-0.02
1607,0.88,0.88,11.22,-0.03,0.14,0.00
1611,0.88,0.88,11.22,-0.03,0.15,-0.01
1616,0.88,0.88,11.22,-0.03,0.13,-0.04
1621,0.88,0.88,11.22,-0.04,0.09,-0.05
1626,0.88,0.88,11.22,-0.04,0.04,-0.04
1631,0.88,0.88,11.22,-0.04,-0.00,-0.03
1636,0.88,0.88,11.22,-0.07,-0.02,-0.05
1642,-1.53,0.30,7.89,-0.07,-0.02,-0.05
1646,-1.53,0.30,7.89,-0.11,-0.01,-0.14
1651,-1.53,0.30,7.89,-0.12,-0.03,-0.16
1656,-1.53,0.30,7.89,-0.11,-0.08,-0.17
1661,-1.53,0.30,7.89,-0.11,-0.13,-0.15
1666,-1.53,0.30,7.89,-0.09,-0.15,-0.15
1671,-1.53,0.30,7.89,-0.09,-0.14,-0.16
1676,0.61,-0.92,10.30,-0.09,-0.14,-0.16
1681,0.61,-0.92,10.30,-0.05,0.02,-0.19
1686,0.61,-0.92,10.30,-0.03,0.10,-0.20
1691,0.61,-0.92,10.30,-0.01,0.14,-0.20
1696,0.61,-0.92,10.30,0.01,0.15,-0.21
1701,0.61,-0.92,10.30,0.00,0.13,-0.21
1706,0.61,-0.92,10.30,0.01,0.10,-0.22
1712,-0.30,-0.11,9.43,0.01,0.10,-0.22
1716,-0.30,-0.11,9.43,-0.03,0.03,-0.26
1720,-0.30,-0.11,9.43,-0.03,-0.02,-0.28
1725,-0.30,-0.11,9.43,-0.02,-0.04,-0.28
1730,0.11,-0.92,9.16,-0.02,-0.04,-0.28
1736,0.11,-0.92,9.16,-0.01,-0.01,-0.28
1742,0.11,-0.92,9.16,-0.01,0.04,-0.28
1747,-2.68,-0.61,8.70,-0.01,0.04,-0.28
1751,-2.68,-0.61,8.70,0.01,0.03,-0.28
1756,-2.68,-0.61,8.70,0.00,-0.01,-0.29
1761,-2.68,-0.61,8.70,0.01,-0.04,-0.29
1766,-2.68,-0.61,8.70,0.01,-0.07,-0.27
1771,-2.68,-0.61,8.70,0.01,-0.09,-0.24
1776,-2.68,-0.61,8.70,0.01,-0.13,-0.21
1781,1.68,-1.38,12.07,0.01,-0.13,-0.21
1786,1.68,-1.38,12.07,0.04,-0.09,-0.18
1791,1.68,-1.38,12.07,0.07,-0.00,-0.17
1796,1.68,-1.38,12.07,0.10,0.10,-0.14
1801,1.68,-1.38,12.07,0.12,0.17,-0.11
1806,1.68,-1.38,12.07,0.14,0.19,-0.08
1810,1.68,-1.38,12.07,0.13,0.17,-0.05
1816,-0.34,0.23,9.96,0.13,0.17,-0.05
1821,-0.34,0.23,9.96,0.07,0.07,-0.05
1826,-0.34,0.23,9.96,0.08,0.01,-0.06
1831,-0.34,0.23,9.96,0.08,-0.03,-0.04
1836,-0.34,0.23,9.96,0.10,-0.05,0.02
1841,-0.34,0.23,9.96,0.11,-0.06,0.05
1845,-0.34,0.23,9.96,0.09,-0.07,0.06
1851,0.57,0.00,9.38,0.09,-0.07,0.06
1856,0.57,0.00,9.38,0.07,-0.09,0.03
1861,0.57,0.00,9.38,0.07,-0.08,0.00
1866,0.57,0.00,9.38,0.08,-0.05,-0.01
1871,0.57,0.00,9.38,0.09,-0.01,-0.01
1876,0.57,0.00,9.38,0.08,0.02,0.02
1880,0.57,0.00,9.38,0.07,0.02,0.01
1887,-0.57,-1.04,10.34,0.07,0.02,0.01
1891,-0.57,-1.04,10.34,0.06,-0.03,-0.05
1896,-0.57,-1.04,10.34,0.06,-0.04,-0.06
1901,-0.57,-1.04,10.34,0.06,-0.05,-0.05
1906,-0.57,-1.04,10.34,0.06,-0.05,-0.03
1911,-0.57,-1.04,10.34,0.06,-0.03,-0.03
1916,-0.57,-1.04,10.34,0.06,0.00,-0.05
1921,-0.57,-1.04,10.34,0.07,0.03,-0.06
1926,-0.57,-1.04,10.34,0.09,0.09,-0.06
1931,-0.57,-1.04,10.34,0.11,0.15,-0.04
1936,-1.57,-1.53,10.34,0.11,0.15,-0.04
1941,-1.57,-1.53,10.34,0.13,0.19,-0.05
1946,-1.57,-1.53,10.34,0.13,0.16,-0.03
1951,-1.57,-1.53,10.34,0.13,0.08,-0.01
1956,-1.57,-1.53,10.34,0.11,-0.03,0.00
1961,-1.57,-1.53,10.34,0.09,-0.14,0.01
1965,-1.57,-1.53,10.34,0.05,-0.19,-0.01
1971,-0.88,-0.23,7.31,0.05,-0.19,-0.01
1976,-0.88,-0.23,7.31,0.04,-0.13,-0.05
1981,-0.88,-0.23,7.31,0.04,-0.09,-0.04
1986,-0.88,-0.23,7.31,0.04,-0.04,-0.02
1991,-0.88,-0.23,7.31,0.05,-0.03,-0.01
1996,-0.88,-0.23,7.31,0.05,-0.02,-0.00
2000,-0.88,-0.23,7.31,0.05,-0.03,-0.01
2006,2.72,-1.80,12.06,0.05,-0.03,-0.01
2011,2.72,-1.80,12.06,0.10,-0.01,0.05
2016,2.72,-1.80,12.06,0.12,0.04,0.09
2020,2.72,-1.80,12.06,0.14,0.10,0.12
2027,-1.65,-0.57,7.97,0.14,0.10,0.12
2031,-1.65,-0.57,7.97,0.14,0.12,0.15
2035,-1.65,-0.57,7.97,0.14,0.08,0.16
2041,0.04,0.04,9.04,0.14,0.08,0.16
2046,0.04,0.04,9.04,0.12,-0.05,0.17
2051,0.04,0.04,9.04,0.11,-0.09,0.19
2057,0.04,0.04,9.04,0.08,-0.10,0.18
2061,0.04,0.04,9.04,0.07,-0.09,0.17
2066,0.04,0.04,9.04,0.05,-0.06,0.15
2070,0.04,0.04,9.04,0.07,-0.04,0.16
2076,0.23,-1.72,10.04,0.07,-0.04,0.16
2081,0.23,-1.72,10.04,0.07,-0.09,0.18
2086,0.23,-1.72,10.04,0.06,-0.09,0.19
2091,0.23,-1.72,10.04,0.07,-0.07,0.19
2096,0.23,-1.72,10.04,0.08,-0.03,0.20
2101,0.23,-1.72,10.04,0.08,0.01,0.21
2105,0.23,-1.72,10.04,0.08,0.02,0.21
2111,-1.80,0.84,9.00,0.08,0.02,0.21
2116,-1.80,0.84,9.00,0.06,0.00,0.19
2121,-1.80,0.84,9.00,0.05,-0.01,0.20
2126,-1.80,0.84,9.00,0.05,-0.04,0.20
2131,-1.80,0.84,9.00,0.04,-0.06,0.21
2136,-1.80,0.84,9.00,0.04,-0.08,0.20
2140,-1.80,0.84,9.00,0.03,-0.09,0.21
2146,0.42,0.38,10.92,0.03,-0.09,0.21
2151,0.42,0.38,10.92,0.02,-0.05,0.20
2156,0.42,0.38,10.92,0.03,0.02,0.19
2161,-2.34,0.08,9.50,0.03,0.02,0.19
2166,-2.34,0.08,9.50,0.04,0.13,0.17
2171,-2.34,0.08,9.50,0.04,0.14,0.17
2175,-2.34,0.08,9.50,0.02,0.12,0.17
2181,-1.72,1.23,7.51,0.02,0.12,0.17
2186,-1.72,1.23,7.51,-0.04,-0.06,0.14
2190,-1.72,1.23,7.51,-0.05,-0.15,0.12
2196,2.22,-0.73,11.11,-0.05,-0.15,0.12
2201,2.22,-0.73,11.11,-0.08,-0.24,0.12
2206,2.22,-0.73,11.11,-0.09,-0.22,0.09
2210,2.22,-0.73,11.11,-0.07,-0.13,0.06
2216,-1.68,-0.30,10.77,-0.07,-0.13,0.06
2221,-1.68,-0.30,10.77,-0.04,0.07,0.06
2225,-1.68,-0.30,10.77,-0.03,0.13,0.05
2231,-0.61,-0.73,9.96,-0.03,0.13,0.05
2236,-0.61,-0.73,9.96,-0.05,0.11,0.01
2241,-0.61,-0.73,9.96,-0.07,0.05,-0.01
2246,-0.61,-0.73,9.96,-0.07,-0.00,-0.01
2251,-0.04,-0.27,7.27,-0.07,-0.00,-0.01
2256,-0.04,-0.27,7.27,-0.06,0.01,0.00
2260,-0.04,-0.27,7.27,-0.04,0.04,0.01
2266,-1.49,1.00,9.20,-0.04,0.04,0.01
2271,-1.49,1.00,9.20,-0.07,0.08,-0.01
2276,-1.49,1.00,9.20,-0.07,0.05,-0.03
2280,-1.49,1.00,9.20,-0.07,0.04,-0.03
2286,-0.73,0.23,10.61,-0.07,0.04,-0.03
2291,-0.73,0.23,10.61,-0.07,0.02,0.00
2295,-0.73,0.23,10.61,-0.06,-0.01,0.03
2301,1.65,-0.23,10.00,-0.06,-0.01,0.03
2306,1.65,-0.23,10.00,-0.07,-0.06,0.04
2311,1.65,-0.23,10.00,-0.07,-0.04,0.03
2316,1.65,-0.23,10.00,-0.06,-0.02,0.04
2321,1.65,-0.23,10.00,-0.06,0.02,0.03
2326,1.65,-0.23,10.00,-0.05,0.05,0.03
2330,1.65,-0.23,10.00,-0.05,0.09,0.03
2336,-0.04,0.19,10.80,-0.05,0.09,0.03
2341,-0.04,0.19,10.80,-0.04,0.14,0.00
2345,-0.04,0.19,10.80,-0.05,0.13,-0.01
2351,-0.04,0.19,10.80,-0.05,0.12,-0.02
2356,-0.04,0.19,10.80,-0.07,0.08,-0.04
2361,-0.04,0.19,10.80,-0.07,0.04,-0.06
2365,-0.04,0.19,10.80,-0.07,-0.00,-0.07
2371,0.54,-0.54,8.46,-0.07,-0.00,-0.07
2376,0.54,-0.54,8.46,-0.09,-0.10,-0.07
2380,0.54,-0.54,8.46,-0.11,-0.14,-0.08
2386,0.54,-0.54,8.46,-0.12,-0.15,-0.11
2391,0.54,-0.54,8.46,-0.13,-0.12,-0.16
2396,0.54,-0.54,8.46,-0.14,-0.04,-0.19
2400,0.54,-0.54,8.46,-0.13,0.04,-0.21
2406,-0.50,-0.92,9.80,-0.13,0.04,-0.21
2411,-0.50,-0.92,9.80,-0.12,0.11,-0.22
2415,-0.50,-0.92,9.80,-0.11,0.09,-0.23
2421,1.61,-1.53,11.49,-0.11,0.09,-0.23
2426,1.61,-1.53,11.49,-0.09,0.00,-0.22
2431,1.61,-1.53,11.49,-0.07,0.00,-0.20
2436,1.61,-1.53,11.49,-0.05,0.03,-0.19
2441,-1.15,-0.69,9.00,-0.05,0.03,-0.19
2446,-1.15,-0.69,9.00,-0.03,0.08,-0.17
2450,-1.15,-0.69,9.00,-0.04,0.08,-0.18
2456,-0.65,-0.61,9.08,-0.04,0.08,-0.18
2461,-0.65,-0.61,9.08,-0.04,0.02,-0.17
2466,-0.65,-0.61,9.08,-0.03,0.01,-0.18
2471,-0.65,-0.61,9.08,-0.03,0.01,-0.17
2476,-0.69,-0.46,9.58,-0.03,0.01,-0.17
2481,-0.69,-0.46,9.58,-0.03,-0.02,-0.16
2485,-0.69,-0.46,9.58,-0.04,-0.01,-0.18
2491,-1.00,-1.00,9.80,-0.04,-0.01,-0.18
2496,-1.00,-1.00,9.80,-0.02,-0.03,-0.15
2500,-1.00,-1.00,9.80,-0.02,-0.05,-0.13
2506,-1.00,-1.00,9.80,-0.01,-0.05,-0.11
2511,-1.46,-0.46,9.20,-0.01,-0.05,-0.11
2516,-1.46,-0.46,9.20,0.02,-0.01,-0.07
2520,-1.46,-0.46,9.20,0.01,0.01,-0.06
2526,-1.11,-0.84,9.31,0.01,0.01,-0.06
2531,-1.11,-0.84,9.31,0.03,-0.01,-0.07
2536,-1.11,-0.84,9.31,0.04,-0.01,-0.04
2541,-1.11,-0.84,9.31,0.05,0.00,-0.02
2546,-1.30,-0.27,9.65,0.05,0.00,-0.02
2551,-1.30,-0.27,9.65,0.05,0.04,-0.00
2555,-1.30,-0.27,9.65,0.04,0.03,-0.02
2561,-0.38,-0.54,10.03,0.04,0.03,-0.02
2566,-0.38,-0.54,10.03,0.04,-0.01,-0.02
2570,-0.38,-0.54,10.03,0.04,0.01,-0.02
2576,-0.38,-0.54,10.03,0.04,0.04,-0.03
2581,-0.38,-0.54,10.03,0.03,0.05,-0.03
2586,-0.38,-0.54,10.03,0.04,0.04,-0.04
2591,-0.38,-0.54,10.03,0.02,0.03,-0.05
2596,-1.07,0.96,7.31,0.02,0.03,-0.05
2601,-1.07,0.96,7.31,-0.02,-0.06,-0.06
2605,-1.07,0.96,7.31,-0.03,-0.11,-0.09
2611,-1.07,0.96,7.31,-0.05,-0.14,-0.10
2615,-1.07,0.96,7.31,-0.06,-0.16,-0.10
2621,-1.07,0.96,7.31,-0.06,-0.16,-0.11
2626,-1.07,0.96,7.31,-0.04,-0.12,-0.13
2631,-0.65,-1.65,10.57,-0.04,-0.12,-0.13
2636,-0.65,-1.65,10.57,-0.00,0.06,-0.13
2640,-0.65,-1.65,10.57,0.01,0.13,-0.11
2646,-0.65,-1.65,10.57,0.03,0.15,-0.11
2651,-0.65,-1.65,10.57,0.02,0.15,-0.12
2656,-0.65,-1.65,10.57,0.01,0.11,-0.13
2660,-0.65,-1.65,10.57,-0.00,0.06,-0.14
2666,0.30,-1.00,7.85,-0.00,0.06,-0.14
2671,0.30,-1.00,7.85,0.00,0.00,-0.15
2675,0.30,-1.00,7.85,0.01,-0.02,-0.12
2681,-0.19,-0.42,8.35,0.01,-0.02,-0.12
2686,0.23,0.57,8.89,0.01,-0.02,-0.12
2690,0.23,0.57,8.89,0.00,-0.05,-0.09
2696,0.23,0.57,8.89,-0.01,-0.04,-0.12
2701,-1.15,0.77,9.80,-0.01,-0.04,-0.12
2706,-1.15,0.77,9.80,0.01,0.04,-0.12
2710,-1.15,0.77,9.80,0.02,0.05,-0.08
2716,1.46,-0.42,9.34,0.02,0.05,-0.08
2721,1.46,-0.42,9.34,0.02,-0.04,-0.01
2725,1.46,-0.42,9.34,0.02,-0.06,-0.02
2731,1.46,-0.42,9.34,0.02,-0.05,-0.02
2736,-0.38,-0.73,9.08,0.02,-0.05,-0.02
2741,-0.38,-0.73,9.08,0.02,0.03,-0.01
2745,-0.38,-0.73,9.08,0.04,0.06,0.01
2751,-0.46,-0.84,9.77,0.04,0.06,0.01
2755,-0.46,-0.84,9.77,0.05,0.06,0.03
2760,-0.46,-0.84,9.77,0.05,0.06,0.04
2766,-0.46,-0.84,9.77,0.05,0.06,0.05
2771,-0.65,-1.38,9.30,0.05,0.06,0.05
2776,-0.65,-1.38,9.30,0.05,0.01,0.07
2780,-0.65,-1.38,9.30,0.06,-0.02,0.08
2786,-0.65,-1.38,9.30,0.06,-0.07,0.09
2791,-0.65,-1.38,9.30,0.06,-0.11,0.12
2795,-0.65,-1.38,9.30,0.04,-0.12,0.13
2801,-0.65,-1.38,9.30,0.04,-0.09,0.12
2806,-0.61,-0.80,10.80,0.04,-0.09,0.12
2811,-0.61,-0.80,10.80,0.03,-0.02,0.09
2816,-0.61,-0.80,10.80,0.04,0.01,0.10
2821,-1.04,-1.11,8.46,0.04,0.01,0.10
2826,-1.04,-1.11,8.46,0.04,0.01,0.11
2830,-1.04,-1.11,8.46,0.02,-0.02,0.12
2836,-0.27,-0.69,9.93,0.02,-0.02,0.12
2841,-0.27,-0.69,9.93,0.02,-0.06,0.14
2846,-0.27,-0.69,9.93,0.03,-0.05,0.14
2851,-0.27,-0.69,9.93,0.04,-0.02,0.15
2856,-2.14,0.27,9.50,0.04,-0.02,0.15
2861,-2.14,0.27,9.50,0.07,0.09,0.18
2865,-2.14,0.27,9.50,0.07,0.10,0.19
2871,-2.07,0.50,9.46,0.07,0.10,0.19
2876,-2.07,0.50,9.46,0.05,0.06,0.16
2880,-2.07,0.50,9.46,0.04,0.01,0.16
2886,-2.07,0.50,9.46,0.03,-0.03,0.17
2891,-0.88,0.57,9.38,0.03,-0.03,0.17
2896,-0.88,0.57,9.38,0.00,-0.06,0.16
2900,-0.88,0.57,9.38,-0.02,-0.05,0.12
2906,-0.88,0.57,9.38,-0.04,-0.03,0.07
2911,-0.88,0.57,9.38,-0.04,-0.03,0.07
2916,-0.88,0.57,9.38,-0.05,-0.05,0.05
2921,-0.88,0.57,9.38,-0.06,-0.08,0.05
2926,0.80,-1.00,9.38,-0.06,-0.08,0.05
2931,0.80,-1.00,9.38,-0.07,-0.10,0.00
2935,0.80,-1.00,9.38,-0.06,-0.06,-0.01
2941,-0.23,-1.23,9.46,-0.06,-0.06,-0.01
2946,-0.23,-1.23,9.46,-0.06,0.03,-0.04
2950,-0.23,-1.23,9.46,-0.06,0.05,-0.05
2956,-0.23,-1.23,9.46,-0.07,0.05,-0.08
2961,-0.08,-0.65,10.11,-0.07,0.05,-0.08
2966,-0.08,-0.65,10.11,-0.07,0.03,-0.09
2971,-0.08,-0.65,10.11,-0.06,0.02,-0.08
2976,1.19,-0.88,10.23,-0.06,0.02,-0.08
2981,1.19,-0.88,10.23,-0.05,0.02,-0.08
2985,1.19,-0.88,10.23,-0.04,0.05,-0.07
2991,1.19,-0.88,10.23,-0.04,0.09,-0.07
2996,-0.80,0.08,10.19,-0.04,0.09,-0.07
3001,-0.80,0.08,10.19,-0.04,0.12,-0.07
3006,-0.80,0.08,10.19,-0.01,0.13,-0.06
3011,-1.49,0.19,8.12,-0.01,0.13,-0.06
3015,-1.49,0.19,8.12,-0.01,0.09,-0.02
3020,-1.49,0.19,8.12,-0.02,0.04,-0.01
3026,-1.49,0.19,8.12,-0.04,-0.03,0.00
3031,-1.49,0.19,8.12,-0.04,-0.14,0.02
3036,-1.49,0.19,8.12,-0.07,-0.21,0.05
3041,-1.49,0.19,8.12,-0.08,-0.22,0.03
3046,-1.49,0.19,8.12,-0.07,-0.15,0.00
3051,-1.49,0.19,8.12,-0.04,-0.02,-0.02
3055,-1.49,0.19,8.12,-0.01,0.12,0.00
3061,-2.84,0.57,8.31,-0.01,0.12,0.00
3066,-1.34,0.96,9.00,-0.01,0.12,0.00
3070,-1.34,0.96,9.00,-0.03,0.22,-0.00
3076,-1.34,0.96,9.00,-0.07,0.13,-0.03
3081,1.19,-0.73,8.24,-0.07,0.13,-0.03
3086,1.19,-0.73,8.24,-0.09,-0.04,-0.12
3090,1.19,-0.73,8.24,-0.09,-0.06,-0.13
3096,0.27,-1.15,7.78,-0.09,-0.06,-0.13
3101,0.27,-1.15,7.78,-0.06,-0.07,-0.06
3105,0.27,-1.15,7.78,-0.06,-0.06,-0.05
3111,0.27,-1.15,7.78,-0.05,-0.06,-0.07
3116,-1.00,-0.54,10.23,-0.05,-0.06,-0.07
3121,-1.00,-0.54,10.23,-0.04,0.03,-0.12
3125,-1.00,-0.54,10.23,-0.02,0.06,-0.11
3131,1.00,-1.00,10.35,-0.02,0.06,-0.11
3135,1.00,-1.00,10.35,-0.01,0.06,-0.08
3140,1.00,-1.00,10.35,-0.02,0.03,-0.09
3146,1.00,-1.00,10.35,-0.03,0.01,-0.09
3151,1.00,-1.00,10.35,-0.03,0.01,-0.11
3156,1.00,-1.00,10.35,-0.04,0.02,-0.12
3160,1.00,-1.00,10.35,-0.04,0.03,-0.12
3166,1.00,-1.00,10.35,-0.03,0.02,-0.12
3171,1.00,-1.00,10.35,-0.03,0.02,-0.12
3175,1.00,-1.00,10.35,-0.02,0.04,-0.12
3181,1.00,-1.00,10.35,-0.00,0.07,-0.12
3186,-1.53,-0.19,9.16,-0.00,0.07,-0.12
3191,-1.53,-0.19,9.16,0.02,0.08,-0.13
3195,-1.53,-0.19,9.16,0.03,0.06,-0.12
3201,-1.46,0.38,8.96,0.03,0.06,-0.12
3206,-1.46,0.38,8.96,0.02,-0.01,-0.10
3210,-1.46,0.38,8.96,0.02,-0.04,-0.10
3216,-1.46,0.38,8.96,0.01,-0.07,-0.09
3221,-1.46,0.38,8.96,0.00,-0.10,-0.11
3225,-1.46,0.38,8.96,-0.01,-0.09,-0.12
3231,-1.46,0.38,8.96,0.00,-0.07,-0.13
3236,-1.65,-0.30,8.31,0.00,-0.07,-0.13
3241,-1.65,-0.30,8.31,-0.01,0.02,-0.12
3245,-1.65,-0.30,8.31,-0.01,0.04,-0.14
3251,-1.65,-0.30,8.31,-0.01,0.05,-0.15
3255,-1.65,-0.30,8.31,-0.03,0.01,-0.15
3260,-1.65,-0.30,8.31,-0.01,-0.05,-0.14
3266,-1.65,-0.30,8.31,0.00,-0.10,-0.12
3271,-0.23,-0.19,8.16,0.00,-0.10,-0.12
3276,-0.23,-0.19,8.16,0.03,-0.07,-0.08
3281,-0.23,-0.19,8.16,0.04,-0.04,-0.06
3286,-0.23,-0.19,8.16,0.03,-0.00,-0.07
3290,-0.23,-0.19,8.16,0.03,0.01,-0.08
3295,-0.23,-0.19,8.16,0.03,0.00,-0.08
3300,-0.23,-0.19,8.16,0.04,-0.00,-0.07
3306,-0.23,-0.19,8.16,0.04,0.00,-0.07
3310,-0.23,-0.19,8.16,0.03,0.02,-0.08
3316,-0.23,-0.19,8.16,0.03,0.03,-0.08
3321,-1.99,-0.11,8.04,0.03,0.03,-0.08
3325,-1.99,-0.11,8.04,0.02,0.04,-0.09
3330,-1.99,-0.11,8.04,0.01,-0.02,-0.08
3336,-1.99,-0.11,8.04,-0.01,-0.10,-0.07
3340,-1.99,-0.11,8.04,-0.02,-0.17,-0.08
3346,-1.99,-0.11,8.04,-0.02,-0.18,-0.06
3351,-1.99,-0.11,8.04,-0.00,-0.14,-0.06
3356,0.61,-1.23,10.39,-0.00,-0.14,-0.06
3360,0.61,-1.23,10.39,0.03,-0.03,-0.03
3365,0.61,-1.23,10.39,0.05,0.03,-0.02
3371,0.61,-1.23,10.39,0.05,0.07,-0.02
3376,0.61,-1.23,10.39,0.06,0.09,-0.02
3380,0.61,-1.23,10.39,0.06,0.08,-0.01
3386,0.61,-1.23,10.39,0.05,0.05,-0.01
3391,1.57,-1.04,10.00,0.05,0.05,-0.01
3395,1.19,-1.61,9.00,0.05,0.05,-0.01
3400,1.19,-1.61,9.00,0.05,-0.08,0.03
3406,1.19,-1.61,9.00,0.05,-0.05,0.06
3410,1.19,-1.61,9.00,0.06,-0.01,0.07
3415,1.19,-1.61,9.00,0.06,0.04,0.07
3421,1.19,-1.61,9.00,0.06,0.08,0.06
3426,1.19,-1.61,9.00,0.06,0.09,0.05
3430,1.19,-1.61,9.00,0.06,0.06,0.06
3436,1.19,-1.61,9.00,0.04,0.01,0.07
3440,1.19,-1.61,9.00,0.03,-0.05,0.07
3446,2.61,-0.80,10.50,0.03,-0.05,0.07
3450,2.61,-0.80,10.50,0.02,-0.19,0.09
3456,2.61,-0.80,10.50,0.01,-0.21,0.11
3461,0.38,-1.76,9.65,0.01,-0.21,0.11
3465,0.38,-1.76,9.65,0.06,-0.03,0.12
3470,0.38,-1.76,9.65,0.08,0.12,0.13
3476,0.38,-1.76,9.65,0.09,0.16,0.13
3480,0.38,-1.76,9.65,0.08,0.14,0.13
3485,0.38,-1.76,9.65,0.06,0.12,0.12
3491,0.38,-1.76,9.65,0.04,0.08,0.11
3496,0.15,-1.53,8.12,0.04,0.08,0.11
3500,0.15,-1.53,8.12,0.04,-0.02,0.07
3505,0.15,-1.53,8.12,0.03,-0.04,0.08
3511,0.15,-1.53,8.12,0.03,-0.04,0.11
3515,0.15,-1.53,8.12,0.03,-0.03,0.12
3520,0.15,-1.53,8.12,0.01,-0.04,0.10
3525,0.15,-1.53,8.12,-0.01,-0.05,0.07
3531,-0.96,0.96,10.88,-0.01,-0.05,0.07
3535,-0.96,0.96,10.88,-0.02,-0.03,0.04
3540,-0.96,0.96,10.88,-0.01,-0.01,0.03
3546,-0.96,0.96,10.88,-0.00,0.02,0.06
3550,-0.96,0.96,10.88,0.00,0.02,0.08
3556,-0.96,0.96,10.88,0.00,0.01,0.09
3560,-0.96,0.96,10.88,-0.01,-0.00,0.08
3566,-0.96,0.96,10.88,-0.01,0.01,0.06
3570,-0.96,0.96,10.88,-0.03,0.02,0.06
3576,-0.96,0.96,10.88,-0.04,0.03,0.05
3580,-0.96,0.96,10.88,-0.04,0.03,0.05
3585,-0.96,0.96,10.88,-0.05,0.03,0.05
3591,-0.96,0.96,10.88,-0.04,0.02,0.05
3596,-0.96,0.96,10.88,-0.05,0.01,0.05
3600,-0.96,0.96,10.88,-0.06,0.01,0.04
3605,-0.96,0.96,10.88,-0.07,0.04,0.01
3611,-0.96,0.96,10.88,-0.08,0.06,-0.02
3616,-0.96,0.96,10.88,-0.07,0.07,-0.03
3620,-1.99,0.42,8.54,-0.07,0.07,-0.03
3625,-0.92,0.61,9.16,-0.07,0.07,-0.03
3631,-0.92,0.61,9.16,-0.07,-0.01,-0.01
3636,-0.92,0.61,9.16,-0.08,-0.04,-0.03
3640,0.11,-0.80,8.82,-0.08,-0.04,-0.03
3645,0.11,-0.80,8.82,-0.11,-0.09,-0.10
3651,-0.34,-0.92,8.35,-0.11,-0.09,-0.10
3655,-0.34,-0.92,8.35,-0.11,-0.06,-0.13
3660,-0.34,-0.92,8.35,-0.11,-0.01,-0.13
3666,-0.34,-0.92,8.35,-0.10,0.02,-0.14
3670,-0.34,-0.92,8.35,-0.10,0.04,-0.15
3676,-0.34,-0.92,8.35,-0.10,0.01,-0.16
3680,-0.34,-0.92,8.35,-0.07,-0.01,-0.16
3686,-0.34,-0.92,8.35,-0.06,0.00,-0.14
3691,-0.34,-0.92,8.35,-0.04,0.04,-0.12
3695,-0.34,-0.50,8.58,-0.04,0.04,-0.12
3700,-0.34,-0.50,8.58,-0.04,0.10,-0.13
3706,0.34,-0.30,9.04,-0.04,0.10,-0.13
3710,0.34,-0.30,9.04,-0.04,0.06,-0.12
3716,0.34,-0.30,9.04,-0.03,0.04,-0.09
3721,0.34,-0.30,9.04,-0.03,0.02,-0.07
3725,0.34,-0.30,9.04,-0.04,0.01,-0.07
3730,0.34,-0.30,9.04,-0.05,0.03,-0.08
3736,0.34,-0.30,9.04,-0.05,0.04,-0.11
3741,0.34,-0.30,9.04,-0.05,0.03,-0.10
3745,1.11,-0.27,9.73,-0.05,0.03,-0.10
3750,1.53,-0.27,9.27,-0.05,0.03,-0.10
3756,1.53,-0.27,9.27,-0.05,-0.12,-0.03
3761,1.53,-0.27,9.27,-0.05,-0.10,-0.04
3765,1.53,-0.27,9.27,-0.04,-0.07,-0.04
3771,1.53,-0.27,9.27,-0.03,0.00,-0.05
3776,1.53,-0.27,9.27,-0.02,0.07,-0.05
3781,-0.80,0.08,8.62,-0.02,0.07,-0.05
3785,-0.19,-0.08,9.20,-0.02,0.07,-0.05
3791,-0.19,-0.08,9.20,-0.03,0.08,-0.07
3796,-0.19,-0.08,9.20,-0.03,0.04,-0.08
3800,-0.19,-0.08,9.20,-0.04,0.00,-0.07
3806,-0.19,-0.08,9.20,-0.03,-0.02,-0.08
3811,-0.19,-0.08,9.20,-0.03,-0.02,-0.10
3815,-0.50,-0.84,8.96,-0.03,-0.02,-0.10
3820,-1.11,-0.88,8.54,-0.03,-0.02,-0.10
3826,-1.11,-0.88,8.54,-0.02,0.04,-0.10
3831,-1.11,-0.88,8.54,-0.02,0.05,-0.12
3836,-1.23,-0.54,8.35,-0.02,0.05,-0.12
3840,-1.46,-0.30,8.01,-0.02,0.05,-0.12
3846,-1.46,-0.30,8.01,-0.01,-0.01,-0.14
3850,-1.46,-0.30,8.01,-0.03,-0.02,-0.16
3856,-1.46,-0.30,8.01,-0.03,-0.04,-0.17
3861,-1.46,-0.30,8.01,-0.04,-0.06,-0.18
3866,1.76,-1.27,11.88,-0.04,-0.06,-0.18
3870,1.30,-1.88,11.42,-0.04,-0.06,-0.18
3876,1.30,-1.88,11.42,-0.03,-0.07,-0.18
3881,-1.72,-0.77,9.77,-0.03,-0.07,-0.18
3885,-1.61,-0.65,9.04,-0.03,-0.07,-0.18
3891,-1.61,-0.65,9.04,0.04,0.14,-0.17
3896,-1.61,-0.65,9.04,0.04,0.14,-0.16
3900,-1.23,0.08,9.35,0.04,0.14,-0.16
3906,-1.23,0.08,9.35,0.02,0.07,-0.18
3911,-1.23,0.08,9.35,-0.00,0.03,-0.20
3915,-0.80,-0.96,8.66,-0.00,0.03,-0.20
3920,-0.84,-1.30,8.46,-0.00,0.03,-0.20
3925,0.04,-1.19,7.97,-0.00,0.03,-0.20
3931,0.04,-1.19,7.97,0.04,-0.07,-0.11
3935,-0.96,-0.30,8.70,0.04,-0.07,-0.11
3940,-2.03,-0.30,9.04,0.04,-0.07,-0.11
3946,-2.03,-0.30,9.04,0.05,0.00,-0.09
3951,-3.07,0.50,9.58,0.05,0.00,-0.09
3955,-1.49,-0.04,11.07,0.05,0.00,-0.09
3960,-1.49,-0.04,11.07,0.06,0.07,-0.08
3966,-0.08,0.00,11.19,0.06,0.07,-0.08
3971,-0.08,0.00,11.19,0.07,-0.06,-0.01
3976,-0.92,-0.77,10.73,0.07,-0.06,-0.01
3980,-1.34,-0.92,8.81,0.07,-0.06,-0.01
3985,-0.42,-1.61,9.92,0.07,-0.06,-0.01
3990,-0.42,-1.61,9.92,0.07,-0.00,-0.01
3996,-0.42,-1.61,9.92,0.06,0.01,0.00
4000,-0.73,-0.19,10.92,0.06,0.01,0.00
4005,-1.88,-0.42,11.11,0.06,0.01,0.00
4011,-1.88,-0.42,11.11,0.07,0.06,0.00
4016,-1.88,-0.42,11.11,0.07,0.09,-0.01
4020,-1.23,-1.00,9.00,0.07,0.09,-0.01
4025,-1.23,-1.00,9.00,0.08,0.08,-0.04
4031,-1.23,-1.00,9.00,0.08,0.03,-0.02
4035,0.11,0.30,8.39,0.08,0.03,-0.02
4040,0.84,-0.04,9.30,0.08,0.03,-0.02
4046,0.84,-0.04,9.30,0.01,-0.12,-0.03
4051,0.84,-0.04,9.30,-0.02,-0.12,-0.06
4055,-0.46,-0.15,8.54,-0.02,-0.12,-0.06
4060,-1.11,-0.04,8.73,-0.02,-0.12,-0.06
4066,-1.11,-0.04,8.73,-0.01,0.00,-0.15
4071,-1.11,-0.04,8.73,-0.01,0.04,-0.13
4075,1.30,-0.54,9.69,-0.01,0.04,-0.13
4080,1.46,-0.61,9.46,-0.01,0.04,-0.13
4086,1.46,-0.61,9.46,-0.03,-0.07,-0.16
4091,1.46,-0.61,9.46,-0.02,-0.09,-0.16
4096,1.23,-0.92,10.15,-0.02,-0.09,-0.16
4100,0.88,-0.57,9.81,-0.02,-0.09,-0.16
4105,0.88,-0.57,9.81,0.06,0.04,-0.07
4110,0.88,-0.57,9.81,0.08,0.10,-0.05
4116,0.88,-0.57,9.81,0.08,0.11,-0.05
4121,0.88,-0.57,9.81,0.07,0.11,-0.07
4125,0.46,0.23,9.73,0.07,0.11,-0.07
4130,0.19,0.08,9.65,0.07,0.11,-0.07
4136,0.19,0.08,9.65,0.08,0.06,-0.04
4140,-0.50,0.50,9.20,0.08,0.06,-0.04
4145,-0.88,0.57,8.62,0.08,0.06,-0.04
4151,-0.88,0.57,8.62,0.05,0.03,-0.04
4156,-0.88,0.57,8.62,0.03,-0.02,-0.03
4160,1.49,-0.30,8.31,0.03,-0.02,-0.03
4165,1.27,-0.69,8.20,0.03,-0.02,-0.03
4171,1.27,-0.69,8.20,0.01,-0.16,-0.01
4175,-1.91,0.27,9.23,0.01,-0.16,-0.01
4180,-1.57,-0.84,10.35,0.01,-0.16,-0.01
4186,-1.57,-0.84,10.35,0.04,0.06,-0.01
4191,-1.57,-0.84,10.35,0.04,0.08,-0.02
4195,0.23,-0.34,9.73,0.04,0.08,-0.02
4200,0.23,-0.96,9.65,0.04,0.08,-0.02
4206,-0.34,-0.57,9.08,0.04,0.08,-0.02
4210,-1.27,-0.54,8.58,0.04,0.08,-0.02
4215,-0.77,-1.27,8.96,0.04,0.08,-0.02
4221,-0.77,-1.27,8.96,0.07,0.00,0.02
4226,-0.77,-1.27,8.96,0.06,-0.02,0.02
4230,-1.30,-1.15,10.45,0.06,-0.02,0.02
4235,-0.88,-1.27,10.46,0.06,-0.02,0.02
4241,-0.88,-1.27,10.46,0.06,0.01,0.02
4245,-3.29,-0.61,8.96,0.06,0.01,0.02
4250,-3.33,-0.42,8.39,0.06,0.01,0.02
4256,-2.41,-0.27,7.62,0.06,0.01,0.02
4260,-1.53,0.57,7.32,0.06,0.01,0.02
4265,-1.68,0.38,8.70,0.06,0.01,0.02
4270,-0.27,0.54,9.42,0.06,0.01,0.02
4275,-0.27,0.54,9.42,0.03,-0.14,0.05
4281,-0.27,0.54,9.42,0.01,-0.18,0.08
4285,-0.46,-1.07,11.26,0.01,-0.18,0.08
4291,-1.80,-0.15,10.23,0.01,-0.18,0.08
4295,-2.38,-0.42,10.73,0.01,-0.18,0.08
4300,-2.61,-0.38,8.85,0.01,-0.18,0.08
4305,-2.18,0.15,9.65,0.01,-0.18,0.08
4310,-2.18,0.15,9.65,0.08,0.13,0.11
4316,-2.18,0.15,9.65,0.06,0.11,0.11
4320,-1.04,0.00,8.58,0.06,0.11,0.11
4326,-1.61,-0.42,8.46,0.06,0.11,0.11
4330,-1.46,-0.19,7.89,0.06,0.11,0.11
4335,-1.07,-1.04,8.27,0.06,0.11,0.11
4340,-0.57,-0.92,8.23,0.06,0.11,0.11
4346,-0.34,0.11,8.42,0.06,0.11,0.11
4350,0.65,-0.27,9.80,0.06,0.11,0.11
4355,-0.46,0.54,10.03,0.06,0.11,0.11
4360,-0.46,0.54,10.03,0.01,-0.07,0.03
4366,-0.46,0.54,10.03,0.03,-0.00,0.02
4370,-0.27,-0.80,10.19,0.03,-0.00,0.02
4376,0.61,-1.19,10.84,0.03,-0.00,0.02
4380,0.04,-1.91,9.69,0.03,-0.00,0.02
4385,0.50,-1.00,10.00,0.03,-0.00,0.02
4390,0.00,-0.27,9.50,0.03,-0.00,0.02
4396,0.00,-0.27,9.50,0.05,-0.01,0.02
4400,0.00,-1.53,10.23,0.05,-0.01,0.02
4405,0.57,-0.50,9.38,0.05,-0.01,0.02
4411,0.84,-0.80,9.84,0.05,-0.01,0.02
4415,1.00,-1.19,10.35,0.05,-0.01,0.02
4420,0.34,-0.69,10.11,0.05,-0.01,0.02
4425,0.19,0.19,10.35,0.05,-0.01,0.02
4431,0.19,0.19,10.35,0.04,0.02,0.01
4436,-1.46,-0.69,8.88,0.04,0.02,0.01
4440,-1.46,-0.69,8.88,0.07,0.10,0.01
4445,0.04,0.38,8.12,0.07,0.10,0.01
4450,0.08,0.50,9.58,0.07,0.10,0.01
4455,0.08,0.84,9.35,0.07,0.10,0.01
4460,0.30,0.69,9.39,0.07,0.10,0.01
4466,0.23,0.15,9.58,0.07,0.10,0.01
4471,0.27,0.00,8.04,0.07,0.10,0.01
4475,0.27,0.00,8.04,-0.00,-0.06,-0.02
4480,0.73,-1.04,8.62,-0.00,-0.06,-0.02
4485,0.73,-1.04,8.62,-0.01,-0.05,-0.01
4491,0.73,-1.04,8.62,-0.01,-0.07,-0.01
4496,1.68,-0.77,10.00,-0.01,-0.07,-0.01
4500,2.14,-1.15,11.07,-0.01,-0.07,-0.01
4505,1.46,-0.27,11.15,-0.01,-0.07,-0.01
4510,0.30,-0.34,10.65,-0.01,-0.07,-0.01
4516,-0.27,-0.84,10.27,-0.01,-0.07,-0.01
4520,0.11,-0.57,10.19,-0.01,-0.07,-0.01
4525,0.23,-0.69,10.03,-0.01,-0.07,-0.01
4530,0.61,-1.00,10.07,-0.01,-0.07,-0.01
4536,0.61,-1.00,10.07,0.07,0.05,-0.02
4540,-0.11,-0.77,9.73,0.07,0.05,-0.02
4545,-0.69,-0.77,9.00,0.07,0.05,-0.02
4551,-1.30,-0.77,9.73,0.07,0.05,-0.02
4556,-1.76,-0.27,9.39,0.07,0.05,-0.02
4560,-1.76,-0.27,9.39,0.04,0.01,-0.08
4565,-1.11,-1.11,9.20,0.04,0.01,-0.08
4570,-0.84,-0.84,7.70,0.04,0.01,-0.08
4575,-0.08,-1.34,7.77,0.04,0.01,-0.08
4580,0.84,-1.49,8.70,0.04,0.01,-0.08
4586,0.73,-1.34,9.04,0.04,0.01,-0.08
4591,-0.38,-1.07,9.08,0.04,0.01,-0.08
4595,-0.38,-1.07,9.08,0.04,-0.06,-0.11
4600,-0.38,-1.07,9.08,0.06,-0.01,-0.10
4605,-0.96,-0.77,10.73,0.06,-0.01,-0.10
4610,-1.04,-1.04,10.57,0.06,-0.01,-0.10
4616,0.00,-1.30,12.18,0.06,-0.01,-0.10
4620,-0.65,-1.19,10.99,0.06,-0.01,-0.10
4625,-0.54,-1.00,10.23,0.06,-0.01,-0.10
4630,-0.15,-1.15,9.73,0.06,-0.01,-0.10
4636,0.23,-1.07,9.58,0.06,-0.01,-0.10
4641,-1.95,-0.96,8.96,0.06,-0.01,-0.10
4645,-1.95,-0.96,8.96,0.16,0.06,0.02
4650,-3.79,-0.42,8.31,0.16,0.06,0.02
4655,-2.80,-0.38,8.74,0.16,0.06,0.02
4660,-2.64,-0.04,8.77,0.16,0.06,0.02
4665,-3.52,0.00,7.70,0.16,0.06,0.02
4671,-2.76,0.77,7.23,0.16,0.06,0.02
4676,-1.99,0.34,7.24,0.16,0.06,0.02
4680,-1.99,0.34,7.24,0.12,-0.16,0.08
4685,1.53,-0.27,10.50,0.12,-0.16,0.08
4690,2.38,-1.04,11.26,0.12,-0.16,0.08
4695,1.95,-1.04,11.64,0.12,-0.16,0.08
4700,0.23,-1.23,12.91,0.12,-0.16,0.08
4706,-0.30,-1.38,10.92,0.12,-0.16,0.08
4711,-0.96,-0.69,10.73,0.12,-0.16,0.08
4715,-0.96,-0.69,10.73,0.20,0.17,0.13
4720,-0.96,-0.69,10.73,0.17,0.13,0.13
4726,-0.96,-0.27,9.85,0.17,0.13,0.13
4731,-1.15,-0.69,8.62,0.17,0.13,0.13
4735,-1.15,-0.69,8.62,0.12,-0.01,0.09
4740,0.30,-1.04,8.58,0.12,-0.01,0.09
4745,1.30,-0.80,9.12,0.12,-0.01,0.09
4750,0.38,-0.46,9.27,0.12,-0.01,0.09
4756,0.92,-0.27,9.73,0.12,-0.01,0.09
4761,1.30,-0.69,10.45,0.12,-0.01,0.09
4765,1.30,-0.69,10.45,0.11,-0.08,0.12
4770,1.30,-0.69,10.45,0.12,-0.02,0.11
4776,-1.42,-0.04,9.42,0.12,-0.02,0.11
4781,0.92,-0.65,10.77,0.12,-0.02,0.11
4785,0.92,-0.65,10.77,0.12,0.00,0.15
4790,0.61,-0.84,8.35,0.12,0.00,0.15
4795,0.30,-0.46,8.77,0.12,0.00,0.15
4800,-0.42,-0.42,8.92,0.12,0.00,0.15
4805,-1.38,-0.08,8.08,0.12,0.00,0.15
4811,-1.04,-0.30,8.58,0.12,0.00,0.15
4817,1.42,-0.08,10.27,0.12,0.00,0.15
4820,1.42,-0.08,10.27,0.07,-0.06,0.13
4825,0.73,-0.80,11.04,0.07,-0.06,0.13
4830,0.92,-1.07,11.84,0.07,-0.06,0.13
4835,1.68,-1.30,11.64,0.07,-0.06,0.13
4840,1.19,-1.49,11.38,0.07,-0.06,0.13
4846,1.11,-2.26,10.73,0.07,-0.06,0.13
4851,-0.15,-1.00,9.00,0.07,-0.06,0.13
4855,-0.15,-1.00,9.00,0.16,0.06,0.25
4860,-0.15,-1.00,9.00,0.15,0.06,0.27
4865,-0.54,-0.42,8.77,0.15,0.06,0.27
4870,-0.46,-0.19,8.23,0.15,0.06,0.27
4876,-0.96,-0.46,8.54,0.15,0.06,0.27
4880,-0.88,-0.77,7.20,0.15,0.06,0.27
4887,-1.38,-1.15,6.82,0.15,0.06,0.27
4890,-1.38,-1.15,6.82,0.04,-0.12,0.21
4895,-1.19,-0.84,8.62,0.04,-0.12,0.21
4900,0.08,-1.15,9.00,0.04,-0.12,0.21
4905,0.69,-1.42,10.19,0.04,-0.12,0.21
4913,1.76,-2.03,11.68,0.04,-0.12,0.21
4916,0.57,-1.34,12.68,0.04,-0.12,0.21
4920,0.57,-1.34,12.68,0.08,0.03,0.23
4925,-1.04,-0.54,11.22,0.08,0.03,0.23
4830,0.92,-1.07,11.84,0.07,-0.06,0.13
4835,1.68,-1.30,11.64,0.07,-0.06,0.13
4840,1.19,-1.49,11.38,0.07,-0.06,0.13
4846,1.11,-2.26,10.73,0.07,-0.06,0.13
4851,-0.15,-1.00,9.00,0.07,-0.06,0.13
4855,-0.15,-1.00,9.00,0.16,0.06,0.25
4860,-0.15,-1.00,9.00,0.15,0.06,0.27
4865,-0.54,-0.42,8.77,0.15,0.06,0.27
4870,-0.46,-0.19,8.23,0.15,0.06,0.27
4876,-0.96,-0.46,8.54,0.15,0.06,0.27
4880,-0.88,-0.77,7.20,0.15,0.06,0.27
4887,-1.38,-1.15,6.82,0.15,0.06,0.27
4890,-1.38,-1.15,6.82,0.04,-0.12,0.21
4895,-1.19,-0.84,8.62,0.04,-0.12,0.21
4900,0.08,-1.15,9.00,0.04,-0.12,0.21
