timestamp,accX,accY,accZ,gyroX,gyroY,gyroZ
Break
6,5.09,-1.65,14.13,-0.00,-0.22,-0.24
19,2.34,-1.65,13.45,-0.00,-0.22,-0.24
21,2.34,-1.65,13.45,0.03,0.11,0.26
22,-1.00,-0.19,8.04,0.03,0.11,0.26
26,-1.00,-0.19,8.04,-0.03,-0.07,0.23
31,-2.18,1.04,8.70,-0.03,-0.07,0.23
36,-2.18,1.04,8.70,-0.04,-0.08,0.23
41,-2.18,1.04,8.70,-0.06,-0.07,0.22
47,-1.11,0.27,10.23,-0.06,-0.07,0.22
51,-1.11,0.27,10.23,-0.05,-0.08,0.19
57,-1.11,0.27,10.23,-0.06,-0.12,0.18
61,-1.11,0.27,10.23,-0.04,-0.14,0.20
67,2.14,-1.68,10.57,-0.04,-0.14,0.20
71,2.14,-1.68,10.57,-0.00,-0.10,0.23
76,2.14,-1.68,10.57,0.01,-0.04,0.24
82,-0.34,1.07,9.50,0.01,-0.04,0.24
86,-0.34,1.07,9.50,0.03,0.14,0.21
92,-0.34,1.07,9.50,0.04,0.25,0.19
96,-0.34,1.07,9.50,0.01,0.29,0.18
102,-1.99,1.30,10.07,0.01,0.29,0.18
106,-1.99,1.30,10.07,-0.07,0.21,0.10
111,-1.99,1.30,10.07,-0.10,0.07,0.05
117,-1.04,-1.00,8.20,-0.10,0.07,0.05
121,-1.04,-1.00,8.20,-0.12,-0.10,0.04
126,-1.04,-1.00,8.20,-0.13,-0.16,0.08
132,-1.04,-1.00,8.20,-0.12,-0.17,0.12
137,0.11,-0.46,8.66,-0.12,-0.17,0.12
142,0.11,-0.46,8.66,-0.11,-0.07,0.09
146,0.11,-0.46,8.66,-0.12,0.01,0.07
152,-1.49,2.49,9.96,-0.12,0.01,0.07
156,-1.49,2.49,9.96,-0.12,0.11,0.07
161,-1.49,2.49,9.96,-0.12,0.10,0.07
167,-1.49,2.49,9.96,-0.13,0.05,0.06
172,2.76,-0.27,10.07,-0.13,0.05,0.06
177,2.76,-0.27,10.07,-0.13,-0.09,0.01
181,2.76,-0.27,10.07,-0.14,-0.08,0.01
187,-1.80,-0.08,6.66,-0.14,-0.08,0.01
192,-1.80,-0.08,6.66,-0.12,0.07,0.09
196,-1.80,-0.08,6.66,-0.12,0.11,0.10
201,-1.80,-0.08,6.66,-0.13,0.11,0.08
207,1.65,1.27,12.18,-0.13,0.11,0.08
211,1.65,1.27,12.18,-0.17,-0.01,0.03
216,1.65,1.27,12.18,-0.15,-0.07,0.00
222,0.00,-1.65,11.84,-0.15,-0.07,0.00
227,0.00,-1.65,11.84,-0.10,0.04,-0.04
231,0.00,-1.65,11.84,-0.07,0.11,-0.01
237,-3.52,0.00,7.97,-0.07,0.11,-0.01
242,-3.52,0.00,7.97,-0.06,0.25,0.04
246,-3.52,0.00,7.97,-0.10,0.26,0.01
251,-3.52,0.00,7.97,-0.15,0.22,-0.06
257,-1.07,0.15,6.97,-0.15,0.22,-0.06
261,-1.07,0.15,6.97,-0.19,-0.02,-0.17
266,-1.07,0.15,6.97,-0.21,-0.19,-0.15
272,-1.07,0.15,6.97,-0.21,-0.29,-0.14
276,-1.07,0.15,6.97,-0.21,-0.32,-0.13
281,-1.07,0.15,6.97,-0.17,-0.23,-0.14
286,-1.07,0.15,6.97,-0.14,-0.10,-0.16
292,-1.15,0.08,10.00,-0.14,-0.10,-0.16
296,-1.15,0.08,10.00,-0.11,0.12,-0.15
301,-1.15,0.08,10.00,-0.10,0.16,-0.14
307,0.50,-0.19,8.96,-0.10,0.16,-0.14
311,0.50,-0.19,8.96,-0.13,0.11,-0.15
317,0.50,-0.19,8.96,-0.10,0.07,-0.16
321,0.50,-0.19,8.96,-0.12,0.04,-0.15
327,-0.50,-1.95,9.61,-0.12,0.04,-0.15
332,-0.50,-1.95,9.61,-0.07,0.08,-0.08
336,-0.50,-1.95,9.61,-0.06,0.09,-0.00
342,-3.10,3.26,7.21,-0.06,0.09,-0.00
346,-3.10,3.26,7.21,-0.14,0.15,-0.02
351,-3.10,3.26,7.21,-0.19,0.12,-0.08
357,-3.10,3.26,7.21,-0.19,0.06,-0.14
362,1.76,-2.76,10.50,-0.19,0.06,-0.14
367,1.76,-2.76,10.50,-0.12,-0.11,-0.01
371,1.76,-2.76,10.50,-0.09,-0.10,0.05
377,-1.88,-1.57,9.04,-0.09,-0.10,0.05
381,-1.88,-1.57,9.04,-0.09,-0.05,0.00
386,-1.88,-1.57,9.04,-0.07,-0.01,0.02
392,-1.88,-1.57,9.04,-0.07,-0.04,0.10
397,1.61,-2.41,9.73,-0.07,-0.04,0.10
401,1.61,-2.41,9.73,-0.07,-0.17,0.19
406,1.61,-2.41,9.73,-0.07,-0.19,0.17
412,1.38,-1.42,9.92,-0.07,-0.19,0.17
416,1.38,-1.42,9.92,-0.03,-0.06,0.22
421,1.38,-1.42,9.92,-0.05,0.08,0.28
427,1.38,-1.42,9.92,-0.03,0.16,0.30
432,-0.61,-1.23,11.15,-0.03,0.16,0.30
437,-0.61,-1.23,11.15,-0.03,0.17,0.25
441,-0.61,-1.23,11.15,-0.05,0.13,0.21
447,-0.96,-0.50,9.50,-0.05,0.13,0.21
451,-0.96,-0.50,9.50,-0.09,-0.02,0.19
456,-0.96,-0.50,9.50,-0.10,-0.10,0.18
462,-0.96,-0.50,9.50,-0.09,-0.15,0.21
467,1.76,-2.45,8.77,-0.09,-0.15,0.21
471,1.76,-2.45,8.77,-0.11,-0.15,0.21
476,1.76,-2.45,8.77,-0.08,-0.07,0.19
482,-1.23,0.57,9.65,-0.08,-0.07,0.19
486,-1.23,0.57,9.65,-0.06,0.08,0.15
491,-1.23,0.57,9.65,-0.05,0.08,0.13
497,-1.23,0.57,9.65,-0.08,0.06,0.13
501,-1.23,0.57,9.65,-0.09,-0.00,0.13
506,-1.23,0.57,9.65,-0.11,-0.07,0.11
512,-1.23,0.57,9.65,-0.11,-0.08,0.09
517,1.38,-1.84,8.74,-0.11,-0.08,0.09
522,1.38,-1.84,8.74,-0.08,-0.06,0.12
526,1.38,-1.84,8.74,-0.08,0.02,0.13
532,1.38,-1.84,8.74,-0.07,0.07,0.13
536,1.38,-1.84,8.74,-0.07,0.10,0.11
541,1.38,-1.84,8.74,-0.11,0.06,0.10
547,1.38,-1.84,8.74,-0.15,-0.02,0.11
552,4.86,-0.50,12.76,-0.15,-0.02,0.11
557,4.86,-0.50,12.76,-0.16,-0.16,0.11
561,4.86,-0.50,12.76,-0.15,-0.13,0.12
567,-0.11,-1.49,10.31,-0.15,-0.13,0.12
571,-0.11,-1.49,10.31,-0.06,0.07,0.17
577,-0.11,-1.49,10.31,-0.04,0.17,0.17
582,-0.11,-1.49,10.31,-0.06,0.21,0.13
587,-1.91,0.73,9.27,-0.06,0.21,0.13
592,-1.91,0.73,9.27,-0.14,0.13,0.00
596,-1.91,0.73,9.27,-0.16,0.02,-0.04
602,1.49,0.23,7.01,-0.16,0.02,-0.04
606,1.49,0.23,7.01,-0.21,-0.18,-0.01
611,1.49,0.23,7.01,-0.24,-0.22,-0.01
617,1.49,0.23,7.01,-0.26,-0.22,-0.05
622,2.30,0.54,12.22,-0.26,-0.22,-0.05
627,2.30,0.54,12.22,-0.26,-0.12,-0.16
631,2.30,0.54,12.22,-0.22,-0.06,-0.18
637,0.92,-0.30,11.07,-0.22,-0.06,-0.18
642,0.92,-0.30,11.07,-0.14,0.09,-0.12
646,0.92,-0.30,11.07,-0.16,0.15,-0.12
651,0.92,-0.30,11.07,-0.15,0.15,-0.15
657,1.80,0.27,9.20,-0.15,0.15,-0.15
661,1.80,0.27,9.20,-0.21,0.04,-0.24
667,1.80,0.27,9.20,-0.22,-0.01,-0.25
672,1.91,-0.57,11.03,-0.22,-0.01,-0.25
677,1.91,-0.57,11.03,-0.21,0.05,-0.21
681,1.91,-0.57,11.03,-0.18,0.14,-0.21
686,1.91,-0.57,11.03,-0.16,0.22,-0.24
692,-1.57,2.30,8.78,-0.16,0.22,-0.24
696,-1.57,2.30,8.78,-0.16,0.21,-0.25
701,-1.57,2.30,8.78,-0.21,0.12,-0.24
707,-1.57,2.30,8.78,-0.23,0.02,-0.25
711,-1.57,2.30,8.78,-0.26,-0.06,-0.26
716,-1.57,2.30,8.78,-0.25,-0.13,-0.26
722,0.15,0.30,7.85,-0.25,-0.13,-0.26
727,0.88,0.34,11.41,-0.25,-0.13,-0.26
731,0.88,0.34,11.41,-0.22,-0.16,-0.19
737,0.88,0.34,11.41,-0.21,-0.14,-0.17
742,2.26,-0.65,10.30,-0.21,-0.14,-0.17
746,2.26,-0.65,10.30,-0.16,-0.04,-0.15
751,2.26,-0.65,10.30,-0.15,0.00,-0.14
757,2.30,-0.46,8.58,-0.15,0.00,-0.14
761,2.30,-0.46,8.58,-0.12,0.05,-0.12
766,2.30,-0.46,8.58,-0.12,0.10,-0.11
771,2.30,-0.46,8.58,-0.13,0.12,-0.11
777,0.11,-0.38,10.91,-0.13,0.12,-0.11
781,0.11,-0.38,10.91,-0.17,0.12,-0.16
786,0.11,-0.38,10.91,-0.16,0.11,-0.18
792,0.11,-0.38,10.91,-0.15,0.11,-0.16
797,-0.73,-2.38,10.34,-0.15,0.11,-0.16
801,-0.73,-2.38,10.34,-0.10,0.07,-0.08
807,-0.73,-2.38,10.34,-0.11,-0.02,-0.04
812,1.53,-2.72,7.47,-0.11,-0.02,-0.04
817,1.53,-2.72,7.47,-0.09,-0.12,-0.04
822,1.53,-2.72,7.47,-0.08,-0.11,-0.03
827,1.53,-2.72,7.47,-0.09,-0.08,-0.02
832,1.53,-2.72,7.47,-0.08,-0.01,-0.03
836,1.53,-2.72,7.47,-0.08,0.06,-0.05
842,1.53,-2.72,7.47,-0.08,0.11,-0.06
847,-0.96,-2.07,10.35,-0.08,0.11,-0.06
851,-0.96,-2.07,10.35,-0.09,0.10,-0.08
856,-0.96,-2.07,10.35,-0.10,0.05,-0.07
862,-0.23,-1.04,5.82,-0.10,0.05,-0.07
867,-0.23,-1.04,5.82,-0.10,-0.12,-0.04
871,-0.23,-1.04,5.82,-0.11,-0.20,-0.00
876,-0.23,-1.04,5.82,-0.12,-0.26,0.02
882,3.95,-0.61,12.87,-0.12,-0.26,0.02
886,3.95,-0.61,12.87,-0.14,-0.27,0.05
892,3.95,-0.61,12.87,-0.07,-0.20,0.06
897,2.14,-3.41,14.60,-0.07,-0.20,0.06
901,2.14,-3.41,14.60,0.03,0.04,0.13
906,2.14,-3.41,14.60,0.06,0.15,0.18
911,0.15,-1.88,12.18,0.06,0.15,0.18
917,0.54,-1.91,10.65,0.06,0.15,0.18
921,0.54,-1.91,10.65,0.07,0.43,0.12
927,0.54,-1.91,10.65,0.05,0.46,0.07
932,-4.33,-0.27,2.11,0.05,0.46,0.07
936,-4.33,-0.27,2.11,-0.02,0.39,0.00
941,-4.33,-0.27,2.11,-0.07,0.31,-0.02
947,-4.33,-0.27,2.11,-0.13,0.13,-0.03
951,-4.33,-0.27,2.11,-0.22,-0.10,-0.06
956,-4.33,-0.27,2.11,-0.25,-0.35,-0.09
962,-4.33,-0.27,2.11,-0.30,-0.55,-0.08
967,-4.33,-0.27,2.11,-0.27,-0.64,-0.07
971,-4.33,-0.27,2.11,-0.23,-0.62,-0.01
976,-4.33,-0.27,2.11,-0.13,-0.51,0.05
981,0.73,-1.88,13.67,-0.13,-0.51,0.05
987,-0.77,-1.95,12.60,-0.13,-0.51,0.05
991,-0.77,-1.95,12.60,0.01,0.05,0.07
997,-0.77,-1.95,12.60,0.00,0.14,0.00
1001,-0.77,-1.95,12.60,-0.05,0.19,-0.07
1006,-0.77,-1.95,12.60,-0.07,0.21,-0.10
1011,-0.77,-1.95,12.60,-0.09,0.21,-0.11
1017,3.07,-0.11,10.57,-0.09,0.21,-0.11
1021,3.07,-0.11,10.57,-0.14,0.30,-0.12
1026,3.07,-0.11,10.57,-0.14,0.37,-0.17
1031,3.07,-0.11,10.57,-0.12,0.43,-0.22
1037,-2.11,1.19,9.77,-0.12,0.43,-0.22
1042,-2.11,1.19,9.77,-0.10,0.47,-0.22
1047,-2.11,1.19,9.77,-0.08,0.38,-0.17
1051,-2.11,1.19,9.77,-0.09,0.25,-0.13
1056,-2.11,1.19,9.77,-0.11,0.11,-0.13
1061,-2.11,1.19,9.77,-0.11,0.01,-0.15
1067,-2.11,1.19,9.77,-0.13,-0.03,-0.17
1071,-2.11,1.19,9.77,-0.14,-0.02,-0.19
1076,-2.11,1.19,9.77,-0.18,-0.02,-0.21
1081,-2.11,1.19,9.77,-0.19,-0.08,-0.23
1087,-2.11,1.19,9.77,-0.19,-0.14,-0.24
1091,-2.11,1.19,9.77,-0.17,-0.17,-0.24
1096,-2.11,1.19,9.77,-0.16,-0.16,-0.22
1101,-2.11,1.19,9.77,-0.18,-0.17,-0.19
1107,4.14,-0.73,7.70,-0.18,-0.17,-0.19
1111,4.14,-0.73,7.70,-0.18,-0.23,-0.16
1116,4.14,-0.73,7.70,-0.18,-0.26,-0.14
1122,7.66,-1.04,10.11,-0.18,-0.26,-0.14
1126,7.66,-1.04,10.11,-0.15,-0.12,-0.09
1131,7.66,-1.04,10.11,-0.12,0.08,-0.11
1137,7.66,-1.04,10.11,-0.11,0.31,-0.16
1141,7.66,-1.04,10.11,-0.08,0.52,-0.21
1146,7.66,-1.04,10.11,-0.04,0.68,-0.23
1151,7.66,-1.04,10.11,-0.03,0.77,-0.22
1157,-2.64,-1.34,9.65,-0.03,0.77,-0.22
1161,-2.64,-1.34,9.65,-0.08,0.57,-0.19
1166,-2.64,-1.34,9.65,-0.14,0.33,-0.20
1172,2.95,-0.77,5.52,-0.14,0.33,-0.20
1176,2.95,-0.77,5.52,-0.19,-0.19,-0.21
1181,2.95,-0.77,5.52,-0.19,-0.36,-0.18
1186,2.95,-0.77,5.52,-0.20,-0.45,-0.13
1192,0.00,0.88,9.46,-0.20,-0.45,-0.13
1196,0.00,0.88,9.46,-0.15,-0.27,-0.09
1201,0.00,0.88,9.46,-0.12,-0.09,-0.12
1207,0.00,0.88,9.46,-0.14,0.06,-0.17
1211,0.00,0.88,9.46,-0.12,0.14,-0.21
1216,0.00,0.88,9.46,-0.14,0.15,-0.23
1221,0.00,0.88,9.46,-0.12,0.12,-0.24
1227,0.00,0.88,9.46,-0.12,0.08,-0.26
1231,0.00,0.88,9.46,-0.14,0.03,-0.25
1236,0.00,0.88,9.46,-0.15,-0.03,-0.27
1242,1.46,0.15,9.39,-0.15,-0.03,-0.27
1246,1.46,0.15,9.39,-0.18,-0.13,-0.31
1251,1.46,0.15,9.39,-0.18,-0.15,-0.32
1257,1.46,0.15,9.39,-0.16,-0.13,-0.30
1261,1.46,0.15,9.39,-0.12,-0.10,-0.26
1266,1.46,0.15,9.39,-0.09,-0.02,-0.24
1271,1.46,0.15,9.39,-0.08,0.02,-0.23
1277,2.99,-1.65,9.61,-0.08,0.02,-0.23
1281,2.99,-1.65,9.61,-0.10,0.01,-0.26
1286,2.99,-1.65,9.61,-0.11,0.00,-0.28
1292,2.99,-1.65,9.61,-0.11,0.04,-0.30
1296,2.99,-1.65,9.61,-0.11,0.11,-0.33
1301,2.99,-1.65,9.61,-0.11,0.18,-0.35
1306,2.99,-1.65,9.61,-0.09,0.20,-0.34
1312,0.80,-0.19,10.53,-0.09,0.20,-0.34
1316,0.80,-0.19,10.53,-0.11,0.11,-0.30
1321,0.80,-0.19,10.53,-0.11,0.04,-0.30
1327,0.80,-0.19,10.53,-0.11,-0.03,-0.31
1331,0.80,-0.19,10.53,-0.10,-0.05,-0.33
1336,0.80,-0.19,10.53,-0.06,-0.04,-0.31
1341,0.80,-0.19,10.53,-0.05,-0.02,-0.27
1347,0.80,-0.19,10.53,-0.04,-0.01,-0.22
1351,0.80,-0.19,10.53,-0.04,-0.03,-0.20
1356,0.80,-0.19,10.53,-0.05,-0.05,-0.20
1361,0.80,-0.19,10.53,-0.08,-0.07,-0.24
1367,0.34,0.15,8.39,-0.08,-0.07,-0.24
1371,0.34,0.15,8.39,-0.10,-0.08,-0.36
1376,0.34,0.15,8.39,-0.09,-0.08,-0.35
1382,1.91,-2.91,12.56,-0.09,-0.08,-0.35
1386,1.91,-2.91,12.56,-0.05,-0.07,-0.24
1391,1.91,-2.91,12.56,-0.05,-0.05,-0.21
1397,1.91,-2.91,12.56,-0.01,-0.01,-0.23
1401,1.91,-2.91,12.56,0.02,0.08,-0.26
1406,1.91,-2.91,12.56,0.05,0.18,-0.25
1411,1.91,-2.91,12.56,0.06,0.26,-0.21
1417,-1.84,-0.08,9.80,0.06,0.26,-0.21
1422,-1.84,-0.08,9.80,0.04,0.32,-0.18
1426,-0.57,-1.38,8.01,0.04,0.32,-0.18
1431,-0.57,-1.38,8.01,-0.00,0.17,-0.25
1436,-0.57,-1.38,8.01,0.00,0.06,-0.28
1441,-0.57,-1.38,8.01,-0.01,-0.06,-0.23
1447,-0.57,-1.38,8.01,0.01,-0.15,-0.17
1451,-0.57,-1.38,8.01,-0.02,-0.22,-0.12
1456,-0.57,-1.38,8.01,-0.02,-0.23,-0.13
1461,-0.57,-1.38,8.01,-0.00,-0.21,-0.17
1467,-0.57,-1.38,8.01,0.05,-0.10,-0.19
1471,-0.57,-1.38,8.01,0.07,0.04,-0.19
1476,-0.57,-1.38,8.01,0.10,0.14,-0.14
1481,-0.57,-1.38,8.01,0.11,0.18,-0.11
1487,-0.57,-1.38,8.01,0.13,0.17,-0.11
1491,-0.57,-1.38,8.01,0.09,0.12,-0.12
1497,-0.57,-1.38,8.01,0.08,0.04,-0.17
1501,-0.57,-1.38,8.01,0.04,-0.05,-0.20
1506,-0.57,-1.38,8.01,0.02,-0.08,-0.21
1511,-0.57,-1.38,8.01,0.03,-0.01,-0.22
1517,-0.57,-1.38,8.01,0.03,0.07,-0.22
1521,-0.57,-1.38,8.01,0.04,0.13,-0.22
1526,-0.57,-1.38,8.01,0.05,0.12,-0.21
1531,-0.57,-1.38,8.01,0.04,0.04,-0.20
1537,4.83,-1.34,9.42,0.04,0.04,-0.20
1542,4.83,-1.34,9.42,0.04,-0.15,-0.18
1546,2.07,-1.27,7.78,0.04,-0.15,-0.18
1551,1.65,0.54,9.88,0.04,-0.15,-0.18
1556,1.65,0.54,9.88,0.06,-0.04,-0.21
1561,1.65,0.54,9.88,0.08,0.04,-0.20
1567,1.65,0.54,9.88,0.09,0.13,-0.20
1572,1.65,0.54,9.88,0.10,0.20,-0.21
1576,0.08,0.11,11.26,0.10,0.20,-0.21
1581,0.08,0.11,11.26,0.08,0.22,-0.26
1587,0.08,0.11,11.26,0.06,0.16,-0.31
1591,0.08,0.11,11.26,0.04,0.09,-0.32
1596,0.08,0.11,11.26,0.03,-0.01,-0.29
1601,0.08,0.11,11.26,0.03,-0.09,-0.26
1607,0.08,0.11,11.26,0.05,-0.13,-0.25
1611,0.08,0.11,11.26,0.05,-0.12,-0.25
1616,0.08,0.11,11.26,0.05,-0.11,-0.25
1621,0.08,0.11,11.26,0.06,-0.11,-0.23
1627,1.95,0.08,9.31,0.06,-0.11,-0.23
1632,1.95,0.08,9.31,0.05,-0.16,-0.20
1636,6.17,-0.04,11.80,0.05,-0.16,-0.20
1641,6.17,-0.04,11.80,0.05,-0.25,-0.20
1646,6.17,-0.04,11.80,0.07,-0.22,-0.20
1651,6.17,-0.04,11.80,0.10,-0.11,-0.21
1657,6.17,-0.04,11.80,0.10,0.00,-0.21
1662,6.17,-0.04,11.80,0.13,0.09,-0.20
1666,1.04,-1.04,12.99,0.13,0.09,-0.20
1671,0.04,-0.27,11.15,0.13,0.09,-0.20
1676,0.04,-0.27,11.15,0.15,0.27,-0.18
1681,0.04,-0.27,11.15,0.13,0.28,-0.22
1687,0.04,-0.27,11.15,0.12,0.24,-0.27
1692,0.04,-0.27,11.15,0.12,0.17,-0.30
1696,-0.38,-0.50,6.25,0.12,0.17,-0.30
1701,-1.42,-0.34,5.86,0.12,0.17,-0.30
1707,-1.42,-0.34,5.86,0.13,-0.10,-0.14
1711,-1.42,-0.34,5.86,0.13,-0.14,-0.13
1716,-1.42,-0.34,5.86,0.12,-0.17,-0.15
1721,-1.42,-0.34,5.86,0.13,-0.19,-0.18
1726,-1.42,-0.34,5.86,0.15,-0.19,-0.16
1731,1.49,-1.99,10.45,0.15,-0.19,-0.16
1737,1.49,-1.99,10.45,0.20,-0.17,-0.02
1742,1.49,-1.99,10.45,0.20,-0.14,0.02
1747,1.49,-1.99,10.45,0.20,-0.12,0.00
1751,1.61,-0.27,10.50,0.20,-0.12,0.00
1756,2.34,-2.18,11.45,0.20,-0.12,0.00
1761,2.34,-2.18,11.45,0.20,-0.00,-0.06
1766,2.34,-2.18,11.45,0.21,0.02,-0.04
1772,2.34,-2.18,11.45,0.22,0.05,-0.01
1777,1.57,-1.27,11.50,0.22,0.05,-0.01
1781,-0.42,-1.15,9.23,0.22,0.05,-0.01
1786,-0.73,-1.11,9.20,0.22,0.05,-0.01
1792,-0.73,-1.11,9.20,0.23,0.11,0.04
1797,-0.73,-1.11,9.20,0.23,0.11,0.03
1801,-0.65,-0.65,7.86,0.23,0.11,0.03
1806,1.49,-1.46,9.31,0.23,0.11,0.03
1812,1.49,-1.46,9.31,0.24,-0.05,0.14
1817,1.49,-1.46,9.31,0.25,-0.12,0.18
1821,0.42,-0.73,8.23,0.25,-0.12,0.18
1826,0.80,-1.88,9.31,0.25,-0.12,0.18
1832,0.80,-1.88,9.31,0.24,-0.18,0.16
1836,1.07,-2.41,9.27,0.24,-0.18,0.16
1841,0.77,-1.99,9.80,0.24,-0.18,0.16
1847,0.77,-1.99,9.80,0.24,-0.10,0.18
1852,0.77,-1.99,9.80,0.27,-0.07,0.19
1856,0.15,-1.99,10.73,0.27,-0.07,0.19
1861,1.00,-1.30,9.73,0.27,-0.07,0.19
1867,1.00,-1.30,9.73,0.23,0.02,0.14
1872,1.00,-1.30,9.73,0.25,-0.01,0.13
1876,0.57,-1.80,10.91,0.25,-0.01,0.13
1881,2.41,-1.76,10.73,0.25,-0.01,0.13
1886,2.41,-1.76,10.73,0.22,-0.11,0.17
1891,2.41,-1.76,10.73,0.24,-0.14,0.16
1897,2.41,-1.76,10.73,0.24,-0.15,0.16
1902,2.41,-1.76,10.73,0.25,-0.13,0.18
1906,2.91,-1.00,9.58,0.25,-0.13,0.18
1911,1.99,-1.42,8.36,0.25,-0.13,0.18
1917,1.99,-1.42,8.36,0.21,-0.00,0.14
1922,1.99,-1.42,8.36,0.20,0.04,0.10
1926,0.46,-1.46,9.96,0.20,0.04,0.10
1931,0.54,-1.72,10.03,0.20,0.04,0.10
1936,0.54,-1.72,10.03,0.21,0.05,0.10
1941,0.54,-1.72,10.03,0.20,0.00,0.11
1947,0.54,-1.72,10.03,0.20,-0.05,0.12
1952,0.54,-1.72,10.03,0.18,-0.07,0.11
1956,1.19,-0.84,10.30,0.18,-0.07,0.11
1961,0.46,-1.07,9.20,0.18,-0.07,0.11
1967,0.46,-1.07,9.20,0.19,-0.06,0.13
1972,0.46,-1.07,9.20,0.21,-0.04,0.16
1976,-0.69,-0.27,8.66,0.21,-0.04,0.16
1981,-0.30,0.27,8.77,0.21,-0.04,0.16
1987,-0.30,0.27,8.77,0.21,0.04,0.19
1991,0.46,-0.11,8.74,0.21,0.04,0.19
1996,0.54,0.19,7.70,0.21,0.04,0.19
2001,-0.04,-0.77,8.70,0.21,0.04,0.19
2007,-0.04,-0.77,8.70,0.15,-0.10,0.20
2012,-0.04,-0.77,8.70,0.14,-0.14,0.22
2017,1.76,-2.34,10.84,0.14,-0.14,0.22
2021,0.73,-1.72,9.50,0.14,-0.14,0.22
2026,0.84,-1.46,9.69,0.14,-0.14,0.22
2031,0.84,-1.46,9.69,0.20,-0.10,0.30
2037,0.84,-1.46,9.69,0.21,-0.04,0.31
2042,0.84,-1.46,9.69,0.21,0.01,0.31
2046,2.45,-2.22,10.80,0.21,0.01,0.31
2051,1.95,-1.68,12.26,0.21,0.01,0.31
2057,1.95,-1.68,12.26,0.15,-0.05,0.30
2061,1.72,-1.84,12.03,0.15,-0.05,0.30
2066,1.88,-3.07,11.72,0.15,-0.05,0.30
2072,1.88,-3.07,11.72,0.18,-0.07,0.29
2077,1.88,-3.07,11.72,0.15,-0.06,0.30
2081,4.60,-2.61,10.84,0.15,-0.06,0.30
2086,2.68,-1.34,11.30,0.15,-0.06,0.30
2092,2.68,-1.34,11.30,0.18,-0.04,0.34
2096,-1.34,-1.61,12.95,0.18,-0.04,0.34
2101,-3.41,-0.34,11.68,0.18,-0.04,0.34
2107,-4.25,-0.15,9.96,0.18,-0.04,0.34
2111,-2.22,-1.30,8.23,0.18,-0.04,0.34
2116,-0.42,-0.27,7.66,0.18,-0.04,0.34
2121,-0.42,-0.27,7.66,0.14,0.20,0.22
2127,-0.42,-0.27,7.66,0.13,0.03,0.25
2132,-0.42,-0.27,7.66,0.08,-0.14,0.29
2136,1.72,-0.04,6.17,0.08,-0.14,0.29
2141,1.42,0.04,8.92,0.08,-0.14,0.29
2147,1.42,0.04,8.92,0.06,-0.30,0.24
2151,1.68,-0.38,12.64,0.06,-0.30,0.24
2156,0.96,-0.50,11.60,0.06,-0.30,0.24
2162,0.96,-0.50,11.60,0.10,-0.04,0.30
2166,-1.72,0.46,11.68,0.10,-0.04,0.30
2171,-0.84,-0.42,11.00,0.10,-0.04,0.30
2177,0.65,-0.50,11.45,0.10,-0.04,0.30
2181,2.22,-2.18,9.54,0.10,-0.04,0.30
2186,2.30,-1.11,8.88,0.10,-0.04,0.30
2191,2.57,-1.46,7.97,0.10,-0.04,0.30
2197,2.57,-1.46,7.97,0.02,-0.03,0.19
2201,3.64,-0.08,10.11,0.02,-0.03,0.19
2206,2.72,-0.80,11.53,0.02,-0.03,0.19
2212,2.72,-0.80,11.53,0.03,-0.02,0.18
2216,0.65,-0.69,9.54,0.03,-0.02,0.18
2221,-1.23,-0.19,8.39,0.03,-0.02,0.18
2226,0.65,-0.30,9.46,0.03,-0.02,0.18
2232,0.65,-0.30,9.46,0.04,0.24,0.14
2236,-2.72,0.46,8.12,0.04,0.24,0.14
2241,-2.80,0.34,8.28,0.04,0.24,0.14
2247,-2.30,1.27,8.23,0.04,0.24,0.14
2251,-1.46,0.61,9.42,0.04,0.24,0.14
2256,-0.73,-0.80,8.77,0.04,0.24,0.14
2261,0.92,0.23,7.85,0.04,0.24,0.14
2266,2.61,-0.27,7.27,0.04,0.24,0.14
2272,2.61,-0.27,7.27,-0.09,-0.24,-0.04
2277,5.48,-1.00,8.74,-0.09,-0.24,-0.04
2281,0.19,0.00,9.12,-0.09,-0.24,-0.04
2286,-1.11,0.34,12.30,-0.09,-0.24,-0.04
2291,-1.11,0.34,12.30,-0.07,-0.05,-0.05
2297,-1.11,0.34,12.30,-0.06,0.13,-0.11
2301,-0.73,-0.15,12.03,-0.06,0.13,-0.11
2306,0.23,-0.27,11.34,-0.06,0.13,-0.11
2312,0.23,-0.27,11.34,0.01,0.38,-0.12
2317,0.23,-0.27,11.34,0.00,0.34,-0.08
2321,2.99,0.15,6.55,0.00,0.34,-0.08
2326,2.61,0.15,7.13,0.00,0.34,-0.08
2332,1.84,0.77,7.78,0.00,0.34,-0.08
2336,2.22,1.42,9.16,0.00,0.34,-0.08
2341,2.03,0.80,10.84,0.00,0.34,-0.08
2347,1.19,0.61,10.23,0.00,0.34,-0.08
2351,0.92,0.00,10.30,0.00,0.34,-0.08
2356,0.19,0.96,9.93,0.00,0.34,-0.08
2361,-0.80,-0.65,8.77,0.00,0.34,-0.08
2367,0.30,-1.30,9.85,0.00,0.34,-0.08
2372,-1.11,-0.57,7.43,0.00,0.34,-0.08
2376,-1.11,-0.57,7.43,-0.07,0.00,-0.11
2381,2.53,-1.00,9.20,-0.07,0.00,-0.11
2387,2.76,-0.69,9.27,-0.07,0.00,-0.11
2391,1.72,-0.04,10.39,-0.07,0.00,-0.11
2396,0.19,-0.08,9.65,-0.07,0.00,-0.11
2401,0.42,-0.27,9.43,-0.07,0.00,-0.11
2407,0.42,-0.27,9.43,-0.04,-0.03,-0.07
2412,2.30,-0.46,10.91,-0.04,-0.03,-0.07
2416,5.05,-1.61,11.80,-0.04,-0.03,-0.07
2421,3.87,-1.91,10.80,-0.04,-0.03,-0.07
2426,3.26,-0.73,10.88,-0.04,-0.03,-0.07
2431,2.45,-0.73,10.84,-0.04,-0.03,-0.07
2437,0.88,-0.04,9.80,-0.04,-0.03,-0.07
2441,-1.04,-0.88,10.41,-0.04,-0.03,-0.07
2446,-1.11,-0.42,12.06,-0.04,-0.03,-0.07
2452,0.61,-1.61,11.00,-0.04,-0.03,-0.07
2456,0.38,-2.03,9.23,-0.04,-0.03,-0.07
2461,-0.27,-1.42,8.78,-0.04,-0.03,-0.07
2467,-0.04,-1.42,7.89,-0.04,-0.03,-0.07
2471,-0.08,-1.07,6.09,-0.04,-0.03,-0.07
2476,0.65,-0.38,5.32,-0.04,-0.03,-0.07
2481,-1.15,-0.19,7.51,-0.04,-0.03,-0.07
2487,-0.50,-1.19,6.29,-0.04,-0.03,-0.07
2491,2.07,-1.00,9.85,-0.04,-0.03,-0.07
2496,1.61,-1.49,9.80,-0.04,-0.03,-0.07
2501,-0.04,-0.80,13.79,-0.04,-0.03,-0.07
2507,1.57,-1.68,11.57,-0.04,-0.03,-0.07
2512,0.73,-0.38,11.80,-0.04,-0.03,-0.07
2516,0.73,-0.38,11.80,0.05,0.00,0.04
2521,0.73,-0.38,11.80,0.05,0.02,0.04
2526,3.18,-1.42,10.57,0.05,0.02,0.04
2531,1.72,-2.53,9.84,0.05,0.02,0.04
2537,0.19,-1.76,10.46,0.05,0.02,0.04
2541,-1.15,-0.15,10.04,0.05,0.02,0.04
2546,-1.42,-1.04,9.30,0.05,0.02,0.04
2551,-2.26,-0.57,9.00,0.05,0.02,0.04
2557,-1.84,-0.65,8.20,0.05,0.02,0.04
2561,1.11,-0.54,7.47,0.05,0.02,0.04
2566,0.84,-0.80,7.09,0.05,0.02,0.04
2572,1.19,-1.04,6.40,0.05,0.02,0.04
2576,0.54,-0.08,6.75,0.05,0.02,0.04
2581,0.88,-1.07,8.32,0.05,0.02,0.04
2586,1.95,-0.30,11.15,0.05,0.02,0.04
2592,1.65,-1.23,10.54,0.05,0.02,0.04
2597,-1.07,-0.46,9.69,0.05,0.02,0.04
2601,-1.07,-0.46,9.69,0.07,-0.07,0.14
2606,0.65,-1.30,9.96,0.07,-0.07,0.14
2611,2.03,-1.30,11.34,0.07,-0.07,0.14
2616,2.11,-0.84,9.80,0.07,-0.07,0.14
2621,2.99,-0.77,10.41,0.07,-0.07,0.14
2627,1.88,-1.46,9.65,0.07,-0.07,0.14
2632,0.46,-0.77,8.39,0.07,-0.07,0.14
2636,0.46,-0.77,8.39,0.05,0.09,0.07
2641,0.46,-0.77,8.39,0.04,0.12,0.06
2646,1.07,-1.00,10.34,0.04,0.12,0.06
2651,1.95,-1.53,11.03,0.04,0.12,0.06
2656,0.30,-0.27,9.96,0.04,0.12,0.06
2662,0.00,-0.50,8.50,0.04,0.12,0.06
2667,-0.69,-0.15,8.16,0.04,0.12,0.06
2671,-0.69,-0.15,8.16,0.05,0.05,0.10
2676,1.19,-1.61,9.34,0.05,0.05,0.10
2681,1.30,-1.30,10.53,0.05,0.05,0.10
2686,1.19,-1.68,8.77,0.05,0.05,0.10
2691,0.50,-0.88,8.96,0.05,0.05,0.10
2697,-0.04,0.11,9.16,0.05,0.05,0.10
2701,0.84,0.77,9.00,0.05,0.05,0.10
2706,2.26,-0.08,10.03,0.05,0.05,0.10
2712,1.80,-0.38,9.12,0.05,0.05,0.10
2717,1.95,-0.50,8.84,0.05,0.05,0.10
2721,1.95,-0.50,8.84,0.03,-0.03,0.07
2726,1.04,-0.61,9.12,0.03,-0.03,0.07
2731,-0.69,-0.96,9.23,0.03,-0.03,0.07
2737,-0.69,-0.69,8.50,0.03,-0.03,0.07
2741,-0.69,-0.69,8.50,0.01,0.03,0.09
2746,1.65,-1.11,8.96,0.01,0.03,0.09
2751,2.26,-1.04,12.14,0.01,0.03,0.09
2756,3.98,-1.91,10.88,0.01,0.03,0.09
2761,3.83,-1.38,11.00,0.01,0.03,0.09
2767,1.91,-1.15,10.15,0.01,0.03,0.09
2772,0.92,-0.34,10.03,0.01,0.03,0.09
2776,0.92,-0.34,10.03,0.08,0.06,0.15
2781,0.92,-0.34,10.03,0.07,0.12,0.14
2786,-0.27,-0.30,10.11,0.07,0.12,0.14
2791,0.00,-1.68,11.07,0.07,0.12,0.14
2797,0.77,-0.96,9.73,0.07,0.12,0.14
2802,0.57,-0.54,6.62,0.07,0.12,0.14
2806,0.57,-0.54,6.62,0.04,-0.06,0.16
2811,0.57,-0.54,6.62,0.02,-0.15,0.16
2816,2.95,0.57,9.58,0.02,-0.15,0.16
2821,2.41,0.38,8.84,0.02,-0.15,0.16
2826,1.57,-1.04,9.12,0.02,-0.15,0.16
2834,-0.11,-0.34,10.73,0.02,-0.15,0.16
2837,-0.84,-0.73,10.39,0.02,-0.15,0.16
2841,-0.84,-0.73,10.39,0.05,0.05,0.12
2846,-0.15,-1.19,8.81,0.05,0.05,0.12
2852,-0.23,-2.07,10.46,0.05,0.05,0.12
2857,3.10,-1.38,13.57,0.05,0.05,0.12
2861,3.10,-1.38,13.57,0.04,-0.02,0.18
2867,1.61,-1.49,12.26,0.04,-0.02,0.18
2872,3.45,-1.88,12.79,0.04,-0.02,0.18
2876,3.45,-1.88,12.79,0.08,0.03,0.22
2881,3.45,-1.88,12.79,0.10,0.09,0.25
2886,-0.46,-0.92,10.77,0.10,0.09,0.25
2892,-0.80,-0.54,10.23,0.10,0.09,0.25
2896,-0.80,-0.54,10.23,0.14,0.36,0.27
2902,-0.80,-0.54,10.23,0.12,0.36,0.26
2907,-1.65,0.73,8.16,0.12,0.36,0.26
2911,-1.65,0.73,8.16,0.07,0.25,0.20
2916,-1.65,0.73,8.16,0.04,0.14,0.19
2921,-0.57,0.27,6.16,0.04,0.14,0.19
2927,-1.49,0.30,6.63,0.04,0.14,0.19
2931,-1.49,0.30,6.63,-0.04,-0.15,0.14
2936,0.50,-0.84,9.00,-0.04,-0.15,0.14
2941,-0.92,-1.15,8.84,-0.04,-0.15,0.14
2947,-0.42,-1.46,9.12,-0.04,-0.15,0.14
2952,-0.42,-1.46,9.12,0.00,-0.10,0.13
2956,0.38,-0.50,9.92,0.00,-0.10,0.13
2962,-0.27,-0.34,8.54,0.00,-0.10,0.13
2966,-0.27,-0.34,8.54,0.02,0.07,0.15
2971,1.00,-0.50,9.27,0.02,0.07,0.15
2977,2.03,-0.15,8.77,0.02,0.07,0.15
2981,2.03,-0.15,8.77,-0.03,0.07,0.13
2987,2.03,-0.50,8.73,-0.03,0.07,0.13
2992,3.07,-0.80,10.15,-0.03,0.07,0.13
2996,3.07,-0.80,10.15,-0.01,0.05,0.17
3001,3.07,-0.80,10.15,0.00,0.06,0.20
3006,3.07,-0.80,10.15,0.01,0.09,0.21
3011,-0.04,0.04,9.42,0.01,0.09,0.21
3017,-0.04,0.04,9.42,0.03,0.14,0.19
3023,-1.57,-0.11,9.16,0.03,0.14,0.19
3027,0.00,-0.11,10.03,0.03,0.14,0.19
3031,0.00,-0.11,10.03,-0.01,0.17,0.17
3036,0.00,-0.11,10.03,-0.04,0.07,0.16
3041,2.87,-0.50,7.31,-0.04,0.07,0.16
3047,3.64,-0.34,7.23,-0.04,0.07,0.16
3051,3.64,-0.34,7.23,-0.11,-0.23,0.09
3056,2.61,-1.19,8.28,-0.11,-0.23,0.09
3061,1.30,-0.42,9.42,-0.11,-0.23,0.09
3067,1.49,-0.38,11.07,-0.11,-0.23,0.09
3072,1.49,-0.38,11.07,-0.07,-0.05,0.08
3076,0.15,-0.80,11.15,-0.07,-0.05,0.08
3081,0.84,-0.04,10.69,-0.07,-0.05,0.08
3087,1.04,-0.73,9.27,-0.07,-0.05,0.08
3092,2.38,-0.80,8.31,-0.07,-0.05,0.08
3097,2.49,-1.30,8.66,-0.07,-0.05,0.08
3101,2.49,-1.30,8.66,-0.06,-0.01,0.02
3106,2.49,-1.30,8.66,-0.07,-0.02,0.01
3111,1.68,-0.38,10.38,-0.07,-0.02,0.01
3117,-0.54,-0.08,11.64,-0.07,-0.02,0.01
3121,-0.54,-0.08,11.64,-0.06,0.09,-0.02
3126,-2.68,0.34,11.60,-0.06,0.09,-0.02
3132,-0.88,-0.04,11.19,-0.06,0.09,-0.02
3136,-0.88,-0.04,11.19,-0.04,0.13,-0.01
3142,-0.88,-0.04,11.19,-0.06,0.06,-0.01
3147,-0.42,0.61,9.38,-0.06,0.06,-0.01
3151,-0.42,0.61,9.38,-0.09,-0.05,-0.02
3156,-0.42,0.61,9.38,-0.11,-0.13,-0.03
3161,-0.42,0.61,9.38,-0.14,-0.22,-0.03
3167,2.95,-1.15,8.70,-0.14,-0.22,-0.03
3171,2.95,-1.15,8.70,-0.14,-0.31,-0.04
3176,2.76,-0.08,8.82,-0.14,-0.31,-0.04
3181,2.80,-0.11,10.45,-0.14,-0.31,-0.04
3187,2.84,0.30,10.03,-0.14,-0.31,-0.04
3191,2.84,0.30,10.03,-0.10,-0.08,-0.00
3196,2.45,0.08,9.65,-0.10,-0.08,-0.00
3202,1.80,-1.11,10.41,-0.10,-0.08,-0.00
3206,1.80,-1.11,10.41,-0.09,0.05,-0.09
3212,1.53,-1.53,9.58,-0.09,0.05,-0.09
3217,1.19,-1.30,9.50,-0.09,0.05,-0.09
3221,1.19,-1.30,9.50,-0.05,-0.02,-0.01
3226,1.19,-1.30,9.50,-0.06,-0.05,0.01
3231,1.95,0.19,9.08,-0.06,-0.05,0.01
3237,2.07,-0.38,8.81,-0.06,-0.05,0.01
3241,2.07,-0.38,8.81,-0.09,-0.04,-0.05
3246,0.65,-1.04,8.46,-0.09,-0.04,-0.05
3252,-0.08,-0.96,9.73,-0.09,-0.04,-0.05
3256,-0.08,-0.96,9.73,-0.06,0.06,0.01
3261,-0.08,-0.96,9.73,-0.06,0.06,0.02
3266,-1.00,-0.88,9.27,-0.06,0.06,0.02
3272,-1.15,-0.42,8.08,-0.06,0.06,0.02
3276,-1.15,-0.42,8.08,-0.07,0.01,-0.05
3281,-1.15,-0.42,8.08,-0.08,-0.04,-0.04
3287,1.84,-1.07,8.54,-0.08,-0.04,-0.04
3291,1.84,-1.07,8.54,-0.07,-0.14,0.02
3296,1.84,-1.07,8.54,-0.07,-0.17,0.02
3302,1.84,-1.07,8.54,-0.07,-0.16,-0.01
3307,1.68,-1.27,9.80,-0.07,-0.16,-0.01
3311,1.68,-1.27,9.80,-0.03,-0.06,-0.03
3316,0.61,-1.04,9.16,-0.03,-0.06,-0.03
3322,1.04,-0.65,9.89,-0.03,-0.06,-0.03
3326,1.04,-0.65,9.89,0.01,0.11,0.03
3332,1.04,-0.65,9.89,-0.01,0.12,-0.00
3337,-0.11,-0.46,9.61,-0.01,0.12,-0.00
3341,-0.11,-0.46,9.61,-0.04,0.06,-0.06
3346,-0.11,-0.46,9.61,-0.04,0.01,-0.05
3351,-0.38,-0.30,9.31,-0.04,0.01,-0.05
3357,0.80,-0.08,9.12,-0.04,0.01,-0.05
3361,0.80,-0.08,9.12,-0.05,-0.08,-0.02
3367,1.65,-0.04,9.27,-0.05,-0.08,-0.02
3372,3.07,-1.00,10.41,-0.05,-0.08,-0.02
3376,3.07,-1.00,10.41,-0.06,-0.08,-0.05
3381,3.07,-1.00,10.41,-0.05,-0.06,-0.04
3386,1.65,-0.77,10.30,-0.05,-0.06,-0.04
3392,1.76,-1.07,10.73,-0.05,-0.06,-0.04
3396,1.76,-1.07,10.73,-0.04,0.07,0.00
3401,1.76,-1.07,10.73,-0.04,0.09,-0.01
3407,1.00,-1.46,11.15,-0.04,0.09,-0.01
3411,1.00,-1.46,11.15,-0.04,0.09,-0.03
3416,1.00,-1.46,11.15,-0.01,0.09,0.00
3421,1.00,-1.46,11.15,-0.00,0.12,0.03
3427,-0.42,0.30,9.39,-0.00,0.12,0.03
3432,-0.42,0.30,9.39,-0.03,0.09,0.04
3437,-0.42,0.30,9.39,-0.05,0.02,0.02
3442,2.72,-1.46,9.84,-0.05,0.02,0.02
3446,2.72,-1.46,9.84,-0.06,-0.15,0.02
3451,2.72,-1.46,9.84,-0.04,-0.17,0.06
3456,0.50,-0.65,6.89,-0.04,-0.17,0.06
3462,1.15,0.65,8.88,-0.04,-0.17,0.06
3467,1.15,0.65,8.88,-0.01,-0.04,0.09
3471,1.15,0.65,8.88,-0.02,-0.02,0.07
3477,2.03,-0.73,10.88,-0.02,-0.02,0.07
3482,2.03,-0.73,10.88,-0.02,0.02,0.04
3487,2.03,-0.73,10.88,-0.01,0.05,0.05
3493,0.92,-0.77,9.23,-0.01,0.05,0.05
3496,0.92,-0.77,9.23,0.01,0.07,0.07
3501,0.92,-0.77,9.23,-0.01,0.05,0.06
3506,1.84,-0.11,8.92,-0.01,0.05,0.06
3512,2.03,-0.69,9.89,-0.01,0.05,0.06
3517,2.03,-0.69,9.89,-0.04,0.04,0.04
3522,2.03,-0.69,9.89,-0.02,0.03,0.04
3528,1.53,-1.15,8.81,-0.02,0.03,0.04
3531,1.53,-1.15,8.81,-0.01,0.01,0.08
3536,1.53,-1.15,8.81,-0.03,0.01,0.08
3542,1.53,-1.15,8.81,-0.03,-0.02,0.06
3547,0.15,-0.92,8.20,-0.03,-0.02,0.06
3552,0.15,-0.92,8.20,-0.04,-0.06,0.04
3556,0.15,-0.92,8.20,-0.04,-0.08,0.05
3561,0.15,-0.92,8.20,-0.04,-0.10,0.06
3567,1.91,-0.88,9.38,-0.04,-0.10,0.06
3572,1.91,-0.88,9.38,-0.04,-0.13,0.07
3576,1.91,-0.88,9.38,-0.03,-0.13,0.07
3582,3.07,-1.57,10.15,-0.03,-0.13,0.07
3587,3.07,-1.57,10.15,0.00,-0.06,0.09
3592,3.07,-1.57,10.15,0.01,-0.01,0.11
3597,1.00,-1.34,10.57,0.01,-0.01,0.11
3602,1.00,-1.34,10.57,0.01,0.11,0.09
3606,1.00,-1.34,10.57,0.02,0.14,0.08
3611,0.57,-1.04,10.54,0.02,0.14,0.08
3617,1.68,-1.34,9.69,0.02,0.14,0.08
3622,1.68,-1.34,9.69,-0.01,0.05,0.09
3627,1.68,-1.34,9.69,-0.02,-0.00,0.10
3632,1.04,-1.04,8.04,-0.02,-0.00,0.10
3636,1.04,-1.04,8.04,-0.03,-0.04,0.10
3642,1.04,-1.04,8.04,-0.04,-0.04,0.09
3648,0.73,-0.92,9.50,-0.04,-0.04,0.09
3651,0.73,-0.92,9.50,-0.04,-0.03,0.10
3656,0.73,-0.92,9.50,-0.03,-0.02,0.12
3661,0.73,-0.92,9.50,-0.03,-0.00,0.12
3667,0.57,-0.80,10.35,-0.03,-0.00,0.12
3672,0.57,-0.80,10.35,-0.01,-0.00,0.13
3676,0.57,-0.80,10.35,-0.00,-0.01,0.12
3681,0.57,-0.80,10.35,-0.01,-0.03,0.14
3687,1.11,-0.04,9.43,-0.01,-0.03,0.14
3691,1.11,-0.04,9.43,-0.00,-0.04,0.17
3697,1.11,-0.04,9.43,0.01,-0.03,0.18
3702,1.88,-1.00,10.19,0.01,-0.03,0.18
3707,1.88,-1.00,10.19,0.01,0.01,0.17
3712,1.88,-1.00,10.19,0.01,0.05,0.16
3717,2.22,-0.88,10.19,0.01,0.05,0.16
3722,2.22,-0.88,10.19,-0.01,0.06,0.13
3728,2.22,-0.88,10.19,-0.02,0.04,0.13
3733,-0.50,0.00,10.73,-0.02,0.04,0.13
3736,-0.50,0.00,10.73,-0.01,0.08,0.14
3742,-0.50,0.00,10.73,-0.00,0.09,0.14
3746,-0.50,0.00,10.73,-0.03,0.05,0.13
3752,1.11,-0.38,9.58,-0.03,0.05,0.13
3757,1.11,-0.38,9.58,-0.06,-0.05,0.09
3762,1.11,-0.38,9.58,-0.11,-0.14,0.08
3767,5.36,-0.92,13.83,-0.11,-0.14,0.08
3772,4.79,-2.03,14.06,-0.11,-0.14,0.08
3776,4.79,-2.03,14.06,-0.07,-0.15,0.05
3781,4.79,-2.03,14.06,-0.07,-0.02,0.06
3787,-0.42,-1.11,9.27,-0.07,-0.02,0.06
3792,-0.42,-1.11,9.27,-0.04,0.22,-0.01
3796,-0.42,-1.11,9.27,-0.04,0.26,-0.06
3801,-0.42,-1.11,9.27,-0.06,0.24,-0.08
3807,1.91,-1.30,11.15,-0.06,0.24,-0.08
3811,1.91,-1.30,11.15,-0.04,0.29,-0.07
3816,1.91,-1.30,11.15,-0.04,0.34,-0.09
3822,1.91,-1.30,11.15,-0.04,0.35,-0.13
3827,1.91,-1.30,11.15,-0.07,0.29,-0.16
3832,1.91,-1.30,11.15,-0.11,0.14,-0.18
3836,2.14,0.69,9.39,-0.11,0.14,-0.18
3843,1.34,1.11,8.70,-0.11,0.14,-0.18
3846,1.34,1.11,8.70,-0.14,-0.07,-0.17
3851,-0.80,0.34,5.98,-0.14,-0.07,-0.17
3857,-1.15,1.19,7.28,-0.14,-0.07,-0.17
3861,-1.15,1.19,7.28,-0.14,-0.04,-0.23
3867,-1.15,1.19,7.28,-0.15,-0.04,-0.25
3872,5.86,-1.11,12.49,-0.15,-0.04,-0.25
3876,5.86,-1.11,12.49,-0.19,-0.07,-0.24
3882,5.86,-1.11,12.49,-0.18,-0.05,-0.27
3886,5.86,-1.11,12.49,-0.15,0.03,-0.29
3892,0.34,-0.04,7.01,-0.15,0.03,-0.29
3896,0.34,-0.04,7.01,-0.12,0.13,-0.30
3901,0.34,-0.04,7.01,-0.11,0.16,-0.27
3907,1.99,0.23,10.65,-0.11,0.16,-0.27
3912,1.99,0.23,10.65,-0.14,0.19,-0.26
3917,1.99,0.23,10.65,-0.16,0.12,-0.29
3921,1.99,0.23,10.65,-0.15,0.07,-0.33
3928,0.15,0.04,4.71,-0.15,0.07,-0.33
3932,0.15,0.04,4.71,-0.14,-0.01,-0.29
3937,0.15,0.04,4.71,-0.16,-0.07,-0.26
3943,2.11,0.50,8.50,-0.16,-0.07,-0.26
3946,2.11,0.50,8.50,-0.17,-0.13,-0.29
3951,2.11,0.50,8.50,-0.17,-0.10,-0.33
3956,0.96,-0.69,10.42,-0.17,-0.10,-0.33
3963,1.72,0.11,8.81,-0.17,-0.10,-0.33
3966,1.72,0.11,8.81,-0.16,-0.06,-0.34
3971,1.72,0.11,8.81,-0.15,-0.07,-0.32
3977,3.26,-0.88,10.04,-0.15,-0.07,-0.32
3981,3.26,-0.88,10.04,-0.12,-0.02,-0.33
3986,3.26,-0.88,10.04,-0.12,0.05,-0.37
3991,1.61,-1.65,11.45,-0.12,0.05,-0.37
3997,1.38,-1.07,11.54,-0.12,0.05,-0.37
4001,1.38,-1.07,11.54,-0.11,0.12,-0.34
4006,1.38,-1.07,11.54,-0.09,0.09,-0.33
4012,1.46,-0.65,10.77,-0.09,0.09,-0.33
4016,1.46,-0.65,10.77,-0.10,0.02,-0.33
4022,1.46,-0.65,10.77,-0.10,-0.01,-0.35
4028,2.03,-0.69,8.58,-0.10,-0.01,-0.35
4032,2.03,-0.69,8.58,-0.11,-0.06,-0.33
4036,2.03,-0.69,8.58,-0.09,-0.04,-0.34
4042,2.03,-0.69,8.58,-0.10,-0.01,-0.34
4047,0.73,-0.46,9.04,-0.10,-0.01,-0.34
4051,0.73,-0.46,9.04,-0.09,0.01,-0.36
4056,0.73,-0.46,9.04,-0.09,0.00,-0.36
4061,0.73,-0.46,9.04,-0.09,-0.02,-0.34
4067,1.91,-0.38,11.07,-0.09,-0.02,-0.34
4071,1.91,-0.38,11.07,-0.11,-0.05,-0.37
4077,1.91,-0.38,11.07,-0.11,-0.05,-0.37
4082,0.08,-1.23,9.54,-0.11,-0.05,-0.37
4086,0.08,-1.23,9.54,-0.08,-0.01,-0.35
4092,0.08,-1.23,9.54,-0.07,-0.02,-0.31
4097,1.88,-1.65,10.04,-0.07,-0.02,-0.31
4101,1.88,-1.65,10.04,-0.03,-0.05,-0.24
4107,1.88,-1.65,10.04,-0.03,-0.03,-0.21
4111,1.88,-1.65,10.04,-0.03,-0.02,-0.21
4117,1.34,-1.04,10.30,-0.03,-0.02,-0.21
4121,1.34,-1.04,10.30,-0.00,0.06,-0.23
4127,1.34,-1.04,10.30,0.01,0.12,-0.23
4132,0.38,-0.88,9.85,0.01,0.12,-0.23
4136,0.38,-0.88,9.85,0.01,0.12,-0.22
4141,0.38,-0.88,9.85,0.02,0.11,-0.20
4146,0.38,-0.88,9.85,0.02,0.07,-0.19
4152,0.34,-0.92,8.31,0.02,0.07,-0.19
4156,0.34,-0.92,8.31,-0.00,-0.02,-0.19
4161,0.34,-0.92,8.31,0.00,-0.08,-0.19
4167,1.34,-1.07,8.88,0.00,-0.08,-0.19
4172,1.34,-1.07,8.88,0.00,-0.08,-0.21
4177,1.34,-1.07,8.88,0.01,-0.02,-0.21
4181,1.34,-1.07,8.88,0.03,0.05,-0.21
4187,-0.88,-0.50,10.91,0.03,0.05,-0.21
4191,-0.88,-0.50,10.91,0.02,0.08,-0.22
4197,-0.88,-0.50,10.91,-0.00,-0.01,-0.22
4202,-1.42,-0.11,9.73,-0.00,-0.01,-0.22
4206,-1.42,-0.11,9.73,0.01,-0.10,-0.23
4212,-1.42,-0.11,9.73,0.00,-0.16,-0.23
4216,5.79,-1.84,8.96,0.00,-0.16,-0.23
4222,6.51,-1.38,9.50,0.00,-0.16,-0.23
4226,6.51,-1.38,9.50,-0.02,-0.33,-0.21
4232,6.51,-1.38,9.50,0.01,-0.27,-0.20
4237,1.80,-0.65,12.07,0.01,-0.27,-0.20
4242,1.80,-0.65,12.07,0.02,0.13,-0.27
4246,1.80,-0.65,12.07,0.03,0.26,-0.30
4252,1.80,-0.65,12.07,0.02,0.26,-0.31
4256,1.80,-0.65,12.07,0.01,0.23,-0.31
4261,1.80,-0.65,12.07,0.02,0.23,-0.32
4267,1.80,-0.65,12.07,0.01,0.19,-0.32
4272,3.52,-1.30,8.01,0.01,0.19,-0.32
4276,3.52,-1.30,8.01,-0.01,-0.08,-0.29
4281,3.52,-1.30,8.01,-0.00,-0.20,-0.25
4287,3.52,-1.30,8.01,0.00,-0.26,-0.21
4292,3.52,-1.30,8.01,-0.02,-0.24,-0.20
4296,3.52,-1.30,8.01,-0.01,-0.17,-0.22
4301,3.52,-1.30,8.01,0.01,-0.10,-0.25
4307,-0.08,-0.46,10.91,0.01,-0.10,-0.25
4311,-0.08,-0.46,10.91,0.05,0.05,-0.22
4317,-0.08,-0.46,10.91,0.06,0.07,-0.18
4322,-0.08,-0.46,10.91,0.06,0.05,-0.17
4327,-0.08,-0.46,10.91,0.05,0.01,-0.18
4331,-0.08,-0.46,10.91,0.04,-0.02,-0.21
4336,-0.08,-0.46,10.91,0.04,-0.06,-0.22
4342,0.92,-1.46,11.49,0.04,-0.06,-0.22
4346,0.92,-1.46,11.49,0.06,-0.04,-0.16
4351,0.92,-1.46,11.49,0.08,-0.00,-0.13
4357,0.92,-1.46,11.49,0.09,0.05,-0.12
4361,0.92,-1.46,11.49,0.09,0.10,-0.13
4366,0.92,-1.46,11.49,0.09,0.11,-0.14
4371,0.92,-1.46,11.49,0.08,0.09,-0.14
4377,1.34,-1.34,8.81,0.08,0.09,-0.14
4381,1.34,-1.34,8.81,0.09,0.03,-0.13
4386,1.34,-1.34,8.81,0.08,0.03,-0.12
4392,1.46,-1.11,9.12,0.08,0.03,-0.12
4396,1.46,-1.11,9.12,0.08,0.04,-0.12
4402,1.46,-1.11,9.12,0.09,0.06,-0.13
4407,1.46,-1.11,9.12,0.10,0.11,-0.12
4412,1.46,-1.11,9.12,0.11,0.13,-0.12
4416,1.46,-1.11,9.12,0.09,0.12,-0.12
4421,1.46,-1.11,9.12,0.10,0.10,-0.11
4427,0.57,-1.53,9.00,0.10,0.10,-0.11
4432,0.57,-1.53,9.00,0.13,0.09,-0.08
4436,0.57,-1.53,9.00,0.13,0.12,-0.07
4442,0.57,-1.53,9.00,0.14,0.15,-0.07
4447,0.57,-1.53,9.00,0.14,0.15,-0.05
4451,0.57,-1.53,9.00,0.13,0.11,-0.04
4456,0.57,-1.53,9.00,0.13,0.06,-0.02
4462,0.57,-1.53,9.00,0.13,0.03,0.00
4466,0.57,-1.53,9.00,0.14,0.01,0.03
4471,0.57,-1.53,9.00,0.13,-0.01,0.06
4477,0.57,-1.53,9.00,0.14,-0.01,0.10
4481,0.57,-1.53,9.00,0.15,-0.02,0.13
4486,0.57,-1.53,9.00,0.15,0.00,0.16
4492,0.57,-1.53,9.00,0.17,0.02,0.18
4497,-0.38,-1.42,9.89,0.17,0.02,0.18
4501,-0.38,-1.42,9.89,0.19,0.09,0.21
4506,-0.38,-1.42,9.89,0.19,0.09,0.25
4512,-0.38,-1.42,9.89,0.19,0.06,0.30
4516,-0.38,-1.42,9.89,0.19,0.04,0.35
4521,-0.38,-1.42,9.89,0.19,0.02,0.38
4526,-0.38,-1.42,9.89,0.19,0.01,0.40
4532,0.88,-1.88,9.42,0.19,0.01,0.40
4536,0.88,-1.88,9.42,0.20,-0.01,0.44
4542,0.88,-1.88,9.42,0.23,0.00,0.47
4547,0.88,-1.88,9.42,0.24,0.03,0.50
4551,0.88,-1.88,9.42,0.25,0.07,0.53
4556,0.88,-1.88,9.42,0.26,0.11,0.54
4561,0.88,-1.88,9.42,0.27,0.12,0.54
4567,0.04,-2.80,9.39,0.27,0.12,0.54
4571,0.04,-2.80,9.39,0.26,0.03,0.58
4576,0.04,-2.80,9.39,0.27,-0.04,0.61
4582,0.04,-2.80,9.39,0.28,-0.07,0.64
4586,0.04,-2.80,9.39,0.29,-0.08,0.68
4592,0.04,-2.80,9.39,0.28,-0.08,0.71
4596,0.04,-2.80,9.39,0.29,-0.11,0.71
4602,2.41,-2.76,9.85,0.29,-0.11,0.71
4606,2.41,-2.76,9.85,0.29,-0.17,0.73
4611,2.41,-2.76,9.85,0.28,-0.17,0.75
4617,2.41,-2.76,9.85,0.30,-0.14,0.77
4621,2.41,-2.76,9.85,0.30,-0.07,0.78
4626,2.41,-2.76,9.85,0.29,-0.01,0.75
4632,2.41,-2.76,9.85,0.29,0.02,0.73
4636,2.41,-2.76,9.85,0.26,0.02,0.70
4642,2.41,-2.76,9.85,0.26,-0.02,0.69
4646,2.41,-2.76,9.85,0.24,-0.06,0.69
4652,0.61,-0.61,8.70,0.24,-0.06,0.69
4656,0.61,-0.61,8.70,0.21,-0.11,0.65
4661,0.61,-0.61,8.70,0.20,-0.12,0.63
4667,0.61,-0.61,8.70,0.19,-0.12,0.60
4671,0.61,-0.61,8.70,0.18,-0.10,0.59
4676,0.61,-0.61,8.70,0.18,-0.11,0.58
4681,0.61,-0.61,8.70,0.18,-0.10,0.58
4687,-0.08,-0.34,9.27,0.18,-0.10,0.58
4692,-0.08,-0.34,9.27,0.21,-0.01,0.57
4696,-0.08,-0.34,9.27,0.22,0.04,0.57
4701,-0.08,-0.34,9.27,0.20,0.05,0.57
4706,0.34,-0.42,9.58,0.20,0.05,0.57
4712,0.34,-0.42,9.58,0.18,0.01,0.54
4716,0.34,-0.42,9.58,0.15,-0.06,0.48
4722,0.92,-0.42,9.65,0.15,-0.06,0.48
4727,0.92,-0.42,9.65,0.15,-0.07,0.50
4732,0.92,-0.42,9.65,0.15,-0.04,0.51
4737,0.92,-0.42,9.65,0.14,-0.01,0.48
4741,0.92,-0.42,9.65,0.14,0.03,0.46
4746,0.92,-0.42,9.65,0.13,0.04,0.44
4751,0.92,-0.42,9.65,0.12,0.02,0.41
4757,0.11,0.04,10.23,0.12,0.02,0.41
4761,0.11,0.04,10.23,0.10,-0.05,0.40
4767,0.11,0.04,10.23,0.10,-0.07,0.40
4772,0.11,0.04,10.23,0.09,-0.06,0.41
4776,0.11,0.04,10.23,0.10,-0.05,0.40
4781,0.11,0.04,10.23,0.09,-0.04,0.39
4786,0.11,0.04,10.23,0.08,-0.04,0.37
4792,-0.61,0.69,9.04,0.08,-0.04,0.37
4796,-0.61,0.69,9.04,0.05,-0.05,0.33
4801,-0.61,0.69,9.04,0.04,-0.06,0.31
4807,-0.61,0.69,9.04,0.04,-0.06,0.30
4811,-0.61,0.69,9.04,0.04,-0.05,0.29
4817,-0.61,0.69,9.04,0.05,-0.02,0.28
4822,-0.61,0.69,9.04,0.05,0.02,0.27
4827,-0.61,0.69,9.04,0.06,0.05,0.26
4831,-0.61,0.69,9.04,0.03,0.05,0.22
4836,-0.61,0.69,9.04,0.02,0.05,0.19
4842,-0.61,0.69,9.04,0.02,0.04,0.16
4846,-0.61,0.69,9.04,0.01,0.03,0.16
4851,-0.61,0.69,9.04,-0.00,0.01,0.17
4856,-0.61,0.69,9.04,0.00,-0.01,0.18
4862,0.42,0.34,9.12,0.00,-0.01,0.18
4866,0.42,0.34,9.12,-0.02,-0.05,0.17
4872,0.42,0.34,9.12,-0.02,-0.05,0.16
4877,0.19,0.11,10.04,-0.02,-0.05,0.16
4881,0.19,0.11,10.04,-0.02,-0.03,0.16
4886,0.19,0.11,10.04,-0.02,-0.03,0.18
4892,0.19,0.11,10.04,-0.01,-0.03,0.20
4896,0.19,0.11,10.04,0.01,-0.01,0.21
4901,0.19,0.11,10.04,0.01,0.00,0.24
4906,0.19,0.11,10.04,0.01,0.00,0.23
4912,0.54,0.19,9.50,0.01,0.00,0.23
4917,0.54,0.19,9.50,0.00,-0.01,0.23
4922,0.54,0.19,9.50,-0.02,-0.01,0.23
4827,-0.61,0.69,9.04,0.06,0.05,0.26
4831,-0.61,0.69,9.04,0.03,0.05,0.22
4836,-0.61,0.69,9.04,0.02,0.05,0.19
4842,-0.61,0.69,9.04,0.02,0.04,0.16
4846,-0.61,0.69,9.04,0.01,0.03,0.16
4851,-0.61,0.69,9.04,-0.00,0.01,0.17
4856,-0.61,0.69,9.04,0.00,-0.01,0.18
4862,0.42,0.34,9.12,0.00,-0.01,0.18
4866,0.42,0.34,9.12,-0.02,-0.05,0.17
4872,0.42,0.34,9.12,-0.02,-0.05,0.16
4877,0.19,0.11,10.04,-0.02,-0.05,0.16
4881,0.19,0.11,10.04,-0.02,-0.03,0.16
4886,0.19,0.11,10.04,-0.02,-0.03,0.18
4892,0.19,0.11,10.04,-0.01,-0.03,0.20
4896,0.19,0.11,10.04,0.01,-0.01,0.21
