timestamp,accX,accY,accZ,gyroX,gyroY,gyroZ
Left
6,-1.19,-0.23,9.73,0.21,-0.03,0.07
19,-1.19,-0.23,9.73,0.20,-0.03,0.07
21,-1.19,-0.23,9.73,0.22,0.06,-0.68
22,-1.19,-0.23,9.73,0.20,0.13,-0.75
26,-0.88,-1.00,10.49,0.20,0.13,-0.75
31,0.08,-1.61,10.19,0.20,0.13,-0.75
36,0.08,-1.61,10.19,0.21,0.21,-0.77
41,0.08,-1.61,10.19,0.24,0.25,-0.79
46,-0.84,-3.48,8.92,0.24,0.25,-0.79
51,0.61,-2.95,9.50,0.24,0.25,-0.79
56,1.34,-2.07,9.46,0.24,0.25,-0.79
61,1.34,-2.07,9.46,0.35,0.13,-0.69
66,1.34,-2.07,9.46,0.34,0.10,-0.69
71,1.34,-2.07,9.46,0.34,0.12,-0.69
76,0.15,-1.07,9.81,0.34,0.12,-0.69
81,-1.27,-2.11,10.04,0.34,0.12,-0.69
86,-1.27,-2.11,10.04,0.37,0.25,-0.67
91,-0.69,-1.49,9.20,0.37,0.25,-0.67
96,-0.50,-1.88,8.74,0.37,0.25,-0.67
101,-1.42,-2.11,8.54,0.37,0.25,-0.67
106,-0.54,-1.38,9.42,0.37,0.25,-0.67
111,-0.88,-1.07,9.88,0.37,0.25,-0.67
116,0.42,-2.03,10.91,0.37,0.25,-0.67
122,0.42,-2.03,10.91,0.44,0.14,-0.53
126,-0.54,-2.11,10.41,0.44,0.14,-0.53
131,-0.54,-2.11,10.41,0.48,0.18,-0.41
136,0.19,-1.19,10.04,0.48,0.18,-0.41
141,-1.57,-1.11,9.84,0.48,0.18,-0.41
147,-1.57,-1.11,9.84,0.53,0.24,-0.37
151,-2.45,-1.34,8.01,0.53,0.24,-0.37
156,-1.95,-1.19,7.85,0.53,0.24,-0.37
161,-1.68,-2.07,8.77,0.53,0.24,-0.37
166,-1.04,-1.49,9.46,0.53,0.24,-0.37
171,-1.15,-0.88,9.43,0.53,0.24,-0.37
176,1.34,-0.42,10.57,0.53,0.24,-0.37
181,2.26,-0.42,10.50,0.53,0.24,-0.37
187,1.30,-0.57,11.53,0.53,0.24,-0.37
191,-0.15,-0.42,10.96,0.53,0.24,-0.37
196,-0.50,-1.57,10.77,0.53,0.24,-0.37
201,-1.80,-0.96,9.20,0.53,0.24,-0.37
206,-3.33,-1.42,8.70,0.53,0.24,-0.37
211,-2.95,-1.11,8.32,0.53,0.24,-0.37
216,-3.07,-0.77,8.04,0.53,0.24,-0.37
221,-3.29,-0.08,7.66,0.53,0.24,-0.37
226,-2.07,0.61,8.01,0.53,0.24,-0.37
231,-1.68,0.77,8.35,0.53,0.24,-0.37
237,-1.04,0.27,8.50,0.53,0.24,-0.37
241,-0.57,-0.46,8.77,0.53,0.24,-0.37
246,-1.30,-0.42,8.58,0.53,0.24,-0.37
251,-1.38,0.04,9.00,0.53,0.24,-0.37
257,-1.34,-1.00,9.30,0.53,0.24,-0.37
261,-0.30,-0.88,9.84,0.53,0.24,-0.37
266,-0.30,-0.88,9.84,0.50,-0.01,-0.39
271,0.80,-1.38,10.57,0.50,-0.01,-0.39
276,0.80,-1.38,10.57,0.52,0.05,-0.40
282,1.46,-1.65,10.27,0.52,0.05,-0.40
286,1.46,-1.65,10.27,0.58,0.20,-0.36
291,-0.42,-1.23,9.20,0.58,0.20,-0.36
296,-0.88,0.30,8.77,0.58,0.20,-0.36
301,-0.88,0.30,8.77,0.61,0.22,-0.35
306,-0.88,0.30,8.77,0.61,0.17,-0.36
311,-0.46,0.19,8.16,0.61,0.17,-0.36
317,0.27,0.08,8.78,0.61,0.17,-0.36
321,0.27,0.08,8.78,0.55,-0.07,-0.29
326,0.27,-0.15,9.16,0.55,-0.07,-0.29
332,0.27,-0.15,9.16,0.53,-0.07,-0.26
336,-0.46,-0.30,9.08,0.53,-0.07,-0.26
341,1.15,-0.65,9.88,0.53,-0.07,-0.26
346,1.15,-0.50,9.65,0.53,-0.07,-0.26
351,0.73,-1.30,9.88,0.53,-0.07,-0.26
356,1.11,-1.30,9.96,0.53,-0.07,-0.26
361,1.99,-1.46,10.57,0.53,-0.07,-0.26
366,2.18,-1.91,11.45,0.53,-0.07,-0.26
371,2.18,-1.91,11.45,0.64,-0.00,0.17
376,1.15,-2.53,11.11,0.64,-0.00,0.17
381,0.88,-2.76,11.04,0.64,-0.00,0.17
386,0.23,-2.61,10.73,0.64,-0.00,0.17
391,-0.04,-2.41,9.88,0.64,-0.00,0.17
396,-0.46,-1.61,9.84,0.64,-0.00,0.17
402,0.08,-1.72,9.27,0.64,-0.00,0.17
406,0.08,-1.72,9.27,0.74,-0.00,0.53
411,0.65,-0.88,9.61,0.74,-0.00,0.53
416,0.00,-0.57,9.20,0.74,-0.00,0.53
421,-0.80,-0.19,9.00,0.74,-0.00,0.53
426,0.11,-1.00,8.62,0.74,-0.00,0.53
431,-1.61,-0.96,8.12,0.74,-0.00,0.53
436,-1.61,-0.96,8.12,0.67,-0.06,0.61
441,-2.30,-1.53,7.97,0.67,-0.06,0.61
447,-2.30,-1.53,7.97,0.67,-0.04,0.59
451,-1.68,-2.38,8.46,0.67,-0.04,0.59
456,-1.68,-2.38,8.46,0.68,-0.09,0.60
461,-0.34,-0.65,10.41,0.68,-0.09,0.60
466,-0.54,-0.77,10.80,0.68,-0.09,0.60
471,-0.84,-1.07,11.42,0.68,-0.09,0.60
476,-2.11,-0.08,11.03,0.68,-0.09,0.60
482,-2.45,-0.57,10.73,0.68,-0.09,0.60
486,-0.46,-1.91,9.23,0.68,-0.09,0.60
491,-0.46,-1.91,9.23,0.62,0.02,0.54
496,0.30,-2.34,7.86,0.62,0.02,0.54
501,-0.08,-2.07,7.89,0.62,0.02,0.54
506,-0.65,-1.19,7.47,0.62,0.02,0.54
512,-1.23,-0.23,7.78,0.62,0.02,0.54
516,-2.18,1.38,9.20,0.62,0.02,0.54
521,-2.76,1.19,10.00,0.62,0.02,0.54
527,-2.22,1.04,10.23,0.62,0.02,0.54
531,-1.00,-0.38,9.46,0.62,0.02,0.54
536,-0.92,-0.80,9.00,0.62,0.02,0.54
541,-1.88,-0.08,9.12,0.62,0.02,0.54
546,-1.72,-0.11,8.50,0.62,0.02,0.54
551,-1.80,0.00,7.43,0.62,0.02,0.54
557,-1.07,-1.53,7.77,0.62,0.02,0.54
561,-1.07,-1.53,7.77,0.43,-0.11,0.18
566,-1.07,-1.53,7.77,0.46,-0.11,0.17
571,-1.19,-2.68,9.27,0.46,-0.11,0.17
576,-0.65,-2.61,10.27,0.46,-0.11,0.17
582,-0.65,-2.30,11.15,0.46,-0.11,0.17
586,-1.84,-1.07,11.30,0.46,-0.11,0.17
591,-1.61,-0.73,9.96,0.46,-0.11,0.17
597,-1.46,-1.34,9.61,0.46,-0.11,0.17
601,-1.95,-1.88,9.23,0.46,-0.11,0.17
606,-2.11,-1.84,9.00,0.46,-0.11,0.17
611,-1.91,-1.68,8.96,0.46,-0.11,0.17
616,-1.91,-1.68,8.96,0.55,0.01,0.35
621,-2.80,-1.80,9.77,0.55,0.01,0.35
626,-2.91,-0.92,9.08,0.55,0.01,0.35
632,-2.14,-0.73,8.84,0.55,0.01,0.35
636,-2.49,-0.46,9.43,0.55,0.01,0.35
641,-2.64,-0.92,9.50,0.55,0.01,0.35
646,-2.49,-1.49,8.16,0.55,0.01,0.35
652,-2.22,-2.45,8.46,0.55,0.01,0.35
656,-3.41,-2.41,9.54,0.55,0.01,0.35
662,-3.37,-2.26,8.58,0.55,0.01,0.35
666,-3.37,-2.26,8.58,0.58,-0.11,0.40
671,-3.07,-3.10,8.20,0.58,-0.11,0.40
676,-3.41,-2.72,8.01,0.58,-0.11,0.40
681,-2.14,-2.49,7.55,0.58,-0.11,0.40
686,-1.57,-2.87,7.28,0.58,-0.11,0.40
692,-0.38,-3.14,7.59,0.58,-0.11,0.40
697,0.38,-3.29,8.88,0.58,-0.11,0.40
701,0.38,-3.29,8.88,0.64,-0.29,0.52
706,0.38,-3.29,8.88,0.64,-0.27,0.57
711,2.72,-2.41,12.45,0.64,-0.27,0.57
716,2.72,-2.41,12.45,0.65,-0.15,0.68
721,2.91,-2.80,12.68,0.65,-0.15,0.68
728,2.91,-2.80,12.68,0.67,-0.09,0.76
732,0.15,-1.95,9.27,0.67,-0.09,0.76
736,0.15,-1.95,9.27,0.79,0.06,0.92
741,-1.04,-1.91,7.35,0.79,0.06,0.92
747,-1.04,-2.38,6.93,0.79,0.06,0.92
751,-1.04,-2.38,6.93,0.79,-0.06,0.94
757,0.23,-2.84,8.50,0.79,-0.06,0.94
761,0.50,-2.91,8.32,0.79,-0.06,0.94
766,0.50,-2.91,8.32,0.71,-0.32,1.04
771,0.50,-2.91,8.32,0.71,-0.35,1.05
776,-1.23,-0.80,8.04,0.71,-0.35,1.05
782,-1.15,-1.11,8.89,0.71,-0.35,1.05
786,-1.15,-1.11,8.89,0.73,-0.26,1.06
792,-0.15,-2.30,9.50,0.73,-0.26,1.06
797,1.38,-2.61,10.27,0.73,-0.26,1.06
801,1.38,-2.61,10.27,0.74,-0.22,1.19
806,1.38,-2.61,10.27,0.75,-0.22,1.26
811,1.11,-1.34,9.23,0.75,-0.22,1.26
817,-0.19,-0.50,9.08,0.75,-0.22,1.26
821,-0.19,-0.50,9.08,0.75,-0.09,1.34
826,-0.19,-0.50,9.08,0.72,-0.06,1.30
832,-0.84,-0.80,9.93,0.72,-0.06,1.30
836,-0.84,-0.80,9.93,0.67,-0.08,1.27
841,-0.84,-0.80,9.93,0.65,-0.12,1.29
846,1.19,-1.42,12.18,0.65,-0.12,1.29
852,1.57,-1.65,13.11,0.65,-0.12,1.29
856,1.57,-1.65,13.11,0.61,-0.09,1.40
861,-0.88,-0.61,11.22,0.61,-0.09,1.40
866,-0.73,-1.76,10.27,0.61,-0.09,1.40
871,-0.84,-2.22,9.69,0.61,-0.09,1.40
876,-0.84,-2.22,9.69,0.66,-0.01,1.38
881,-1.57,-2.14,8.77,0.66,-0.01,1.38
887,-1.00,-2.30,9.30,0.66,-0.01,1.38
891,-1.00,-2.30,9.30,0.66,-0.07,1.42
896,-1.07,1.04,9.08,0.66,-0.07,1.42
901,-1.19,0.77,8.88,0.66,-0.07,1.42
906,-1.91,1.27,8.54,0.66,-0.07,1.42
913,-1.19,0.57,8.36,0.66,-0.07,1.42
918,-1.23,0.11,8.89,0.66,-0.07,1.42
921,-1.23,0.11,8.89,0.45,-0.12,1.18
926,-1.23,0.11,8.89,0.42,-0.13,1.17
931,0.38,-0.50,11.07,0.42,-0.13,1.17
937,0.46,-1.19,11.30,0.42,-0.13,1.17
941,0.46,-1.19,11.30,0.46,-0.06,1.15
946,0.46,-1.19,11.30,0.48,0.02,1.15
951,-0.57,0.04,11.72,0.48,0.02,1.15
957,0.04,-0.50,10.88,0.48,0.02,1.15
961,0.04,-0.50,10.88,0.49,0.16,1.08
966,-1.34,-0.73,10.41,0.49,0.16,1.08
972,-1.04,-0.15,10.45,0.49,0.16,1.08
976,-1.04,-0.15,10.45,0.48,0.18,1.07
981,-0.38,2.64,9.96,0.48,0.18,1.07
986,-1.15,3.03,9.80,0.48,0.18,1.07
992,-0.92,3.10,10.50,0.48,0.18,1.07
996,-0.92,3.10,10.50,0.29,0.13,0.82
1002,0.80,0.92,10.38,0.29,0.13,0.82
1007,0.84,-0.15,10.69,0.29,0.13,0.82
1011,0.84,-0.15,10.69,0.25,0.08,0.79
1016,1.30,0.23,9.85,0.25,0.08,0.79
1021,1.72,0.69,9.12,0.25,0.08,0.79
1026,1.72,0.69,9.12,0.29,0.13,0.79
1032,1.72,0.69,9.12,0.29,0.19,0.80
1038,-0.23,2.11,10.31,0.29,0.19,0.80
1041,-0.23,2.11,10.31,0.23,0.24,0.73
1046,-0.23,2.11,10.31,0.23,0.23,0.71
1051,-0.23,2.11,10.31,0.23,0.27,0.73
1056,-1.91,1.61,9.65,0.23,0.27,0.73
1062,-1.91,1.61,9.65,0.22,0.29,0.75
1068,-0.23,1.61,8.66,0.22,0.29,0.75
1073,-1.42,2.34,9.50,0.22,0.29,0.75
1076,-1.42,2.34,9.50,0.12,0.15,0.70
1081,-1.42,2.34,9.50,0.10,0.12,0.69
1086,-1.42,2.34,9.50,0.09,0.10,0.71
1092,0.73,1.19,11.80,0.09,0.10,0.71
1096,0.73,1.19,11.80,0.14,0.21,0.85
1101,0.73,1.19,11.80,0.16,0.30,0.87
1106,-1.27,1.15,9.89,0.16,0.30,0.87
1112,-1.91,0.77,10.07,0.16,0.30,0.87
1116,-1.91,0.77,10.07,0.18,0.38,0.81
1121,-0.57,-1.34,9.73,0.18,0.38,0.81
1127,-0.57,-1.53,8.96,0.18,0.38,0.81
1131,-0.57,-1.53,8.96,0.17,0.15,0.85
1136,0.27,-0.50,10.27,0.17,0.15,0.85
1142,0.46,0.50,10.19,0.17,0.15,0.85
1146,0.46,0.50,10.19,0.10,0.09,0.85
1151,0.46,0.50,10.19,0.07,0.09,0.80
1157,1.23,-0.77,9.50,0.07,0.09,0.80
1161,-0.19,-1.68,9.50,0.07,0.09,0.80
1166,-0.19,-1.68,9.50,0.15,0.16,0.87
1173,-0.69,-0.96,9.08,0.15,0.16,0.87
1177,-0.08,-1.19,8.31,0.15,0.16,0.87
1181,-0.08,-1.19,8.31,0.22,0.20,0.90
1186,-0.08,-1.19,8.31,0.20,0.17,0.91
1191,1.84,-0.96,10.77,0.20,0.17,0.91
1197,2.53,-0.46,11.50,0.20,0.17,0.91
1201,2.53,-0.46,11.50,0.12,0.07,0.93
1206,2.53,-0.46,11.50,0.14,0.09,0.98
1212,2.30,0.19,10.77,0.14,0.09,0.98
1216,2.30,0.19,10.77,0.18,0.22,1.08
1221,2.30,0.19,10.77,0.20,0.28,1.08
1226,2.30,0.19,10.77,0.21,0.32,1.08
1232,1.57,-1.00,10.73,0.21,0.32,1.08
1237,1.57,-1.00,10.73,0.24,0.34,1.18
1241,1.57,-1.00,10.73,0.23,0.34,1.22
1246,-0.96,0.19,9.84,0.23,0.34,1.22
1252,-1.38,1.15,8.88,0.23,0.34,1.22
1256,-1.38,1.15,8.88,0.20,0.31,1.16
1261,-1.38,1.15,8.88,0.18,0.25,1.11
1266,-1.42,0.50,8.39,0.18,0.25,1.11
1271,-1.42,0.50,8.39,0.14,0.10,1.07
1276,-1.42,0.50,8.39,0.12,0.03,1.07
1281,-0.11,0.96,8.85,0.12,0.03,1.07
1287,-0.11,0.96,8.85,0.09,0.02,1.07
1291,-0.11,0.96,8.85,0.04,0.06,1.00
1296,-0.73,0.80,11.00,0.04,0.06,1.00
1303,0.30,0.15,10.84,0.04,0.06,1.00
1306,0.30,0.15,10.84,0.02,0.24,0.93
1311,1.30,-0.54,11.50,0.02,0.24,0.93
1317,-0.15,-0.46,12.14,0.02,0.24,0.93
1321,-0.15,-0.46,12.14,0.03,0.36,0.95
1327,-0.15,-0.46,12.14,0.04,0.41,0.92
1333,1.30,0.54,10.57,0.04,0.41,0.92
1336,1.30,0.54,10.57,0.03,0.38,0.88
1341,1.30,0.54,10.57,0.02,0.39,0.88
1346,1.30,0.54,10.57,-0.01,0.40,0.87
1352,0.88,1.15,10.80,-0.01,0.40,0.87
1357,0.88,1.15,10.80,-0.02,0.36,0.82
1361,0.88,1.15,10.80,-0.03,0.37,0.83
1366,0.15,1.42,10.91,-0.03,0.37,0.83
1372,1.68,1.61,9.85,-0.03,0.37,0.83
1376,1.68,1.61,9.85,-0.08,0.33,0.78
1381,1.68,1.61,9.85,-0.09,0.36,0.76
1387,-0.27,1.91,8.36,-0.09,0.36,0.76
1391,-0.27,1.91,8.36,-0.10,0.29,0.67
1397,-0.27,1.91,8.36,-0.09,0.28,0.66
1402,-0.65,2.38,9.12,-0.09,0.28,0.66
1407,-0.65,2.38,9.12,-0.14,0.27,0.60
1411,-0.65,2.38,9.12,-0.17,0.22,0.54
1416,-1.38,2.38,9.54,-0.17,0.22,0.54
1422,0.08,2.26,8.89,-0.17,0.22,0.54
1427,0.08,2.26,8.89,-0.23,0.25,0.41
1432,0.08,2.26,8.89,-0.23,0.28,0.36
1437,-0.73,0.73,8.85,-0.23,0.28,0.36
1441,-0.73,0.73,8.85,-0.25,0.28,0.24
1447,-0.73,0.73,8.85,-0.26,0.26,0.23
1453,1.00,0.08,12.45,-0.26,0.26,0.23
1457,1.00,0.08,12.45,-0.26,0.28,0.25
1461,1.00,0.08,12.45,-0.25,0.32,0.25
1466,1.00,0.08,12.45,-0.21,0.41,0.25
1472,-1.19,1.88,9.65,-0.21,0.41,0.25
1476,-1.19,1.88,9.65,-0.16,0.51,0.19
1481,-1.19,1.88,9.65,-0.14,0.54,0.17
1486,-1.19,1.88,9.65,-0.13,0.52,0.13
1492,-1.68,-0.34,6.89,-0.13,0.52,0.13
1496,-1.68,-0.34,6.89,-0.11,0.36,0.15
1501,-1.68,-0.34,6.89,-0.12,0.30,0.16
1508,-1.15,0.77,7.89,-0.12,0.30,0.16
1512,-1.15,0.77,7.89,-0.19,0.15,0.11
1517,-1.15,0.77,7.89,-0.20,0.15,0.06
1522,-1.19,0.38,8.28,-0.20,0.15,0.06
1527,-1.19,0.38,8.28,-0.21,0.11,-0.02
1532,-1.19,0.38,8.28,-0.18,0.12,0.01
1536,0.50,-1.88,9.16,-0.18,0.12,0.01
1541,-1.04,-0.88,8.74,-0.18,0.12,0.01
1546,-1.04,-0.88,8.74,-0.08,0.15,0.19
1551,-1.04,-0.88,8.74,-0.06,0.19,0.22
1556,0.27,-1.11,8.58,-0.06,0.19,0.22
1563,0.27,-1.11,8.58,-0.05,0.21,0.23
1567,-0.92,-0.69,7.35,-0.05,0.21,0.23
1573,0.15,-0.57,8.77,-0.05,0.21,0.23
1577,0.15,-0.57,8.77,0.04,0.19,0.40
1581,0.15,-0.57,8.77,0.03,0.13,0.45
1586,0.15,-0.57,8.77,0.02,0.08,0.54
1592,4.10,-0.88,14.71,0.02,0.08,0.54
1596,4.10,-0.88,14.71,0.03,0.15,0.76
1602,4.10,-0.88,14.71,0.07,0.21,0.82
1606,4.10,-0.88,14.71,0.14,0.30,0.85
1612,-0.34,-1.46,8.78,0.14,0.30,0.85
1616,-0.34,-1.46,8.78,0.24,0.39,0.88
1621,-0.34,-1.46,8.78,0.27,0.35,0.91
1626,-0.34,-1.46,8.78,0.25,0.24,0.95
1633,2.57,-4.18,9.46,0.25,0.24,0.95
1636,2.57,-4.18,9.46,0.20,-0.07,1.06
1641,0.96,-1.00,9.35,0.20,-0.07,1.06
1647,0.54,0.23,9.69,0.20,-0.07,1.06
1651,0.54,0.23,9.69,0.12,-0.06,1.04
1656,0.54,0.23,9.69,0.13,0.01,0.98
1662,0.73,-2.34,12.87,0.13,0.01,0.98
1666,0.73,-2.34,12.87,0.15,0.11,0.97
1671,0.73,-2.34,12.87,0.17,0.11,1.06
1677,2.34,-3.71,12.72,0.17,0.11,1.06
1681,2.34,-3.71,12.72,0.22,0.10,1.27
1686,2.34,-3.71,12.72,0.27,0.12,1.29
1693,0.61,-0.50,10.39,0.27,0.12,1.29
1696,1.65,-0.50,11.30,0.27,0.12,1.29
1701,1.65,-0.50,11.30,0.31,0.29,1.29
1706,1.65,-0.50,11.30,0.31,0.30,1.31
1712,0.54,-1.23,9.65,0.31,0.30,1.31
1717,0.54,-1.23,9.65,0.25,0.28,1.31
1722,0.54,-1.23,9.65,0.26,0.26,1.30
1726,0.54,-1.23,9.65,0.24,0.26,1.29
1732,-2.87,-0.08,9.16,0.24,0.26,1.29
1736,-2.87,-0.08,9.16,0.18,0.21,1.20
1741,-2.87,-0.08,9.16,0.15,0.15,1.12
1746,-2.87,-0.08,9.16,0.12,0.09,1.04
1753,0.50,-2.07,10.57,0.12,0.09,1.04
1756,0.50,-2.07,10.57,0.11,0.04,1.03
1761,0.50,-1.15,12.18,0.11,0.04,1.03
1766,1.99,-0.73,13.37,0.11,0.04,1.03
1771,1.80,-1.30,13.53,0.11,0.04,1.03
1776,1.80,-1.30,13.53,0.12,0.30,1.01
1781,1.07,-0.50,12.30,0.12,0.30,1.01
1788,1.42,-0.34,12.30,0.12,0.30,1.01
1791,1.42,-0.34,12.30,0.18,0.51,0.98
1796,-2.57,1.57,10.57,0.18,0.51,0.98
1802,-5.79,3.10,9.20,0.18,0.51,0.98
1806,-5.79,3.10,9.20,0.18,0.72,0.85
1811,-5.79,3.10,9.20,0.09,0.74,0.71
1817,-6.36,2.18,8.78,0.09,0.74,0.71
1821,-6.36,2.18,8.78,-0.05,0.53,0.40
1826,-6.36,2.18,8.78,-0.16,0.30,0.34
1831,5.21,-0.69,9.38,-0.16,0.30,0.34
1836,5.55,0.73,9.12,-0.16,0.30,0.34
1841,5.55,0.73,9.12,-0.21,-0.17,0.52
1846,5.55,0.73,9.12,-0.19,-0.08,0.54
1852,-5.21,8.23,6.70,-0.19,-0.08,0.54
1856,-5.21,8.23,6.70,-0.04,0.42,0.38
1861,-5.21,8.23,6.70,-0.04,0.59,0.25
1867,-5.21,8.23,6.70,-0.03,0.66,0.16
1872,-5.21,8.23,6.70,-0.05,0.63,0.11
1876,-5.21,8.23,6.70,-0.05,0.47,0.09
1881,-5.21,8.23,6.70,-0.10,0.26,0.08
1887,0.27,3.10,8.01,-0.10,0.26,0.08
1891,0.27,3.10,8.01,-0.37,-0.18,-0.09
1896,0.27,3.10,8.01,-0.55,-0.38,-0.18
1902,9.27,3.48,19.54,-0.55,-0.38,-0.18
1906,9.27,3.48,19.54,-0.66,-0.41,-0.17
1911,9.27,3.48,19.54,-0.47,-0.22,-0.07
1916,9.27,3.48,19.54,-0.31,0.05,0.01
1922,1.04,1.95,12.34,-0.31,0.05,0.01
1926,1.04,1.95,12.34,0.12,0.74,0.28
1932,1.04,1.95,12.34,0.18,1.03,0.42
1937,-2.14,0.80,5.98,0.18,1.03,0.42
1941,-2.14,0.80,5.98,0.17,1.07,0.57
1946,-2.14,0.80,5.98,0.05,0.89,0.54
1951,-2.14,0.80,5.98,-0.06,0.63,0.46
1957,-0.04,2.68,3.57,-0.06,0.63,0.46
1961,-0.04,2.68,3.57,-0.28,0.10,0.22
1966,-0.04,2.68,3.57,-0.35,-0.08,0.14
1972,-1.23,0.08,9.27,-0.35,-0.08,0.14
1976,-1.23,0.08,9.27,-0.39,-0.20,0.09
1981,-1.23,0.08,9.27,-0.33,-0.20,0.13
1986,-1.23,0.08,9.27,-0.25,-0.20,0.22
1992,0.08,-4.94,10.23,-0.25,-0.20,0.22
1996,0.08,-4.94,10.23,-0.05,-0.11,0.48
2001,0.08,-4.94,10.23,0.03,-0.05,0.60
2007,1.72,-1.15,9.77,0.03,-0.05,0.60
2012,1.72,-1.15,9.77,0.06,0.06,0.74
2016,1.72,-1.15,9.77,0.07,0.12,0.80
2021,1.72,-1.15,9.77,0.05,0.19,0.84
2027,0.04,-2.30,10.91,0.05,0.19,0.84
2031,0.04,-2.30,10.91,0.06,0.23,0.87
2036,0.04,-2.30,10.91,0.05,0.19,0.91
2042,1.88,-3.41,11.80,0.05,0.19,0.91
2046,1.88,-3.41,11.80,0.09,0.08,1.14
2051,1.88,-3.41,11.80,0.10,0.04,1.27
2057,4.94,-0.92,17.09,0.10,0.04,1.27
2061,4.94,-0.92,17.09,0.21,0.21,1.60
2066,4.94,-0.92,17.09,0.23,0.39,1.73
2071,4.94,-0.92,17.09,0.29,0.56,1.77
2076,-6.89,-1.76,5.63,0.29,0.56,1.77
2081,-6.89,-1.76,5.63,0.44,0.82,1.73
2086,-6.89,-1.76,5.63,0.48,0.78,1.68
2091,-6.89,-1.76,5.63,0.46,0.60,1.63
2096,-6.02,-2.30,-0.08,0.46,0.60,1.63
2102,-6.02,-2.30,-0.08,0.38,0.34,1.57
2106,-6.02,-2.30,-0.08,0.06,-0.28,1.39
2112,3.83,-3.18,8.82,0.06,-0.28,1.39
2116,3.83,-3.18,8.82,-0.25,-0.72,1.13
2121,3.83,-3.18,8.82,-0.29,-0.78,1.06
2127,3.83,-3.18,8.82,-0.28,-0.69,1.04
2132,3.83,-3.18,8.82,-0.00,-0.27,1.10
2136,3.83,-3.18,8.82,-0.01,0.48,1.17
2141,3.83,-3.18,8.82,-0.07,0.98,1.13
2147,-2.99,-0.69,15.14,-0.07,0.98,1.13
2151,-2.99,-0.69,15.14,0.15,1.05,1.13
2156,-2.99,-0.69,15.14,0.16,0.87,1.18
2162,-2.99,-0.69,15.14,0.15,0.69,1.24
2166,-2.99,-0.69,15.14,0.10,0.47,1.29
2171,-2.99,-0.69,15.14,0.06,0.31,1.30
2176,-2.99,-0.69,15.14,0.01,0.29,1.28
2182,-5.13,10.11,5.17,0.01,0.29,1.28
2186,-5.13,10.11,5.17,-0.11,0.58,0.93
2191,-5.13,10.11,5.17,-0.20,0.66,0.69
2196,-5.13,10.11,5.17,-0.28,0.62,0.51
2202,-5.13,10.11,5.17,-0.37,0.48,0.43
2206,-5.13,10.11,5.17,-0.46,0.27,0.43
2212,-5.13,10.11,5.17,-0.50,0.07,0.47
2217,-5.13,10.11,5.17,-0.47,-0.02,0.49
2221,-5.13,10.11,5.17,-0.48,-0.01,0.45
2226,-5.13,10.11,5.17,-0.47,0.03,0.36
2232,-2.34,5.21,11.30,-0.47,0.03,0.36
2236,-2.34,5.21,11.30,-0.41,0.32,0.15
2241,-2.34,5.21,11.30,-0.42,0.47,0.08
2247,-2.34,5.21,11.30,-0.40,0.49,0.04
2251,-2.34,5.21,11.30,-0.34,0.52,0.08
2256,-2.34,5.21,11.30,-0.31,0.59,0.16
2261,-2.34,5.21,11.30,-0.33,0.61,0.14
2267,-2.34,5.21,11.30,-0.39,0.56,0.03
2271,-2.34,5.21,11.30,-0.43,0.53,-0.12
2276,-2.34,5.21,11.30,-0.50,0.49,-0.32
2282,-2.34,5.21,11.30,-0.57,0.41,-0.51
2286,-2.34,5.21,11.30,-0.61,0.30,-0.62
2291,-2.34,5.21,11.30,-0.59,0.23,-0.62
2296,-2.34,5.21,11.30,-0.58,0.19,-0.55
2302,0.27,0.54,9.16,-0.58,0.19,-0.55
2306,0.27,0.54,9.16,-0.54,0.07,-0.41
2311,0.27,0.54,9.16,-0.50,0.02,-0.39
2316,0.27,0.54,9.16,-0.49,0.03,-0.41
2321,0.27,0.54,9.16,-0.47,0.02,-0.41
2326,0.27,0.54,9.16,-0.43,0.01,-0.36
2331,0.27,0.54,9.16,-0.38,0.05,-0.28
2337,0.27,0.96,7.73,-0.38,0.05,-0.28
2341,0.27,0.96,7.73,-0.29,0.21,-0.12
2346,0.27,0.96,7.73,-0.30,0.27,-0.12
2351,0.27,0.96,7.73,-0.28,0.34,-0.14
2356,-1.57,0.00,9.58,-0.28,0.34,-0.14
2362,-1.57,0.00,9.58,-0.29,0.37,-0.17
2366,-1.57,0.00,9.58,-0.30,0.29,-0.17
2372,-0.38,-0.92,9.42,-0.30,0.29,-0.17
2376,-0.38,-0.92,9.42,-0.29,0.11,-0.15
2381,-0.38,-0.92,9.42,-0.28,0.06,-0.09
2387,-0.38,-0.92,9.42,-0.24,0.04,-0.03
2391,-0.38,-0.92,9.42,-0.23,0.04,0.02
2396,-0.38,-0.92,9.42,-0.21,0.05,0.06
2401,-0.38,-0.92,9.42,-0.17,0.05,0.10
2407,-0.38,-0.92,9.42,-0.13,0.05,0.17
2411,-0.38,-0.92,9.42,-0.10,0.06,0.26
2416,-0.38,-0.92,9.42,-0.08,0.07,0.34
2422,-0.38,-0.92,9.42,-0.06,0.05,0.39
2426,-0.38,-0.92,9.42,-0.06,0.07,0.45
2431,-0.38,-0.92,9.42,-0.04,0.11,0.48
2437,-0.38,-0.92,9.42,-0.03,0.17,0.50
2441,-0.38,-0.92,9.42,-0.00,0.23,0.50
2446,-0.38,-0.92,9.42,0.00,0.27,0.49
2451,-0.38,-0.92,9.42,0.01,0.24,0.46
2457,-0.38,-0.92,9.42,0.01,0.16,0.47
2461,-0.38,-0.92,9.42,0.02,0.07,0.47
2466,-0.38,-0.92,9.42,0.02,-0.03,0.49
2472,-0.38,-0.92,9.42,0.01,-0.05,0.51
2476,-0.38,-0.92,9.42,0.01,-0.04,0.51
2481,-0.38,-0.92,9.42,0.01,0.01,0.49
2486,-0.38,-0.92,9.42,0.01,0.07,0.46
2492,-0.11,-0.65,9.73,0.01,0.07,0.46
2496,-0.11,-0.65,9.73,0.03,0.15,0.44
2501,-0.11,-0.65,9.73,0.04,0.14,0.45
2507,-0.11,-0.65,9.73,0.07,0.12,0.50
2511,-0.11,-0.65,9.73,0.08,0.11,0.55
2516,-0.11,-0.65,9.73,0.07,0.09,0.58
2521,-0.11,-0.65,9.73,0.07,0.09,0.60
2527,-0.69,0.00,10.42,0.07,0.09,0.60
2531,-0.69,0.00,10.42,0.08,0.13,0.62
2537,-0.69,0.00,10.42,0.09,0.16,0.62
2541,-0.69,0.00,10.42,0.12,0.15,0.62
2546,-0.69,0.00,10.42,0.11,0.12,0.62
2551,-0.69,0.00,10.42,0.12,0.08,0.64
2556,-0.69,0.00,10.42,0.10,0.03,0.63
2562,-2.18,-0.65,7.74,0.10,0.03,0.63
2566,-2.18,-0.65,7.74,0.07,-0.03,0.57
2571,-2.18,-0.65,7.74,0.06,-0.03,0.53
2576,-2.18,-0.65,7.74,0.03,-0.03,0.51
2582,-2.18,-0.65,7.74,0.02,-0.02,0.50
2586,-2.18,-0.65,7.74,0.01,0.01,0.50
2591,-2.18,-0.65,7.74,0.01,0.05,0.51
2597,-0.88,-0.73,11.88,0.01,0.05,0.51
2601,-0.88,-0.73,11.88,0.08,0.17,0.51
2606,-0.88,-0.73,11.88,0.11,0.18,0.52
2611,-0.88,-0.73,11.88,0.14,0.22,0.55
2616,-0.88,-0.73,11.88,0.14,0.25,0.57
2621,-0.88,-0.73,11.88,0.13,0.21,0.57
2626,-0.88,-0.73,11.88,0.13,0.17,0.59
2632,-2.76,0.38,10.11,0.13,0.17,0.59
2636,-2.76,0.38,10.11,0.10,0.18,0.60
2641,-2.76,0.38,10.11,0.08,0.17,0.56
2647,-2.76,0.38,10.11,0.07,0.12,0.53
2651,-2.76,0.38,10.11,0.05,0.11,0.51
2656,-2.76,0.38,10.11,0.02,0.09,0.50
2661,-2.76,0.38,10.11,0.02,0.02,0.50
2667,-0.38,1.19,9.42,0.02,0.02,0.50
2671,-0.38,1.19,9.42,-0.01,-0.07,0.56
2677,-0.38,1.19,9.42,-0.01,-0.06,0.59
2682,-0.38,1.19,9.42,0.00,-0.03,0.59
2686,-0.38,1.19,9.42,-0.02,0.05,0.59
2691,-0.38,1.19,9.42,-0.01,0.15,0.62
2696,-0.38,1.19,9.42,0.01,0.20,0.64
2702,0.80,-0.08,10.23,0.01,0.20,0.64
2706,0.80,-0.08,10.23,0.05,0.17,0.69
2711,0.80,-0.08,10.23,0.05,0.18,0.72
2717,0.80,-0.08,10.23,0.04,0.17,0.72
2721,0.80,-0.08,10.23,0.02,0.12,0.69
2726,0.80,-0.08,10.23,-0.02,0.08,0.68
2732,0.80,-0.08,10.23,-0.02,0.09,0.68
2736,0.80,-0.08,10.23,-0.04,0.10,0.68
2741,0.80,-0.08,10.23,-0.04,0.09,0.66
2746,0.80,-0.08,10.23,-0.04,0.10,0.67
2751,-0.23,-1.84,10.04,-0.04,0.10,0.67
2756,-0.23,-1.84,10.04,0.01,0.12,0.74
2762,-0.08,-0.88,7.66,0.01,0.12,0.74
2766,-0.08,-0.88,7.66,0.04,0.10,0.73
2771,-0.08,-0.88,7.66,0.02,0.09,0.72
2776,-0.08,-0.88,7.66,-0.00,0.08,0.71
2781,-0.08,-0.88,7.66,-0.00,0.04,0.70
2787,-0.04,-0.23,9.38,-0.00,0.04,0.70
2791,-0.04,-0.23,9.38,-0.05,0.00,0.79
2796,-0.04,-0.23,9.38,-0.03,0.01,0.81
2801,-0.04,-0.23,9.38,-0.04,0.02,0.79
2807,0.80,0.57,10.65,-0.04,0.02,0.79
2811,0.80,0.57,10.65,-0.05,0.07,0.79
2816,0.80,0.57,10.65,-0.04,0.08,0.82
2822,1.72,-1.19,12.68,-0.04,0.08,0.82
2826,1.72,-1.19,12.68,-0.01,0.14,0.90
2831,1.72,-1.19,12.68,-0.00,0.17,0.95
2836,1.72,-1.19,12.68,0.01,0.23,0.99
2842,-1.68,1.07,10.84,0.01,0.23,0.99
2846,-1.68,1.07,10.84,0.01,0.31,0.96
2851,-1.68,1.07,10.84,-0.01,0.29,0.90
2857,-0.34,0.11,9.30,-0.01,0.29,0.90
2861,-0.34,0.11,9.30,-0.05,0.14,0.91
2866,-0.34,0.11,9.30,-0.08,0.05,0.95
2872,-0.34,0.11,9.30,-0.13,0.01,0.97
2877,1.30,2.07,10.73,-0.13,0.01,0.97
2881,1.30,2.07,10.73,-0.21,0.04,0.89
2886,1.30,2.07,10.73,-0.22,0.08,0.84
2892,-1.27,0.54,9.61,-0.22,0.08,0.84
2896,-1.27,0.54,9.61,-0.20,0.20,0.81
2901,-1.27,0.54,9.61,-0.20,0.25,0.80
2907,-1.27,0.54,9.61,-0.19,0.27,0.77
2911,-1.27,0.54,9.61,-0.20,0.25,0.76
2917,-1.27,0.54,9.61,-0.24,0.20,0.76
2921,-1.27,0.54,9.61,-0.25,0.19,0.78
2927,-0.11,1.04,10.03,-0.25,0.19,0.78
2931,-0.11,1.04,10.03,-0.25,0.23,0.76
2936,-0.11,1.04,10.03,-0.25,0.25,0.73
2942,-0.11,1.04,10.03,-0.25,0.29,0.72
2946,-0.11,1.04,10.03,-0.26,0.34,0.70
2951,-0.11,1.04,10.03,-0.29,0.33,0.65
2956,-0.11,1.04,10.03,-0.32,0.30,0.61
2962,-1.42,0.34,10.69,-0.32,0.30,0.61
2966,-1.42,0.34,10.69,-0.33,0.30,0.63
2971,-1.42,0.34,10.69,-0.33,0.28,0.63
2977,-1.42,0.34,10.69,-0.34,0.26,0.62
2981,-1.42,0.34,10.69,-0.36,0.28,0.58
2986,-1.42,0.34,10.69,-0.36,0.29,0.53
2991,-1.42,0.34,10.69,-0.36,0.27,0.48
2996,-3.10,1.95,8.96,-0.36,0.27,0.48
3002,-3.10,1.95,8.96,-0.37,0.29,0.44
3007,-3.10,1.95,8.96,-0.37,0.24,0.42
3011,-3.10,1.95,8.96,-0.40,0.20,0.39
3016,-3.10,1.95,8.96,-0.44,0.21,0.36
3021,-3.10,1.95,8.96,-0.46,0.19,0.32
3027,-3.10,1.95,8.96,-0.51,0.17,0.28
3032,-1.30,2.03,12.22,-0.51,0.17,0.28
3036,-1.30,2.03,12.22,-0.55,0.23,0.21
3041,-1.30,2.03,12.22,-0.55,0.26,0.18
3047,-1.95,0.77,10.39,-0.55,0.26,0.18
3051,-1.95,0.77,10.39,-0.52,0.36,0.14
3057,-1.95,0.77,10.39,-0.49,0.35,0.13
3061,-1.95,0.77,10.39,-0.49,0.35,0.13
3067,0.11,-0.54,8.54,-0.49,0.35,0.13
3071,0.11,-0.54,8.54,-0.49,0.29,0.09
3076,0.11,-0.54,8.54,-0.51,0.26,0.06
3082,-1.88,0.11,7.93,-0.51,0.26,0.06
3086,-1.88,0.11,7.93,-0.51,0.25,-0.00
3091,-1.88,0.11,7.93,-0.51,0.24,-0.04
3096,-1.88,0.11,7.93,-0.52,0.24,-0.07
3102,-1.30,1.72,7.51,-0.52,0.24,-0.07
3106,-1.30,1.72,7.51,-0.54,0.16,-0.13
3111,-1.30,1.72,7.51,-0.58,0.12,-0.16
3117,0.84,0.92,8.31,-0.58,0.12,-0.16
3121,0.84,0.92,8.31,-0.60,0.06,-0.14
3126,0.84,0.92,8.31,-0.61,0.06,-0.14
3131,0.84,0.92,8.31,-0.62,0.07,-0.13
3137,1.65,0.69,10.73,-0.62,0.07,-0.13
3141,1.65,0.69,10.73,-0.59,0.12,-0.12
3146,1.65,0.69,10.73,-0.56,0.13,-0.08
3152,1.00,0.92,9.23,-0.56,0.13,-0.08
3156,1.00,0.92,9.23,-0.51,0.21,0.03
3161,1.00,0.92,9.23,-0.49,0.22,0.04
3167,1.00,0.92,9.23,-0.53,0.23,0.02
3171,1.00,0.92,9.23,-0.54,0.21,0.01
3177,1.00,0.92,9.23,-0.55,0.19,0.01
3182,1.00,0.92,9.23,-0.56,0.19,0.00
3187,0.11,1.65,9.88,-0.56,0.19,0.00
3191,0.11,1.65,9.88,-0.57,0.15,-0.04
3196,0.11,1.65,9.88,-0.59,0.13,-0.06
3202,0.11,1.65,9.88,-0.58,0.11,-0.10
3206,0.11,1.65,9.88,-0.56,0.09,-0.14
3211,0.11,1.65,9.88,-0.57,0.06,-0.17
3216,0.11,1.65,9.88,-0.59,0.04,-0.20
3222,0.23,0.23,9.23,-0.59,0.04,-0.20
3226,0.23,0.23,9.23,-0.59,0.01,-0.26
3231,0.23,0.23,9.23,-0.58,0.02,-0.28
3237,0.23,0.23,9.23,-0.56,0.07,-0.28
3241,0.23,0.23,9.23,-0.56,0.12,-0.27
3246,0.23,0.23,9.23,-0.57,0.17,-0.29
3252,0.23,0.23,9.23,-0.58,0.17,-0.32
3257,0.04,-0.19,9.20,-0.58,0.17,-0.32
3261,0.04,-0.19,9.20,-0.56,0.11,-0.30
3266,0.04,-0.19,9.20,-0.54,0.09,-0.26
3272,1.61,-0.23,10.99,-0.54,0.09,-0.26
3276,1.61,-0.23,10.99,-0.49,0.09,-0.19
3281,1.61,-0.23,10.99,-0.46,0.13,-0.17
3286,1.61,-0.23,10.99,-0.43,0.19,-0.15
3292,-2.03,0.54,9.58,-0.43,0.19,-0.15
3297,-2.03,0.54,9.58,-0.40,0.25,-0.17
3301,-2.03,0.54,9.58,-0.42,0.22,-0.19
3306,-1.23,-0.04,7.97,-0.42,0.22,-0.19
3311,-1.23,-0.04,7.97,-0.41,0.17,-0.20
3317,-1.23,-0.04,7.97,-0.43,0.11,-0.21
3322,-1.23,-0.04,7.97,-0.44,0.01,-0.23
3327,-1.53,0.34,7.85,-0.44,0.01,-0.23
3331,-1.53,0.34,7.85,-0.48,-0.02,-0.32
3336,-1.53,0.34,7.85,-0.49,-0.03,-0.37
3342,-1.61,0.19,8.96,-0.49,-0.03,-0.37
3346,-1.61,0.19,8.96,-0.51,0.00,-0.43
3351,-1.61,0.19,8.96,-0.49,0.03,-0.46
3356,-1.61,0.19,8.96,-0.48,0.05,-0.47
3362,0.61,-0.04,11.45,-0.48,0.05,-0.47
3366,0.61,-0.04,11.45,-0.47,0.09,-0.46
3371,0.61,-0.04,11.45,-0.47,0.12,-0.49
3377,-0.73,1.34,9.80,-0.47,0.12,-0.49
3381,-0.73,1.34,9.80,-0.44,0.21,-0.52
3386,-0.73,1.34,9.80,-0.42,0.23,-0.52
3391,-0.73,1.34,9.80,-0.41,0.23,-0.53
3396,-0.38,2.84,8.16,-0.41,0.23,-0.53
3401,-0.38,2.84,8.16,-0.42,0.16,-0.56
3407,-0.38,2.84,8.16,-0.46,0.12,-0.58
3412,-1.23,3.37,8.93,-0.46,0.12,-0.58
3416,-1.23,3.37,8.93,-0.50,0.10,-0.61
3421,-1.23,3.37,8.93,-0.51,0.09,-0.63
3427,-1.23,3.37,8.93,-0.52,0.09,-0.65
3431,-1.23,3.37,8.93,-0.53,0.09,-0.67
3436,-1.23,3.37,8.93,-0.53,0.07,-0.69
3442,-1.23,3.37,8.93,-0.54,0.03,-0.72
3447,-1.23,3.37,8.93,-0.54,-0.01,-0.72
3451,-1.23,3.37,8.93,-0.54,-0.04,-0.71
3456,-1.23,3.37,8.93,-0.54,-0.06,-0.71
3462,-0.96,2.34,8.58,-0.54,-0.06,-0.71
3466,-0.96,2.34,8.58,-0.56,-0.05,-0.73
3471,-0.96,2.34,8.58,-0.54,-0.03,-0.71
3476,-0.96,2.34,8.58,-0.56,-0.02,-0.71
3482,0.08,1.00,13.06,-0.56,-0.02,-0.71
3486,0.08,1.00,13.06,-0.54,0.08,-0.73
3491,0.08,1.00,13.06,-0.51,0.15,-0.74
3497,0.00,0.27,10.77,-0.51,0.15,-0.74
3501,0.00,0.27,10.77,-0.45,0.19,-0.70
3506,0.00,0.27,10.77,-0.46,0.18,-0.69
3511,0.00,0.27,10.77,-0.45,0.15,-0.68
3517,1.38,1.19,10.53,-0.45,0.15,-0.68
3521,1.38,1.19,10.53,-0.47,0.11,-0.70
3526,1.38,1.19,10.53,-0.46,0.13,-0.72
3532,-2.41,0.04,6.89,-0.46,0.13,-0.72
3536,-2.41,0.04,6.89,-0.39,0.19,-0.72
3541,-2.41,0.04,6.89,-0.36,0.17,-0.70
3546,-2.41,0.04,6.89,-0.34,0.13,-0.67
3552,-0.80,0.96,7.81,-0.34,0.13,-0.67
3556,-0.80,0.96,7.81,-0.38,-0.02,-0.66
3561,-0.80,0.96,7.81,-0.39,-0.12,-0.66
3566,-0.80,0.96,7.81,-0.38,-0.18,-0.62
3571,0.65,-1.11,9.34,-0.38,-0.18,-0.62
3577,0.65,-1.11,9.34,-0.34,-0.18,-0.55
3582,0.65,-1.11,9.34,-0.26,-0.05,-0.42
3587,-0.96,-0.61,10.88,-0.26,-0.05,-0.42
3591,-0.96,-0.61,10.88,-0.18,0.09,-0.36
3596,-0.96,-0.61,10.88,-0.16,0.09,-0.35
3602,0.84,-1.84,10.49,-0.16,0.09,-0.35
3606,0.84,-1.84,10.49,-0.11,0.06,-0.24
3611,0.84,-1.84,10.49,-0.11,0.03,-0.19
3616,0.84,-1.84,10.49,-0.10,0.04,-0.18
3622,0.65,-2.84,10.92,-0.10,0.04,-0.18
3626,0.65,-2.84,10.92,-0.07,0.09,-0.15
3632,0.65,-2.84,10.92,-0.05,0.14,-0.13
3637,-1.30,-2.57,10.57,-0.05,0.14,-0.13
3641,-1.30,-2.57,10.57,0.00,0.19,-0.08
3646,-1.30,-2.57,10.57,0.02,0.19,-0.08
3651,-0.15,-1.42,7.70,0.02,0.19,-0.08
3657,-0.19,-1.30,6.79,0.02,0.19,-0.08
3661,-0.19,-1.30,6.79,0.00,0.07,-0.04
3666,-0.19,-1.30,6.79,0.00,0.03,-0.02
3672,-1.07,-0.96,8.77,0.00,0.03,-0.02
3676,-1.07,-0.96,8.77,-0.02,0.05,-0.01
3681,-1.07,-0.96,8.77,-0.01,0.07,0.00
3687,-1.07,-0.96,8.77,-0.01,0.06,0.02
3691,-1.07,-0.96,8.77,-0.01,0.03,0.05
3696,-1.07,-0.96,8.77,-0.02,-0.02,0.07
3702,-1.07,-0.96,8.77,-0.02,-0.06,0.09
3707,-1.07,-0.96,8.77,-0.03,-0.08,0.10
3711,-1.07,-0.96,8.77,-0.02,-0.08,0.12
3716,-1.07,-0.96,8.77,0.00,-0.06,0.14
3721,-2.30,-1.34,10.53,0.00,-0.06,0.14
3727,-2.57,-1.46,10.57,0.00,-0.06,0.14
3731,-2.57,-1.46,10.57,0.06,0.18,0.15
3736,-2.57,-1.46,10.57,0.07,0.23,0.12
3742,-2.34,-1.91,10.35,0.07,0.23,0.12
3746,-2.34,-1.91,10.35,0.05,0.14,0.09
3751,-2.34,-1.91,10.35,0.04,-0.00,0.10
3757,2.68,-1.91,8.46,0.04,-0.00,0.10
3761,2.68,-1.91,8.46,-0.01,-0.23,0.09
3766,2.68,-1.91,8.46,-0.01,-0.25,0.06
3771,2.68,-1.91,8.46,-0.04,-0.23,0.02
3777,-1.04,-0.23,9.34,-0.04,-0.23,0.02
3781,-1.04,-0.23,9.34,-0.02,-0.01,-0.06
3786,-1.04,-0.23,9.34,-0.01,0.12,-0.08
3792,-2.45,-0.77,10.11,-0.01,0.12,-0.08
3796,-2.45,-0.77,10.11,-0.01,0.21,-0.13
3801,-2.45,-0.77,10.11,-0.03,0.18,-0.16
3806,-2.45,-0.77,10.11,-0.04,0.11,-0.19
3812,0.08,-1.04,9.27,-0.04,0.11,-0.19
3816,0.08,-1.04,9.27,-0.05,-0.04,-0.23
3821,0.08,-1.04,9.27,-0.06,-0.04,-0.24
3827,0.08,-1.04,9.27,-0.04,-0.01,-0.24
3831,0.08,-1.04,9.27,-0.02,0.04,-0.23
3836,0.08,-1.04,9.27,-0.00,0.08,-0.21
3841,0.08,-1.04,9.27,0.00,0.11,-0.21
3847,-1.07,0.04,11.19,0.00,0.11,-0.21
3851,-1.07,0.04,11.19,-0.03,0.04,-0.23
3856,-1.07,0.04,11.19,-0.03,0.01,-0.25
3862,-0.30,-0.69,9.42,-0.03,0.01,-0.25
3866,-0.30,-0.69,9.42,-0.03,0.03,-0.22
3871,-0.30,-0.69,9.42,-0.01,0.05,-0.20
3877,-0.30,-0.69,9.42,-0.01,0.08,-0.21
3881,-0.30,-0.69,9.42,-0.01,0.12,-0.23
3886,-0.30,-0.69,9.42,-0.04,0.09,-0.23
3891,-0.30,-0.69,9.42,-0.06,0.02,-0.24
3896,-1.38,0.65,7.86,-0.06,0.02,-0.24
3901,-1.38,0.65,7.86,-0.11,-0.13,-0.28
3906,-1.38,0.65,7.86,-0.11,-0.17,-0.29
3912,0.69,-0.04,11.64,-0.11,-0.17,-0.29
3916,0.69,-0.04,11.64,-0.13,-0.12,-0.28
3921,0.69,-0.04,11.64,-0.11,-0.04,-0.30
3926,0.69,-0.04,11.64,-0.11,0.04,-0.35
3932,-0.57,-0.65,11.00,-0.11,0.04,-0.35
3936,-0.57,-0.65,11.00,-0.07,0.13,-0.36
3941,-0.57,-0.65,11.00,-0.04,0.10,-0.32
3947,-0.57,-0.65,11.00,-0.05,0.06,-0.31
3951,-0.57,-0.65,11.00,-0.07,0.04,-0.35
3956,-0.57,-0.65,11.00,-0.09,0.02,-0.40
3961,-0.57,-0.65,11.00,-0.09,0.02,-0.44
3967,-0.57,-0.65,11.00,-0.07,0.03,-0.43
3971,-0.57,-0.65,11.00,-0.04,0.07,-0.40
3976,-0.57,-0.65,11.00,-0.02,0.11,-0.37
3981,-1.00,0.11,10.39,-0.02,0.11,-0.37
3987,0.30,-0.46,11.19,-0.02,0.11,-0.37
3991,0.30,-0.46,11.19,-0.02,0.10,-0.44
3997,0.30,-0.46,11.19,-0.03,0.04,-0.45
4001,0.30,-0.46,11.19,-0.02,-0.01,-0.43
4006,0.30,-0.46,11.19,0.01,-0.03,-0.39
4011,0.30,-0.46,11.19,0.00,-0.03,-0.35
4017,1.19,-0.50,9.69,0.00,-0.03,-0.35
4021,1.19,-0.50,9.69,-0.02,-0.03,-0.37
4026,1.19,-0.50,9.69,-0.01,-0.02,-0.39
4032,1.19,-0.50,9.69,0.00,0.02,-0.39
4036,1.19,-0.50,9.69,0.01,0.06,-0.36
4041,1.19,-0.50,9.69,0.03,0.12,-0.33
4046,1.19,-0.50,9.69,0.04,0.14,-0.31
4052,0.34,0.46,8.89,0.04,0.14,-0.31
4056,0.34,0.46,8.89,0.04,0.11,-0.29
4061,0.34,0.46,8.89,0.04,0.05,-0.28
4066,0.34,0.46,8.89,0.04,0.01,-0.26
4071,0.34,0.46,8.89,0.04,0.00,-0.25
4076,0.34,0.46,8.89,0.05,0.02,-0.26
4081,0.34,0.46,8.89,0.06,0.02,-0.25
4087,0.34,0.46,8.89,0.07,0.02,-0.25
4091,0.34,0.46,8.89,0.07,-0.00,-0.24
4096,0.34,0.46,8.89,0.07,-0.03,-0.23
4101,0.34,0.46,8.89,0.06,-0.03,-0.23
4107,-0.80,-1.23,9.20,0.06,-0.03,-0.23
4111,-0.80,-1.23,9.20,0.05,0.03,-0.28
4116,-0.80,-1.23,9.20,0.05,0.05,-0.29
4121,-1.88,-1.68,8.93,0.05,0.05,-0.29
4126,-1.88,-1.68,8.93,0.06,0.04,-0.28
4131,-1.88,-1.68,8.93,0.07,0.01,-0.28
4137,-1.88,-1.68,8.93,0.06,-0.02,-0.28
4141,-1.88,-1.68,8.93,0.07,-0.05,-0.29
4146,-1.88,-1.68,8.93,0.07,-0.04,-0.29
4151,-1.88,-1.68,8.93,0.11,0.01,-0.28
4157,-2.84,-1.30,9.54,0.11,0.01,-0.28
4161,-2.84,-1.30,9.54,0.15,0.16,-0.22
4166,-3.10,-0.69,9.73,0.15,0.16,-0.22
4172,-3.10,-0.69,9.73,0.16,0.17,-0.20
4176,-3.10,-0.69,9.73,0.15,0.12,-0.21
4181,-3.10,-0.69,9.73,0.15,0.07,-0.20
4187,-3.10,-0.69,9.73,0.15,0.04,-0.18
4191,-3.10,-0.69,9.73,0.13,0.02,-0.14
4196,-3.10,-0.69,9.73,0.11,0.00,-0.14
4201,-3.10,-0.69,9.73,0.11,-0.04,-0.14
4207,-3.10,-0.69,9.73,0.10,-0.04,-0.15
4211,-3.10,-0.69,9.73,0.10,-0.02,-0.14
4216,-3.10,-0.69,9.73,0.11,0.03,-0.12
4221,-3.10,-0.69,9.73,0.11,0.04,-0.09
4227,-3.10,-0.69,9.73,0.12,0.01,-0.07
4231,-3.10,-0.69,9.73,0.11,-0.02,-0.07
4237,-3.10,-0.69,9.73,0.10,-0.05,-0.06
4241,-3.10,-0.69,9.73,0.11,-0.07,-0.04
4246,-0.23,-1.23,8.88,0.11,-0.07,-0.04
4251,-0.23,-1.23,8.88,0.11,-0.06,-0.04
4257,-0.23,-1.23,8.88,0.13,-0.05,-0.04
4261,-0.23,-1.23,8.88,0.14,-0.04,0.00
4266,-0.23,-1.23,8.88,0.15,-0.02,0.03
4271,-0.23,-1.23,8.88,0.14,-0.00,0.04
4276,1.04,-0.19,10.15,0.14,-0.00,0.04
4281,1.04,-0.19,10.15,0.16,0.03,0.01
4286,1.04,-0.19,10.15,0.16,0.03,0.03
4291,1.04,-0.19,10.15,0.17,0.04,0.06
4296,1.04,-0.19,10.15,0.18,0.05,0.09
4301,-1.15,-1.00,8.96,0.18,0.05,0.09
4306,-1.15,-1.00,8.96,0.18,0.05,0.10
4311,-1.53,-1.11,7.39,0.18,0.05,0.10
4316,-1.53,-1.11,7.39,0.16,0.02,0.09
4321,-1.53,-1.11,7.39,0.17,-0.03,0.11
4327,-1.53,-1.11,7.39,0.17,-0.09,0.13
4332,-1.53,-1.11,7.39,0.16,-0.13,0.16
4336,2.34,-1.04,11.98,0.16,-0.13,0.16
4341,1.04,-0.92,12.38,0.16,-0.13,0.16
4346,1.04,-0.92,12.38,0.18,-0.08,0.21
4351,1.04,-0.92,12.38,0.20,0.03,0.21
4356,1.04,-0.92,12.38,0.22,0.13,0.20
4361,1.04,-0.92,12.38,0.24,0.18,0.22
4366,-0.42,-1.11,9.00,0.24,0.18,0.22
4371,-0.42,-1.11,9.00,0.22,0.10,0.27
4376,-0.42,-1.11,9.00,0.18,0.01,0.26
4381,-0.42,-1.11,9.00,0.16,-0.04,0.22
4386,-0.42,-1.11,9.00,0.13,-0.08,0.18
4391,-0.42,-1.11,9.00,0.11,-0.07,0.16
4397,-0.42,-1.11,9.00,0.12,-0.04,0.15
4402,-0.42,-1.11,9.00,0.14,0.01,0.15
4406,-2.03,1.15,9.92,0.14,0.01,0.15
4411,-1.00,-0.15,10.23,0.14,0.01,0.15
4416,-1.00,-0.15,10.23,0.09,0.05,0.09
4421,-1.00,-0.15,10.23,0.07,-0.02,0.06
4426,-1.00,-0.15,10.23,0.06,-0.09,0.03
4432,-1.00,-0.15,10.23,0.05,-0.12,0.00
4436,-1.00,-0.15,10.23,0.06,-0.11,-0.00
4441,1.15,-0.80,10.35,0.06,-0.11,-0.00
4446,1.15,-0.80,10.35,0.05,-0.04,0.01
4451,1.15,-0.80,10.35,0.06,-0.00,-0.02
4456,1.15,-0.80,10.35,0.05,0.04,-0.09
4461,1.15,-0.80,10.35,0.05,0.11,-0.14
4467,1.15,-0.80,10.35,0.06,0.14,-0.15
4472,1.15,-0.80,10.35,0.06,0.14,-0.15
4476,-1.27,0.73,8.93,0.06,0.14,-0.15
4481,-1.30,-0.04,9.65,0.06,0.14,-0.15
4487,-1.30,-0.04,9.65,0.02,0.09,-0.26
4491,-1.30,-0.04,9.65,0.02,0.04,-0.28
4496,-0.23,-0.34,10.42,0.02,0.04,-0.28
4501,-0.23,-0.34,10.42,0.02,-0.02,-0.27
4506,-0.23,-0.34,10.42,0.00,-0.02,-0.30
4511,-0.23,-0.34,10.42,0.00,-0.00,-0.33
4517,-0.23,-0.34,10.42,0.01,0.02,-0.35
4522,-0.23,-0.34,10.42,0.01,0.02,-0.35
4526,-1.19,0.23,9.34,0.01,0.02,-0.35
4531,-1.27,0.08,10.19,0.01,0.02,-0.35
4537,-1.27,0.08,10.19,-0.00,0.03,-0.35
4541,-2.38,-0.19,8.92,-0.00,0.03,-0.35
4546,-2.45,-1.07,9.46,-0.00,0.03,-0.35
4552,-2.45,-1.07,9.46,0.03,0.05,-0.32
4557,-2.45,-1.07,9.46,0.05,0.03,-0.28
4561,-0.30,-1.27,10.49,0.05,0.03,-0.28
4566,-0.65,-1.42,9.85,0.05,0.03,-0.28
4572,-0.65,-1.42,9.85,0.07,-0.10,-0.20
4576,-0.27,-1.38,10.41,0.07,-0.10,-0.20
4581,-1.65,-1.19,10.69,0.07,-0.10,-0.20
4586,-2.34,-1.04,10.04,0.07,-0.10,-0.20
4591,-2.34,-1.04,10.04,0.18,0.09,-0.07
4596,-2.34,-1.04,10.04,0.21,0.14,-0.04
4601,-2.34,-1.04,10.04,0.21,0.13,-0.02
4607,-2.34,-1.04,10.04,0.20,0.08,-0.00
4611,-0.34,-1.15,9.38,0.20,0.08,-0.00
4616,0.92,-1.42,8.81,0.20,0.08,-0.00
4621,0.92,-1.42,8.81,0.20,-0.13,0.07
4627,1.11,-1.42,8.84,0.20,-0.13,0.07
4632,1.11,-1.42,8.84,0.17,-0.17,0.07
4636,-1.72,-1.88,8.92,0.17,-0.17,0.07
4641,-0.96,-1.99,9.20,0.17,-0.17,0.07
4646,-0.96,-1.99,9.20,0.21,0.01,0.13
4651,-1.27,-2.11,8.84,0.21,0.01,0.13
4656,-1.27,-2.11,8.84,0.21,-0.01,0.14
4662,0.46,-1.91,9.96,0.21,-0.01,0.14
4666,0.54,-1.80,9.58,0.21,-0.01,0.14
4671,0.42,-2.49,9.46,0.21,-0.01,0.14
4676,0.42,-2.49,9.46,0.21,-0.05,0.14
4681,0.42,-2.49,9.46,0.22,-0.02,0.15
4686,0.42,-2.49,9.46,0.23,-0.00,0.18
4692,0.42,-2.49,9.46,0.24,-0.01,0.19
4696,0.08,-1.46,10.73,0.24,-0.01,0.19
4701,0.50,-1.15,10.69,0.24,-0.01,0.19
4707,0.50,-1.15,10.69,0.21,-0.04,0.16
4711,0.50,-1.15,10.69,0.21,-0.04,0.18
4716,0.27,-1.57,9.89,0.21,-0.04,0.18
4721,-0.88,-1.84,10.00,0.21,-0.04,0.18
4727,-0.88,-1.84,10.00,0.22,0.02,0.23
4732,-0.88,-1.84,10.00,0.21,0.03,0.22
4736,0.27,-0.38,7.97,0.21,0.03,0.22
4741,-0.08,-0.57,7.16,0.21,0.03,0.22
4746,0.46,-0.84,7.43,0.21,0.03,0.22
4751,0.46,-0.84,7.43,0.19,-0.12,0.29
4757,0.46,-0.84,7.43,0.18,-0.14,0.30
4761,0.46,-0.84,7.43,0.17,-0.15,0.31
4766,1.46,-1.07,11.22,0.17,-0.15,0.31
4771,0.27,-1.11,12.02,0.17,-0.15,0.31
4777,0.27,-1.11,12.02,0.19,-0.08,0.33
4782,0.27,-1.11,12.02,0.20,-0.02,0.35
4786,-0.30,-0.61,9.31,0.20,-0.02,0.35
4791,0.42,0.11,8.70,0.20,-0.02,0.35
4796,0.42,0.11,8.70,0.21,0.01,0.39
4801,0.46,-0.50,9.50,0.21,0.01,0.39
4806,0.38,-0.57,8.82,0.21,0.01,0.39
4811,0.38,-0.57,8.82,0.13,-0.01,0.35
4816,0.38,-0.57,8.82,0.12,-0.00,0.32
4821,-2.61,-0.50,8.01,0.12,-0.00,0.32
4826,-3.48,0.23,8.16,0.12,-0.00,0.32
4832,-3.48,0.23,8.16,0.08,0.06,0.26
4836,-2.14,0.15,9.00,0.08,0.06,0.26
4841,-0.88,0.00,9.39,0.08,0.06,0.26
4846,-0.73,-0.15,9.00,0.08,0.06,0.26
4851,-0.69,-0.50,9.00,0.08,0.06,0.26
4856,-1.46,-0.50,8.85,0.08,0.06,0.26
4861,-1.46,-0.50,8.85,0.02,-0.11,0.13
4867,-1.46,-0.50,8.85,0.02,-0.07,0.13
4871,-2.07,0.50,10.23,0.02,-0.07,0.13
4876,-1.57,1.07,10.04,0.02,-0.07,0.13
4882,-1.57,1.07,10.04,-0.02,0.03,0.07
4886,-1.57,1.07,10.04,-0.02,0.07,0.04
4891,-1.76,0.34,10.30,-0.02,0.07,0.04
4896,-1.19,1.00,9.65,-0.02,0.07,0.04
4901,-1.19,1.00,9.65,-0.03,0.08,0.02
4906,-1.11,2.07,9.54,-0.03,0.08,0.02
4911,-2.07,1.99,10.77,-0.03,0.08,0.02
4917,-2.07,1.99,10.77,-0.08,0.07,-0.04
4921,-1.80,1.46,10.00,-0.08,0.07,-0.04
4826,-3.48,0.23,8.16,0.12,-0.00,0.32
4832,-3.48,0.23,8.16,0.08,0.06,0.26
4836,-2.14,0.15,9.00,0.08,0.06,0.26
4841,-0.88,0.00,9.39,0.08,0.06,0.26
4846,-0.73,-0.15,9.00,0.08,0.06,0.26
4851,-0.69,-0.50,9.00,0.08,0.06,0.26
4856,-1.46,-0.50,8.85,0.08,0.06,0.26
4861,-1.46,-0.50,8.85,0.02,-0.11,0.13
4867,-1.46,-0.50,8.85,0.02,-0.07,0.13
4871,-2.07,0.50,10.23,0.02,-0.07,0.13
4876,-1.57,1.07,10.04,0.02,-0.07,0.13
4882,-1.57,1.07,10.04,-0.02,0.03,0.07
4886,-1.57,1.07,10.04,-0.02,0.07,0.04
4891,-1.76,0.34,10.30,-0.02,0.07,0.04
4896,-1.19,1.00,9.65,-0.02,0.07,0.04
4901,-1.19,1.00,9.65,-0.03,0.08,0.02
