timestamp,accX,accY,accZ,gyroX,gyroY,gyroZ
Break
6,-1.34,-0.61,10.11,0.04,-0.03,0.07
19,-1.42,-0.57,10.07,0.04,-0.03,0.07
20,-1.53,0.96,10.77,0.04,-0.03,0.07
22,-1.53,0.96,10.77,-0.05,0.04,0.01
26,0.50,-0.50,9.42,-0.05,0.04,0.01
31,0.50,-0.50,9.42,-0.07,-0.03,0.01
37,0.19,-0.50,7.85,-0.07,-0.03,0.01
41,0.19,-0.50,7.85,-0.08,-0.12,-0.01
46,1.76,-0.27,8.62,-0.08,-0.12,-0.01
51,1.61,0.34,9.27,-0.08,-0.12,-0.01
56,1.61,0.34,9.27,-0.08,-0.07,0.03
61,1.61,0.34,9.27,-0.06,0.03,0.03
66,-1.15,-0.04,11.22,-0.06,0.03,0.03
72,-1.46,0.15,10.99,-0.06,0.03,0.03
76,-1.46,0.15,10.99,-0.04,0.19,0.02
82,-1.46,0.15,10.99,-0.04,0.18,0.02
87,-2.72,0.46,6.16,-0.04,0.18,0.02
91,-2.72,0.46,6.16,-0.07,0.09,0.03
96,-2.72,0.46,6.16,-0.09,0.01,0.04
103,-0.04,0.54,8.20,-0.09,0.01,0.04
106,-0.04,0.54,8.20,-0.12,-0.13,0.02
111,-0.04,0.54,8.20,-0.13,-0.15,0.02
116,-0.04,0.54,8.20,-0.11,-0.10,0.02
122,-1.00,-0.11,11.68,-0.11,-0.10,0.02
126,-1.00,-0.11,11.68,-0.07,0.07,0.02
131,-1.15,-1.00,10.54,-0.07,0.07,0.02
136,-1.34,-0.73,9.46,-0.07,0.07,0.02
142,-0.23,-0.77,9.61,-0.07,0.07,0.02
146,-0.23,-0.77,9.61,-0.09,0.10,0.00
151,-0.23,-0.77,9.61,-0.11,0.04,-0.04
157,-1.11,-0.46,8.39,-0.11,0.04,-0.04
161,-1.11,-0.46,8.39,-0.12,0.05,-0.07
166,-1.11,-0.46,8.39,-0.11,0.10,-0.05
172,-1.42,0.50,9.89,-0.11,0.10,-0.05
176,-1.42,0.50,9.89,-0.13,0.10,-0.08
181,-1.42,0.50,9.89,-0.15,0.05,-0.12
186,-0.38,0.27,8.28,-0.15,0.05,-0.12
192,0.38,-0.96,8.66,-0.15,0.05,-0.12
196,0.38,-0.96,8.66,-0.15,-0.14,-0.12
201,0.38,-0.96,8.66,-0.15,-0.13,-0.11
207,-0.57,0.30,9.04,-0.15,-0.13,-0.11
211,-0.57,0.30,9.04,-0.13,-0.01,-0.13
216,-0.57,0.30,9.04,-0.14,0.06,-0.15
221,0.08,-0.27,11.84,-0.14,0.06,-0.15
227,-0.27,-0.08,12.72,-0.14,0.06,-0.15
231,-0.27,-0.08,12.72,-0.12,0.09,-0.19
236,-0.27,-0.08,12.72,-0.12,0.05,-0.19
242,1.42,-1.88,10.27,-0.12,0.05,-0.19
246,1.42,-1.88,10.27,-0.09,0.03,-0.18
251,1.42,-1.88,10.27,-0.08,0.06,-0.16
256,1.42,-1.88,10.27,-0.09,0.09,-0.16
262,-0.88,0.19,8.27,-0.09,0.09,-0.16
266,-0.88,0.19,8.27,-0.14,0.09,-0.21
271,-0.88,0.19,8.27,-0.17,0.06,-0.26
277,-1.57,0.46,8.12,-0.17,0.06,-0.26
282,-1.57,0.46,8.12,-0.19,0.03,-0.29
286,-1.57,0.46,8.12,-0.19,0.03,-0.29
291,0.77,-0.80,9.65,-0.19,0.03,-0.29
297,1.38,-0.50,10.45,-0.19,0.03,-0.29
301,1.38,-0.50,10.45,-0.13,-0.08,-0.26
306,1.38,-0.50,10.45,-0.11,-0.06,-0.24
313,-1.42,-0.23,10.27,-0.11,-0.06,-0.24
316,-1.42,-0.23,10.27,-0.09,0.04,-0.24
321,-1.42,-0.23,10.27,-0.08,0.08,-0.27
327,-1.99,-0.30,10.15,-0.08,0.08,-0.27
331,-1.99,-0.30,10.15,-0.08,0.10,-0.24
336,-1.99,-0.30,10.15,-0.09,0.07,-0.23
341,-0.19,-0.69,8.89,-0.09,0.07,-0.23
347,-2.41,0.73,9.00,-0.09,0.07,-0.23
351,-2.41,0.73,9.00,-0.10,0.06,-0.28
356,-2.41,0.73,9.00,-0.09,0.07,-0.24
362,-1.07,0.19,9.58,-0.09,0.07,-0.24
366,-1.07,0.19,9.58,-0.09,0.06,-0.25
371,-1.07,0.19,9.58,-0.08,0.01,-0.25
376,-1.07,0.19,9.58,-0.08,-0.04,-0.21
382,0.54,-1.15,8.58,-0.08,-0.04,-0.21
386,0.54,-1.15,8.58,-0.05,-0.07,-0.20
391,0.54,-1.15,8.58,-0.06,-0.05,-0.21
396,0.54,-1.15,8.58,-0.02,0.01,-0.19
402,-1.23,-0.57,10.46,-0.02,0.01,-0.19
406,-1.23,-0.57,10.46,-0.03,0.16,-0.19
411,-1.23,-0.57,10.46,-0.03,0.21,-0.21
417,-2.14,-1.19,11.50,-0.03,0.21,-0.21
421,-2.14,-1.19,11.50,-0.02,0.15,-0.23
426,-2.14,-1.19,11.50,-0.00,0.09,-0.21
432,-2.03,-0.88,6.97,-0.00,0.09,-0.21
436,-2.03,-0.88,6.97,-0.02,-0.01,-0.14
441,-2.03,-0.88,6.97,-0.03,-0.05,-0.13
447,1.76,-0.30,9.43,-0.03,-0.05,-0.13
451,1.76,-0.30,9.43,-0.04,-0.11,-0.10
457,1.76,-0.30,9.43,-0.04,-0.11,-0.09
462,1.76,-0.30,9.43,-0.02,-0.07,-0.06
466,1.76,-0.30,9.43,0.03,0.01,-0.05
471,1.76,-0.30,9.43,0.05,0.11,-0.04
476,1.76,-0.30,9.43,0.08,0.17,0.00
482,-0.11,-1.65,8.54,0.08,0.17,0.00
487,-0.11,-1.65,8.54,0.05,0.11,0.07
491,-0.11,-1.65,8.54,-0.00,-0.00,0.06
496,-0.11,-1.65,8.54,-0.01,-0.10,0.02
502,1.76,-1.07,8.23,-0.01,-0.10,0.02
506,1.76,-1.07,8.23,0.01,-0.17,0.04
511,1.76,-1.07,8.23,0.04,-0.13,0.11
516,1.76,-1.07,8.23,0.02,-0.09,0.15
523,1.46,-0.50,10.84,0.02,-0.09,0.15
526,1.46,-0.50,10.84,0.04,0.02,0.11
532,1.38,-1.38,10.03,0.04,0.02,0.11
537,1.42,-1.46,9.23,0.04,0.02,0.11
541,1.42,-1.46,9.23,0.05,0.01,0.16
546,1.42,-1.46,9.23,0.06,-0.00,0.18
552,1.76,-1.65,9.27,0.06,-0.00,0.18
556,1.76,-1.65,9.27,0.03,-0.02,0.15
561,1.76,-1.65,9.27,0.02,-0.02,0.14
566,0.00,-1.00,10.65,0.02,-0.02,0.14
572,0.11,-0.92,11.34,0.02,-0.02,0.14
576,0.11,-0.92,11.34,0.00,0.01,0.11
581,0.11,-0.92,11.34,0.00,-0.00,0.11
587,2.38,-2.34,9.61,0.00,-0.00,0.11
591,2.38,-2.34,9.61,0.03,-0.06,0.12
596,2.38,-2.34,9.61,0.05,-0.04,0.13
601,0.00,-0.80,8.50,0.05,-0.04,0.13
607,-0.54,-0.57,8.12,0.05,-0.04,0.13
611,-0.54,-0.57,8.12,0.01,0.04,0.05
616,-0.54,-0.57,8.12,-0.01,0.03,0.01
622,-1.65,-1.84,7.85,-0.01,0.03,0.01
626,-1.65,-1.84,7.85,-0.04,-0.02,-0.04
632,-1.65,-1.84,7.85,-0.04,-0.06,-0.05
637,-1.65,-1.84,7.85,-0.04,-0.11,-0.06
642,-1.65,-1.84,7.85,-0.04,-0.15,-0.06
646,-1.65,-1.84,7.85,-0.01,-0.15,-0.08
651,-1.65,-1.84,7.85,0.00,-0.10,-0.08
657,-0.84,-1.19,11.03,0.00,-0.10,-0.08
661,-0.84,-1.19,11.03,0.04,0.09,-0.09
666,-0.84,-1.19,11.03,0.04,0.14,-0.11
671,-1.65,0.46,10.50,0.04,0.14,-0.11
678,-1.34,0.92,10.53,0.04,0.14,-0.11
681,-1.34,0.92,10.53,0.03,0.15,-0.16
686,0.15,0.19,9.50,0.03,0.15,-0.16
692,0.46,0.69,8.84,0.03,0.15,-0.16
696,0.46,0.69,8.84,-0.07,-0.01,-0.25
701,0.46,0.69,8.84,-0.09,-0.04,-0.29
707,-1.11,0.11,8.54,-0.09,-0.04,-0.29
711,-1.11,0.11,8.54,-0.08,-0.06,-0.25
716,-1.11,0.11,8.54,-0.07,-0.05,-0.22
721,-1.11,0.11,8.54,-0.07,-0.05,-0.20
727,1.80,-1.15,9.35,-0.07,-0.05,-0.20
731,1.80,-1.15,9.35,-0.04,-0.08,-0.18
736,1.80,-1.15,9.35,-0.02,-0.09,-0.15
742,1.76,-0.73,8.96,-0.02,-0.09,-0.15
746,1.76,-0.73,8.96,0.02,-0.06,-0.09
751,1.76,-0.73,8.96,0.03,-0.04,-0.06
756,1.76,-0.73,8.96,0.03,0.03,-0.06
762,-1.27,-0.34,11.64,0.03,0.03,-0.06
766,-1.27,-0.34,11.64,0.05,0.13,-0.08
771,-1.27,-0.34,11.64,0.06,0.12,-0.07
776,-1.27,-0.34,11.64,0.07,0.11,-0.04
782,-0.50,-1.46,7.09,0.07,0.11,-0.04
787,-0.50,-1.46,7.09,0.05,0.01,0.00
791,1.88,-0.57,7.66,0.05,0.01,0.00
797,2.22,-0.73,8.92,0.05,0.01,0.00
801,2.22,-0.73,8.92,0.01,-0.18,-0.04
806,2.22,-0.73,8.92,0.01,-0.16,-0.03
812,0.46,-0.84,11.38,0.01,-0.16,-0.03
816,0.46,-0.84,11.38,0.06,0.05,0.01
821,0.46,-0.84,11.38,0.07,0.16,-0.01
826,-1.00,-0.92,9.30,0.07,0.16,-0.01
832,0.23,-1.00,9.38,0.07,0.16,-0.01
836,0.23,-1.00,9.38,0.03,0.11,-0.07
841,0.23,-1.00,9.38,0.01,0.01,-0.08
847,1.61,-1.42,8.23,0.01,0.01,-0.08
851,1.61,-1.42,8.23,-0.01,-0.12,-0.09
856,1.61,-1.42,8.23,0.01,-0.11,-0.09
862,1.76,-0.23,9.46,0.01,-0.11,-0.09
866,1.76,-0.23,9.46,0.04,-0.03,-0.05
871,1.76,-0.23,9.46,0.03,0.03,-0.05
876,1.76,-0.23,9.46,0.02,0.06,-0.08
882,0.77,-0.11,8.96,0.02,0.06,-0.08
886,0.77,-0.11,8.96,0.02,0.05,-0.12
891,0.77,-0.11,8.96,0.03,0.00,-0.11
897,0.77,-0.11,8.96,0.03,-0.05,-0.06
901,0.77,-0.11,8.96,0.02,-0.06,-0.04
906,0.77,-0.11,8.96,0.01,-0.05,-0.05
911,0.77,-0.11,8.96,0.00,-0.03,-0.09
917,0.54,-0.50,11.84,0.00,-0.03,-0.09
921,0.54,-0.50,11.84,0.01,0.04,-0.13
926,0.54,-0.50,11.84,0.03,0.06,-0.10
932,0.57,-0.08,11.04,0.03,0.06,-0.10
936,0.57,-0.08,11.04,0.03,0.09,-0.05
941,0.57,-0.08,11.04,0.02,0.07,-0.05
946,0.57,-0.08,11.04,0.03,0.05,-0.07
952,0.50,0.80,7.39,0.03,0.05,-0.07
956,0.50,0.80,7.39,0.02,0.02,-0.02
961,0.50,0.80,7.39,0.00,0.02,-0.02
966,0.50,0.80,7.39,-0.02,0.01,-0.03
971,0.50,0.80,7.39,-0.03,-0.00,-0.06
976,0.50,0.80,7.39,-0.04,-0.04,-0.07
981,0.77,-0.80,8.04,-0.04,-0.04,-0.07
987,1.95,-1.19,8.16,-0.04,-0.04,-0.07
991,1.95,-1.19,8.16,-0.03,-0.18,0.00
996,1.95,-1.19,8.16,-0.02,-0.21,0.02
1002,1.95,-1.19,8.16,-0.02,-0.21,0.03
1006,1.95,-1.19,8.16,0.02,-0.14,0.04
1011,1.95,-1.19,8.16,0.05,-0.04,0.04
1016,1.95,-1.19,8.16,0.07,0.07,0.05
1022,0.19,-1.53,10.73,0.07,0.07,0.05
1026,0.19,-1.53,10.73,0.10,0.21,0.06
1031,0.19,-1.53,10.73,0.09,0.21,0.07
1037,-0.04,-0.65,8.54,0.09,0.21,0.07
1041,-0.04,-0.65,8.54,0.06,0.11,0.05
1046,-0.04,-0.65,8.54,0.02,0.02,0.02
1051,-0.04,-0.65,8.54,0.00,-0.07,0.01
1057,1.30,-1.65,7.93,0.00,-0.07,0.01
1061,1.30,-1.65,7.93,0.00,-0.15,0.03
1066,1.30,-1.65,7.93,0.01,-0.13,0.04
1072,0.73,-1.76,10.57,0.01,-0.13,0.04
1076,0.73,-1.76,10.57,0.04,-0.07,0.07
1081,0.73,-1.76,10.57,0.04,-0.05,0.10
1086,0.73,-1.76,10.57,0.04,-0.04,0.08
1091,0.73,-1.76,10.57,0.03,-0.04,0.06
1096,0.73,-1.76,10.57,0.03,-0.04,0.03
1101,0.73,-1.76,10.57,0.03,-0.04,0.03
1106,2.26,-1.61,9.88,0.03,-0.04,0.03
1111,2.26,-1.61,9.88,0.02,-0.03,0.05
1116,2.26,-1.61,9.88,0.01,-0.01,0.04
1122,2.26,-1.61,9.88,0.02,0.02,0.02
1126,2.26,-1.61,9.88,0.01,0.05,-0.00
1131,2.26,-1.61,9.88,0.01,0.10,-0.01
1136,2.26,-1.61,9.88,0.01,0.10,-0.02
1142,0.08,-1.19,7.93,0.01,0.10,-0.02
1146,0.08,-1.19,7.93,0.01,0.05,-0.02
1151,0.08,-1.19,7.93,0.02,0.03,-0.01
1157,0.08,-1.19,7.93,-0.00,-0.01,-0.02
1161,0.08,-1.19,7.93,-0.02,-0.05,-0.02
1166,0.08,-1.19,7.93,-0.03,-0.10,-0.03
1171,0.08,-1.19,7.93,-0.03,-0.13,-0.02
1177,0.08,-1.19,7.93,-0.02,-0.12,0.00
1181,0.08,-1.19,7.93,-0.00,-0.08,0.01
1186,0.08,-1.19,7.93,0.01,-0.01,0.00
1192,0.08,-1.19,7.93,0.02,0.06,-0.01
1196,0.08,-1.19,7.93,0.03,0.12,-0.01
1201,0.08,-1.19,7.93,0.02,0.14,-0.00
1206,0.08,-1.19,7.93,0.02,0.14,0.01
1212,0.57,-0.69,9.23,0.02,0.14,0.01
1216,0.57,-0.69,9.23,-0.03,0.04,-0.02
1221,0.57,-0.69,9.23,-0.03,-0.02,-0.04
1226,0.57,-0.69,9.23,-0.03,-0.06,-0.04
1231,0.57,-0.69,9.23,-0.03,-0.07,-0.02
1236,0.57,-0.69,9.23,-0.03,-0.06,0.01
1241,0.57,-0.69,9.23,-0.02,-0.04,0.02
1247,0.61,0.11,8.92,-0.02,-0.04,0.02
1251,0.61,0.11,8.92,-0.03,0.02,-0.02
1256,0.61,0.11,8.92,-0.02,0.03,-0.03
1262,0.61,0.11,8.92,-0.03,0.01,-0.02
1266,0.61,0.11,8.92,-0.02,-0.02,0.01
1271,0.61,0.11,8.92,-0.01,-0.04,0.04
1277,0.61,0.11,8.92,-0.02,-0.04,0.03
1281,0.61,0.11,8.92,-0.03,-0.02,0.00
1286,0.61,0.11,8.92,-0.05,0.02,-0.03
1291,0.61,0.11,8.92,-0.05,0.04,-0.04
1297,0.61,0.11,8.92,-0.04,0.06,-0.03
1301,0.61,0.11,8.92,-0.03,0.06,-0.03
1306,0.61,0.11,8.92,-0.02,0.04,-0.00
1311,0.61,0.11,8.92,-0.01,0.05,0.02
1316,0.61,0.11,8.92,-0.02,0.05,0.01
1321,0.61,0.11,8.92,-0.03,0.06,-0.01
1326,0.61,0.11,8.92,-0.03,0.04,-0.04
1331,1.23,0.54,8.81,-0.03,0.04,-0.04
1336,1.23,0.54,8.81,-0.03,-0.03,-0.02
1341,1.23,0.54,8.81,-0.05,-0.07,0.00
1346,1.23,0.54,8.81,-0.05,-0.06,-0.01
1351,1.23,0.54,8.81,-0.07,-0.04,-0.06
1356,1.23,0.54,8.81,-0.10,-0.03,-0.11
1361,1.23,0.54,8.81,-0.10,-0.02,-0.13
1367,1.23,-0.88,9.27,-0.10,-0.02,-0.13
1371,1.23,-0.88,9.27,-0.10,-0.03,-0.11
1376,1.23,-0.88,9.27,-0.10,-0.05,-0.10
1381,1.23,-0.88,9.27,-0.11,-0.07,-0.12
1386,1.23,-0.88,9.27,-0.08,-0.08,-0.12
1391,1.23,-0.88,9.27,-0.07,-0.05,-0.12
1396,1.23,-0.88,9.27,-0.05,-0.00,-0.11
1402,0.84,-0.80,9.65,-0.05,-0.00,-0.11
1406,0.84,-0.80,9.65,-0.04,0.10,-0.10
1411,0.84,-0.80,9.65,-0.05,0.13,-0.11
1416,0.84,-0.80,9.65,-0.04,0.13,-0.13
1421,0.84,-0.80,9.65,-0.04,0.11,-0.13
1426,0.84,-0.80,9.65,-0.05,0.08,-0.13
1431,0.84,-0.80,9.65,-0.06,0.04,-0.15
1437,1.38,0.08,10.15,-0.06,0.04,-0.15
1441,1.38,0.08,10.15,-0.09,-0.05,-0.17
1446,1.38,0.08,10.15,-0.10,-0.08,-0.18
1451,1.38,0.08,10.15,-0.10,-0.09,-0.19
1456,1.38,0.08,10.15,-0.09,-0.07,-0.19
1461,1.38,0.08,10.15,-0.09,-0.04,-0.18
1466,1.38,0.08,10.15,-0.07,-0.00,-0.17
1472,1.11,0.04,10.00,-0.07,-0.00,-0.17
1476,1.11,0.04,10.00,-0.08,0.02,-0.19
1481,1.11,0.04,10.00,-0.08,0.03,-0.21
1486,1.11,0.04,10.00,-0.09,0.02,-0.24
1491,1.11,0.04,10.00,-0.09,0.01,-0.25
1496,1.11,0.04,10.00,-0.09,0.00,-0.25
1501,1.11,0.04,10.00,-0.10,-0.01,-0.25
1506,1.11,0.04,10.00,-0.09,-0.02,-0.24
1511,1.11,0.04,10.00,-0.09,-0.01,-0.26
1516,1.11,0.04,10.00,-0.08,0.00,-0.27
1522,1.11,0.04,10.00,-0.07,0.03,-0.29
1526,1.11,0.04,10.00,-0.07,0.07,-0.28
1531,1.11,0.04,10.00,-0.06,0.13,-0.28
1536,1.11,0.04,10.00,-0.05,0.19,-0.29
1542,-0.23,0.04,8.54,-0.05,0.19,-0.29
1546,-0.23,0.04,8.54,-0.05,0.19,-0.31
1551,-0.23,0.04,8.54,-0.07,0.12,-0.31
1557,-0.23,0.04,8.54,-0.08,0.02,-0.31
1561,-0.23,0.04,8.54,-0.08,-0.07,-0.31
1566,-0.23,0.04,8.54,-0.09,-0.15,-0.29
1571,-0.23,0.04,8.54,-0.09,-0.20,-0.29
1577,3.64,-0.38,11.26,-0.09,-0.20,-0.29
1581,3.64,-0.38,11.26,-0.07,-0.17,-0.26
1586,3.64,-0.38,11.26,-0.04,-0.09,-0.25
1592,-0.19,-1.07,10.45,-0.04,-0.09,-0.25
1596,-0.19,-1.07,10.45,-0.01,0.13,-0.26
1601,-0.19,-1.07,10.45,-0.00,0.19,-0.26
1606,-0.19,-1.07,10.45,-0.00,0.20,-0.26
1611,-0.19,-1.07,10.45,0.00,0.18,-0.24
1616,-0.19,-1.07,10.45,-0.03,0.14,-0.24
1621,-0.19,-1.07,10.45,-0.01,0.12,-0.26
1627,0.19,-1.42,8.84,-0.01,0.12,-0.26
1631,0.19,-1.42,8.84,-0.03,0.02,-0.26
1636,0.19,-1.42,8.84,-0.02,-0.05,-0.23
1641,0.19,-1.42,8.84,0.01,-0.08,-0.19
1647,1.84,-0.57,9.50,0.01,-0.08,-0.19
1651,1.84,-0.57,9.50,0.02,-0.07,-0.16
1656,1.84,-0.57,9.50,0.05,-0.05,-0.15
1662,1.27,-0.69,10.19,0.05,-0.05,-0.15
1666,1.27,-0.69,10.19,0.06,-0.02,-0.12
1671,1.27,-0.69,10.19,0.06,-0.01,-0.11
1676,1.27,-0.69,10.19,0.07,0.01,-0.10
1682,1.00,-1.46,10.27,0.07,0.01,-0.10
1686,1.00,-1.46,10.27,0.06,0.01,-0.09
1691,1.00,-1.46,10.27,0.05,0.00,-0.10
1697,2.34,-0.96,9.34,0.05,0.00,-0.10
1701,2.34,-0.96,9.34,0.05,-0.03,-0.10
1706,2.34,-0.96,9.34,0.05,-0.04,-0.09
1711,2.34,-0.96,9.34,0.06,-0.03,-0.06
1717,1.76,-1.84,9.65,0.06,-0.03,-0.06
1721,1.76,-1.84,9.65,0.08,0.00,-0.07
1726,1.76,-1.84,9.65,0.08,0.02,-0.06
1732,0.69,-1.49,10.80,0.08,0.02,-0.06
1736,0.69,-1.49,10.80,0.10,0.05,-0.02
1741,0.69,-1.49,10.80,0.11,0.04,-0.03
1747,0.69,-1.49,10.80,0.12,0.02,-0.02
1751,0.69,-1.49,10.80,0.13,0.00,-0.02
1756,0.69,-1.49,10.80,0.14,-0.03,0.01
1760,0.69,-1.49,10.80,0.12,-0.06,0.03
1767,2.64,-1.07,8.46,0.12,-0.06,0.03
1771,2.64,-1.07,8.46,0.08,-0.13,0.00
1776,2.64,-1.07,8.46,0.08,-0.11,-0.04
1782,2.64,-1.07,8.46,0.08,-0.06,-0.07
1786,2.64,-1.07,8.46,0.08,-0.00,-0.06
1791,2.64,-1.07,8.46,0.09,0.03,-0.04
1796,2.64,-1.07,8.46,0.08,0.03,-0.03
1802,1.07,-0.77,8.74,0.08,0.03,-0.03
1806,1.07,-0.77,8.74,0.07,-0.04,-0.05
1811,1.07,-0.77,8.74,0.06,-0.08,-0.06
1817,1.07,-0.77,8.74,0.06,-0.10,-0.06
1821,1.07,-0.77,8.74,0.07,-0.08,-0.05
1826,1.07,-0.77,8.74,0.11,-0.03,-0.04
1831,1.07,-0.77,8.74,0.12,0.05,-0.01
1837,1.11,-0.69,10.41,0.12,0.05,-0.01
1841,1.11,-0.69,10.41,0.14,0.13,0.01
1846,1.11,-0.69,10.41,0.15,0.14,0.01
1852,0.15,-0.46,9.39,0.15,0.14,0.01
1856,0.15,-0.46,9.39,0.14,0.13,0.01
1861,0.15,-0.46,9.39,0.13,0.12,-0.00
1866,0.15,-0.46,9.39,0.10,0.06,-0.02
1872,0.57,-0.69,9.35,0.10,0.06,-0.02
1876,0.57,-0.69,9.35,0.09,-0.05,-0.04
1881,0.57,-0.69,9.35,0.08,-0.06,-0.04
1887,0.38,-0.69,9.16,0.08,-0.06,-0.04
1891,0.38,-0.69,9.16,0.09,-0.05,-0.04
1896,0.38,-0.69,9.16,0.11,-0.04,-0.03
1902,0.38,-0.69,9.16,0.11,-0.02,-0.00
1907,0.42,-1.15,9.16,0.11,-0.02,-0.00
1911,0.42,-1.15,9.16,0.12,-0.01,0.00
1916,0.42,-1.15,9.16,0.12,-0.03,-0.01
1922,0.77,-0.54,9.31,0.12,-0.03,-0.01
1926,0.77,-0.54,9.31,0.11,-0.01,0.01
1931,0.77,-0.54,9.31,0.11,0.02,0.01
1936,0.77,-0.54,9.31,0.11,0.03,0.00
1942,1.07,-1.00,10.42,0.11,0.03,0.00
1947,1.07,-1.00,10.42,0.12,-0.00,0.04
1951,1.07,-1.00,10.42,0.11,-0.02,0.04
1957,2.26,-0.19,9.61,0.11,-0.02,0.04
1961,2.26,-0.19,9.61,0.11,-0.02,0.03
1966,2.26,-0.19,9.61,0.12,-0.01,0.04
1971,2.26,-0.19,9.61,0.12,0.01,0.07
1977,0.96,-1.27,9.69,0.12,0.01,0.07
1981,0.96,-1.27,9.69,0.12,0.07,0.08
1986,0.96,-1.27,9.69,0.11,0.09,0.06
1992,-1.27,-0.27,8.77,0.11,0.09,0.06
1996,-1.27,-0.27,8.77,0.12,0.12,0.06
2001,-1.27,-0.27,8.77,0.11,0.07,0.08
2006,-1.27,-0.27,8.77,0.10,-0.01,0.08
2012,2.11,-0.96,7.32,0.10,-0.01,0.08
2016,2.11,-0.96,7.32,0.07,-0.20,0.08
2021,2.11,-0.96,7.32,0.06,-0.23,0.09
2027,3.18,-0.50,11.45,0.06,-0.23,0.09
2031,3.18,-0.50,11.45,0.08,-0.17,0.10
2036,3.18,-0.50,11.45,0.09,-0.11,0.10
2042,3.18,-0.50,11.45,0.11,-0.03,0.11
2046,3.18,-0.50,11.45,0.13,0.05,0.11
2051,3.18,-0.50,11.45,0.14,0.13,0.11
2057,3.18,-0.50,11.45,0.14,0.17,0.11
2062,0.65,-0.77,9.73,0.14,0.17,0.11
2066,0.65,-0.77,9.73,0.11,0.21,0.08
2071,0.65,-0.77,9.73,0.10,0.19,0.06
2077,0.65,-0.77,9.73,0.08,0.16,0.04
2081,0.65,-0.77,9.73,0.07,0.11,0.03
2086,0.65,-0.77,9.73,0.06,0.04,0.02
2091,0.65,-0.77,9.73,0.04,-0.04,0.04
2097,1.53,-1.30,8.74,0.04,-0.04,0.04
2101,1.53,-1.30,8.74,0.07,-0.18,0.07
2106,1.53,-1.30,8.74,0.09,-0.20,0.09
2112,1.53,-1.30,8.74,0.08,-0.19,0.10
2116,1.53,-1.30,8.74,0.08,-0.16,0.12
2121,1.53,-1.30,8.74,0.09,-0.12,0.12
2126,1.53,-1.30,8.74,0.10,-0.07,0.10
2132,0.80,-0.73,9.27,0.10,-0.07,0.10
2136,0.80,-0.73,9.27,0.08,0.02,0.07
2141,0.80,-0.73,9.27,0.07,0.04,0.08
2147,0.65,-1.49,9.73,0.07,0.04,0.08
2151,0.65,-1.49,9.73,0.06,0.00,0.07
2156,0.65,-1.49,9.73,0.04,-0.02,0.06
2161,0.65,-1.49,9.73,0.05,-0.04,0.05
2167,2.34,-0.69,9.39,0.05,-0.04,0.05
2171,2.34,-0.69,9.39,0.05,-0.06,0.07
2176,2.34,-0.69,9.39,0.05,-0.04,0.07
2182,2.07,-1.46,10.30,0.05,-0.04,0.07
2186,2.07,-1.46,10.30,0.07,-0.00,0.09
2191,2.07,-1.46,10.30,0.09,0.00,0.10
2196,2.07,-1.46,10.30,0.10,0.02,0.11
2202,0.80,-0.54,10.38,0.10,0.02,0.11
2206,0.80,-0.54,10.38,0.11,0.05,0.14
2211,0.80,-0.54,10.38,0.10,0.05,0.13
2217,0.84,-0.69,9.84,0.10,0.05,0.13
2221,0.84,-0.69,9.84,0.06,-0.01,0.07
2226,0.84,-0.69,9.84,0.07,-0.05,0.06
2231,0.84,-0.69,9.84,0.07,-0.08,0.07
2237,0.88,0.11,8.89,0.07,-0.08,0.07
2241,0.88,0.11,8.89,0.06,-0.04,0.09
2246,0.88,0.11,8.89,0.06,-0.01,0.08
2252,-0.15,0.08,8.50,0.06,-0.01,0.08
2256,-0.15,0.08,8.50,0.04,0.01,-0.01
2261,-0.15,0.08,8.50,0.03,0.01,-0.03
2266,-0.15,0.08,8.50,0.04,0.01,-0.01
2272,-0.69,-0.69,8.31,0.04,0.01,-0.01
2276,-0.69,-0.69,8.31,0.03,0.04,-0.03
2281,-0.69,-0.69,8.31,0.01,0.03,-0.06
2287,0.65,-0.92,9.65,0.01,0.03,-0.06
2291,0.65,-0.92,9.65,-0.01,-0.03,-0.10
2296,0.65,-0.92,9.65,0.00,-0.06,-0.09
2302,0.65,-0.92,9.65,0.00,-0.07,-0.06
2306,0.65,-0.92,9.65,0.01,-0.07,-0.04
2311,0.65,-0.92,9.65,0.04,-0.02,-0.04
2316,0.65,-0.92,9.65,0.06,0.03,-0.02
2322,0.00,-0.46,9.58,0.06,0.03,-0.02
2326,0.00,-0.46,9.58,0.06,0.11,-0.01
2331,0.00,-0.46,9.58,0.06,0.11,-0.01
2337,0.00,-0.46,9.58,0.06,0.07,-0.00
2341,0.00,-0.46,9.58,0.07,0.03,0.03
2346,0.00,-0.46,9.58,0.07,0.00,0.04
2351,0.00,-0.46,9.58,0.05,-0.03,0.04
2357,0.69,0.50,9.16,0.05,-0.03,0.04
2361,0.69,0.50,9.16,0.03,-0.06,0.01
2366,0.69,0.50,9.16,0.01,-0.06,-0.00
2372,1.19,-0.42,9.81,0.01,-0.06,-0.00
2376,1.19,-0.42,9.81,-0.00,-0.06,-0.02
2381,1.19,-0.42,9.81,0.02,-0.04,0.00
2386,1.19,-0.42,9.81,0.04,-0.01,0.04
2392,1.00,-1.04,9.12,0.04,-0.01,0.04
2396,1.00,-1.04,9.12,0.04,-0.01,0.08
2401,1.00,-1.04,9.12,0.04,-0.03,0.07
2407,1.53,-0.50,9.34,0.04,-0.03,0.07
2411,1.53,-0.50,9.34,0.04,-0.04,0.09
2416,1.53,-0.50,9.34,0.04,-0.04,0.10
2421,1.53,-0.50,9.34,0.04,-0.01,0.12
2426,0.84,-0.84,9.61,0.04,-0.01,0.12
2431,0.84,-0.84,9.61,0.04,0.02,0.13
2437,0.84,-0.84,9.61,0.05,0.02,0.12
2442,0.54,-1.61,9.34,0.05,0.02,0.12
2446,0.54,-1.61,9.34,0.07,-0.02,0.14
2451,0.54,-1.61,9.34,0.06,-0.04,0.16
2456,0.54,-1.61,9.34,0.07,-0.05,0.16
2462,2.61,-1.68,10.65,0.07,-0.05,0.16
2466,2.61,-1.68,10.65,0.06,-0.09,0.15
2471,2.61,-1.68,10.65,0.06,-0.10,0.16
2477,2.61,-1.68,10.65,0.06,-0.08,0.16
2481,2.61,-1.68,10.65,0.06,-0.05,0.17
2486,2.61,-1.68,10.65,0.06,-0.02,0.17
2491,1.72,-1.65,10.31,0.06,-0.02,0.17
2497,0.96,-1.80,10.34,0.06,-0.02,0.17
2501,0.96,-1.80,10.34,0.06,0.05,0.12
2506,0.96,-1.80,10.34,0.07,0.06,0.11
2512,-0.73,-1.27,7.97,0.07,0.06,0.11
2516,-0.73,-1.27,7.97,0.07,0.07,0.11
2521,-0.73,-1.27,7.97,0.07,0.05,0.11
2527,0.04,-0.54,8.50,0.07,0.05,0.11
2531,0.04,-0.54,8.50,0.04,-0.10,0.07
2536,0.04,-0.54,8.50,0.03,-0.17,0.06
2541,0.04,-0.54,8.50,0.02,-0.22,0.07
2546,2.95,-0.65,10.69,0.02,-0.22,0.07
2551,2.95,-0.65,10.69,0.02,-0.19,0.07
2556,2.95,-0.65,10.69,0.02,-0.13,0.07
2562,2.03,-0.57,11.72,0.02,-0.13,0.07
2566,2.03,-0.57,11.72,0.06,0.04,0.08
2571,2.03,-0.57,11.72,0.07,0.13,0.06
2576,2.03,-0.57,11.72,0.07,0.21,0.03
2582,-0.61,-1.07,10.38,0.07,0.21,0.03
2586,-0.61,-1.07,10.38,0.06,0.20,-0.01
2591,-0.61,-1.07,10.38,0.03,0.14,-0.01
2597,-0.61,-1.07,10.38,0.01,0.08,-0.01
2601,-0.61,-1.07,10.38,0.01,0.01,-0.03
2606,-0.61,-1.07,10.38,-0.01,-0.06,-0.04
2611,-0.61,-1.07,10.38,-0.02,-0.10,-0.05
2617,-0.61,-1.07,10.38,-0.01,-0.12,-0.05
2621,-0.61,-1.07,10.38,-0.01,-0.12,-0.04
2626,-0.61,-1.07,10.38,0.01,-0.10,-0.03
2632,-0.08,-0.34,9.20,0.01,-0.10,-0.03
2636,-0.08,-0.34,9.20,0.02,-0.03,-0.03
2641,-0.08,-0.34,9.20,0.03,-0.00,-0.04
2647,-0.08,-0.34,9.20,0.03,0.00,-0.04
2651,-0.08,-0.34,9.20,0.01,-0.03,-0.04
2656,-0.08,-0.34,9.20,0.01,-0.06,-0.02
2661,-0.08,-0.34,9.20,0.01,-0.08,-0.04
2667,1.49,-0.27,9.04,0.01,-0.08,-0.04
2671,1.49,-0.27,9.04,0.02,-0.02,-0.07
2676,1.49,-0.27,9.04,0.03,0.04,-0.07
2681,1.49,-0.27,9.04,0.03,0.07,-0.06
2686,1.23,-1.27,10.61,0.03,0.07,-0.06
2691,1.23,-1.27,10.61,0.06,0.08,-0.01
2696,1.23,-1.27,10.61,0.07,0.06,0.00
2702,1.27,-0.42,9.54,0.07,0.06,0.00
2706,1.27,-0.42,9.54,0.05,0.00,0.00
2711,1.27,-0.42,9.54,0.05,-0.03,0.01
2717,1.27,-0.42,9.54,0.05,-0.05,0.02
2721,1.27,-0.42,9.54,0.05,-0.05,0.03
2726,1.27,-0.42,9.54,0.04,-0.04,0.03
2731,1.27,-0.42,9.54,0.04,-0.03,0.04
2737,1.27,-0.42,9.54,0.04,-0.02,0.05
2741,1.27,-0.42,9.54,0.05,-0.01,0.07
2746,1.27,-0.42,9.54,0.07,0.01,0.09
2751,1.19,-1.30,9.61,0.07,0.01,0.09
2757,1.80,-1.38,10.38,0.07,0.01,0.09
2761,1.80,-1.38,10.38,0.08,0.02,0.13
2766,1.80,-1.38,10.38,0.09,0.01,0.15
2772,1.11,-1.53,10.11,0.09,0.01,0.15
2776,1.11,-1.53,10.11,0.10,0.04,0.17
2781,1.11,-1.53,10.11,0.12,0.05,0.19
2786,0.57,-1.42,9.54,0.12,0.05,0.19
2791,0.57,-1.42,9.54,0.13,0.02,0.23
2796,0.57,-1.42,9.54,0.13,-0.01,0.27
2801,0.57,-1.42,9.54,0.13,-0.03,0.28
2806,0.73,-0.38,9.12,0.13,-0.03,0.28
2811,0.73,-0.38,9.12,0.09,-0.05,0.25
2815,0.73,-0.38,9.12,0.10,-0.06,0.27
2821,0.73,-0.38,9.12,0.10,-0.07,0.30
2825,1.04,-1.30,10.00,0.10,-0.07,0.30
2831,1.04,-1.30,10.00,0.11,-0.05,0.35
2836,1.04,-1.30,10.00,0.11,-0.04,0.36
2841,1.04,-1.30,10.00,0.11,-0.03,0.35
2846,1.04,-1.30,10.00,0.11,-0.03,0.34
2851,1.04,-1.30,10.00,0.11,-0.03,0.34
2856,1.04,-1.30,10.00,0.11,-0.03,0.37
2861,1.04,-1.30,10.00,0.12,-0.04,0.40
2866,1.04,-1.30,10.00,0.11,-0.04,0.41
2871,1.04,-1.30,10.00,0.11,-0.04,0.40
2876,1.04,-1.30,10.00,0.11,-0.03,0.39
2881,1.04,-1.30,10.00,0.12,-0.01,0.39
2886,1.04,-1.30,10.00,0.12,0.00,0.39
2891,-0.08,-0.46,9.00,0.12,0.00,0.39
2896,-0.08,-0.46,9.00,0.12,0.03,0.40
2901,-0.08,-0.46,9.00,0.12,0.02,0.40
2906,-0.08,-0.46,9.00,0.11,0.00,0.39
2911,-0.08,-0.46,9.00,0.10,-0.01,0.37
2916,-0.08,-0.46,9.00,0.09,-0.03,0.35
2921,-0.08,-0.46,9.00,0.08,-0.03,0.34
2926,0.57,-0.57,9.96,0.08,-0.03,0.34
2931,0.57,-0.57,9.96,0.07,-0.04,0.31
2936,0.57,-0.57,9.96,0.05,-0.04,0.30
2941,0.57,-0.57,9.96,0.06,-0.03,0.29
2946,0.57,-0.57,9.96,0.05,-0.01,0.25
2951,0.57,-0.57,9.96,0.05,0.00,0.24
2956,0.57,-0.57,9.96,0.04,0.01,0.23
2961,1.42,-1.11,10.07,0.04,0.01,0.23
2966,1.42,-1.11,10.07,0.04,0.03,0.22
2971,1.42,-1.11,10.07,0.04,0.05,0.21
2976,1.42,-1.11,10.07,0.03,0.07,0.19
2981,1.42,-1.11,10.07,0.03,0.08,0.18
2986,1.42,-1.11,10.07,0.03,0.07,0.16
2991,1.42,-1.11,10.07,0.02,0.06,0.16
2996,1.42,-1.11,10.07,0.02,0.03,0.18
3001,1.42,-1.11,10.07,0.02,-0.01,0.19
3006,1.42,-1.11,10.07,0.01,-0.06,0.20
3011,1.42,-1.11,10.07,0.00,-0.08,0.21
3016,0.88,-0.08,9.04,0.00,-0.08,0.21
3021,0.88,-0.08,9.04,0.00,-0.04,0.19
3026,0.88,-0.08,9.04,-0.00,0.00,0.19
3031,0.38,-1.61,10.11,-0.00,0.00,0.19
3036,0.38,-1.61,10.11,0.02,0.06,0.21
3041,0.38,-1.61,10.11,0.04,0.07,0.24
3046,0.38,-1.61,10.11,0.03,0.06,0.26
3051,0.38,-1.61,10.11,0.03,0.05,0.26
3056,0.38,-1.61,10.11,0.01,0.03,0.26
3061,0.38,-1.61,10.11,0.00,0.01,0.25
3066,0.38,-1.61,10.11,0.00,-0.01,0.26
3071,0.38,-1.61,10.11,0.02,-0.04,0.28
3076,0.38,-1.61,10.11,0.03,-0.05,0.31
3081,1.46,-1.00,9.89,0.03,-0.05,0.31
3086,1.46,-1.00,9.89,0.03,-0.06,0.36
3091,1.46,-1.00,9.89,0.04,-0.05,0.37
3096,1.46,-1.00,9.89,0.04,-0.03,0.38
3101,1.46,-1.00,9.89,0.05,-0.01,0.38
3106,1.46,-1.00,9.89,0.06,0.01,0.41
3111,1.46,-1.00,9.89,0.07,0.01,0.43
3116,1.46,-1.00,9.89,0.06,0.01,0.44
3121,1.46,-1.00,9.89,0.08,0.01,0.46
3126,1.46,-1.00,9.89,0.09,0.04,0.46
3131,1.46,-1.00,9.89,0.08,0.04,0.45
3136,1.46,-1.00,9.89,0.07,0.03,0.45
3141,1.46,-1.00,9.89,0.07,0.01,0.45
3146,1.46,-1.00,9.89,0.07,-0.03,0.47
3151,1.46,-1.00,9.89,0.07,-0.06,0.48
3156,1.46,-1.00,9.89,0.06,-0.10,0.48
3161,1.46,-1.00,9.89,0.05,-0.12,0.48
3166,1.46,-1.00,9.89,0.04,-0.13,0.47
3171,1.46,-1.00,9.89,0.04,-0.12,0.46
3176,1.46,-1.00,9.89,0.06,-0.09,0.47
3181,1.46,-1.00,9.89,0.07,-0.05,0.46
3187,0.46,-1.27,11.34,0.07,-0.05,0.46
3191,0.46,-1.27,11.34,0.06,0.07,0.43
3196,0.46,-0.92,11.03,0.06,0.07,0.43
3201,0.46,-0.92,11.03,0.05,0.14,0.37
3206,0.46,-0.92,11.03,0.03,0.12,0.34
3211,0.46,-0.92,11.03,0.02,0.08,0.32
3216,0.46,-0.92,11.03,0.00,0.04,0.29
3221,0.46,-0.92,11.03,-0.01,-0.01,0.27
3226,0.46,-0.92,11.03,-0.01,-0.03,0.25
3231,0.46,-0.92,11.03,-0.04,-0.04,0.22
3236,0.46,-0.92,11.03,-0.04,-0.03,0.19
3241,0.46,-0.92,11.03,-0.04,0.00,0.15
3246,0.46,-0.92,11.03,-0.06,0.03,0.11
3251,0.46,-0.92,11.03,-0.07,0.06,0.07
3257,0.46,-0.92,11.03,-0.08,0.06,0.03
3261,-0.04,0.42,9.08,-0.08,0.06,0.03
3265,0.46,0.23,8.32,-0.08,0.06,0.03
3271,0.46,0.23,8.32,-0.09,0.00,-0.08
3276,0.88,1.38,8.85,-0.09,0.00,-0.08
3281,0.88,1.38,8.85,-0.11,-0.02,-0.14
3286,0.88,1.38,8.85,-0.11,0.00,-0.19
3291,0.88,1.38,8.85,-0.13,0.04,-0.23
3296,0.88,1.38,8.85,-0.14,0.07,-0.26
3301,0.88,1.38,8.85,-0.16,0.07,-0.29
3307,0.88,1.38,8.85,-0.15,0.08,-0.32
3311,0.88,1.23,8.92,-0.15,0.08,-0.32
3316,1.46,1.04,9.54,-0.15,0.08,-0.32
3321,1.46,1.04,9.54,-0.17,0.04,-0.38
3326,1.46,1.04,9.54,-0.17,0.03,-0.39
3331,1.46,1.04,9.54,-0.18,0.02,-0.40
3336,1.46,1.04,9.54,-0.17,0.02,-0.39
3342,1.46,1.04,9.54,-0.16,0.04,-0.39
3346,0.38,0.65,9.04,-0.16,0.04,-0.39
3351,0.96,0.46,9.50,-0.16,0.04,-0.39
3357,0.96,0.46,9.50,-0.17,0.05,-0.38
3362,0.96,0.46,9.50,-0.16,0.04,-0.39
3366,1.68,0.00,9.23,-0.16,0.04,-0.39
3370,2.03,0.19,9.23,-0.16,0.04,-0.39
3377,2.03,0.19,9.23,-0.14,-0.02,-0.34
3382,2.03,0.19,9.23,-0.14,-0.02,-0.33
3386,1.99,-0.50,9.69,-0.14,-0.02,-0.33
3390,1.68,-1.11,9.80,-0.14,-0.02,-0.33
3397,1.68,-1.11,9.80,-0.12,-0.03,-0.29
3401,1.68,-1.11,9.80,-0.11,-0.02,-0.26
3406,1.00,-1.00,10.27,-0.11,-0.02,-0.26
3411,1.00,-1.00,10.27,-0.08,0.04,-0.20
3416,1.00,-1.00,10.27,-0.08,0.05,-0.19
3421,1.00,-1.00,10.27,-0.08,0.04,-0.18
3427,1.84,-1.42,10.03,-0.08,0.04,-0.18
3431,1.46,-1.68,9.73,-0.08,0.04,-0.18
3436,1.19,-1.00,9.16,-0.08,0.04,-0.18
3441,1.19,-1.00,9.16,-0.04,-0.01,-0.06
3446,1.19,-1.00,9.16,-0.02,0.01,-0.04
3451,0.54,-1.95,9.54,-0.02,0.01,-0.04
3456,0.19,-1.38,9.43,-0.02,0.01,-0.04
3461,0.19,-1.38,9.43,0.01,0.04,0.01
3466,0.19,-1.38,9.43,0.02,0.04,0.05
3471,0.42,-1.27,8.54,0.02,0.04,0.05
3476,0.30,-1.34,9.46,0.02,0.04,0.05
3481,0.30,-1.34,9.46,0.04,-0.02,0.17
3486,1.15,-1.46,9.23,0.04,-0.02,0.17
3491,0.61,-1.84,9.77,0.04,-0.02,0.17
3496,1.11,-2.14,8.66,0.04,-0.02,0.17
3501,1.11,-2.14,8.66,0.08,-0.07,0.32
3506,1.11,-2.14,8.66,0.09,-0.06,0.36
3512,1.11,-2.14,8.66,0.11,-0.05,0.40
3517,-0.19,-2.22,9.31,0.11,-0.05,0.40
3521,0.69,-1.61,9.27,0.11,-0.05,0.40
3525,0.84,-2.57,9.00,0.11,-0.05,0.40
3531,0.84,-2.57,9.00,0.13,-0.06,0.51
3537,1.00,-2.30,9.20,0.13,-0.06,0.51
3541,0.96,-2.03,9.38,0.13,-0.06,0.51
3546,0.27,-2.61,10.07,0.13,-0.06,0.51
3551,-0.19,-2.26,9.27,0.13,-0.06,0.51
3556,-0.19,-2.26,9.27,0.16,-0.04,0.66
3561,-0.19,-2.26,9.27,0.17,-0.05,0.69
3567,-0.19,-2.26,9.27,0.18,-0.06,0.73
3571,1.42,-2.53,10.15,0.18,-0.06,0.73
3576,1.76,-2.34,9.50,0.18,-0.06,0.73
3582,1.76,-2.34,9.50,0.19,-0.09,0.80
3586,1.76,-2.34,9.50,0.20,-0.09,0.81
3591,0.57,-1.68,10.19,0.20,-0.09,0.81
3596,0.57,-2.41,9.69,0.20,-0.09,0.81
3601,0.57,-2.41,9.69,0.23,-0.04,0.85
3606,0.15,-1.76,8.81,0.23,-0.04,0.85
3610,0.00,-1.65,9.43,0.23,-0.04,0.85
3616,0.00,-1.65,9.43,0.20,-0.04,0.82
3621,0.00,-1.65,9.43,0.20,-0.05,0.80
3626,0.50,-1.68,9.38,0.20,-0.05,0.80
3631,1.23,-0.61,9.58,0.20,-0.05,0.80
3636,1.23,-0.61,9.58,0.15,-0.10,0.73
3640,0.77,-0.73,9.84,0.15,-0.10,0.73
3646,0.77,-0.73,9.84,0.13,-0.10,0.71
3652,0.77,-0.73,9.84,0.11,-0.07,0.62
3656,0.77,-0.73,9.84,0.10,-0.04,0.58
3661,0.65,0.00,10.11,0.10,-0.04,0.58
3666,1.04,0.69,10.34,0.10,-0.04,0.58
3671,1.04,0.69,10.34,0.07,0.03,0.50
3676,1.15,0.57,9.73,0.07,0.03,0.50
3681,0.54,0.69,10.57,0.07,0.03,0.50
3686,1.19,0.54,10.11,0.07,0.03,0.50
3691,1.19,0.54,10.11,0.02,0.04,0.33
3696,1.19,0.54,10.11,0.00,0.03,0.30
3702,1.19,0.54,10.11,-0.01,0.05,0.28
3706,1.19,0.54,10.11,-0.01,0.05,0.25
3711,0.38,0.96,9.46,-0.01,0.05,0.25
3716,0.38,1.11,9.31,-0.01,0.05,0.25
3721,0.38,1.11,9.31,-0.05,0.03,0.17
3726,0.38,1.11,9.31,-0.05,0.02,0.14
3731,0.57,1.53,8.66,-0.05,0.02,0.14
3736,1.15,1.88,9.04,-0.05,0.02,0.14
3741,1.15,1.88,9.04,-0.09,-0.02,0.08
3746,1.46,1.57,9.54,-0.09,-0.02,0.08
3751,1.11,1.04,9.96,-0.09,-0.02,0.08
3756,1.27,1.27,9.73,-0.09,-0.02,0.08
3761,1.84,0.88,9.61,-0.09,-0.02,0.08
3765,1.57,0.92,9.85,-0.09,-0.02,0.08
3771,1.57,0.92,9.85,-0.13,0.04,-0.04
3776,1.57,0.92,9.85,-0.14,0.06,-0.06
3781,1.57,0.92,9.85,-0.15,0.08,-0.08
3786,1.23,1.19,10.07,-0.15,0.08,-0.08
3791,1.38,0.57,9.77,-0.15,0.08,-0.08
3796,1.38,0.57,9.77,-0.16,0.10,-0.14
3801,1.38,0.57,9.77,-0.17,0.11,-0.14
3807,1.38,0.57,9.77,-0.17,0.11,-0.15
3811,1.38,0.57,9.77,-0.18,0.09,-0.17
3816,1.38,0.54,9.39,-0.18,0.09,-0.17
3820,1.23,-0.15,8.85,-0.18,0.09,-0.17
3827,1.23,-0.15,8.85,-0.20,0.00,-0.24
3831,1.30,0.19,9.54,-0.20,0.00,-0.24
3835,1.30,0.19,9.54,-0.20,-0.01,-0.25
3841,1.04,0.08,9.89,-0.20,-0.01,-0.25
3846,1.04,0.08,9.89,-0.20,-0.00,-0.27
3851,1.04,0.08,9.89,-0.20,0.01,-0.29
3856,1.49,-0.34,10.15,-0.20,0.01,-0.29
3861,1.15,0.00,10.23,-0.20,0.01,-0.29
3866,1.42,-0.46,9.80,-0.20,0.01,-0.29
3871,1.00,-0.15,9.35,-0.20,0.01,-0.29
3876,1.19,-0.15,9.89,-0.20,0.01,-0.29
3881,1.19,-0.15,9.89,-0.20,0.07,-0.36
3886,1.19,-0.15,9.89,-0.21,0.06,-0.37
3891,1.46,-0.30,9.96,-0.21,0.06,-0.37
3896,0.84,0.04,9.27,-0.21,0.06,-0.37
3901,0.57,-0.08,9.46,-0.21,0.06,-0.37
3906,0.65,-0.15,9.23,-0.21,0.06,-0.37
3911,0.54,0.11,9.16,-0.21,0.06,-0.37
3916,0.27,0.15,8.74,-0.21,0.06,-0.37
3921,0.27,0.15,8.74,-0.19,0.07,-0.36
3926,0.57,0.19,9.08,-0.19,0.07,-0.36
3931,0.69,0.30,9.46,-0.19,0.07,-0.36
3936,0.61,-0.42,8.96,-0.19,0.07,-0.36
3941,0.42,0.65,9.27,-0.19,0.07,-0.36
3946,0.50,0.23,9.61,-0.19,0.07,-0.36
3951,0.77,0.00,10.73,-0.19,0.07,-0.36
3956,0.77,-0.50,9.77,-0.19,0.07,-0.36
3961,0.84,-0.15,10.07,-0.19,0.07,-0.36
3966,0.84,-0.15,10.07,-0.13,0.00,-0.18
3971,1.49,-0.77,9.46,-0.13,0.00,-0.18
3976,1.72,-0.80,10.11,-0.13,0.00,-0.18
3981,1.07,-0.69,9.96,-0.13,0.00,-0.18
3986,2.03,-1.04,10.69,-0.13,0.00,-0.18
3991,1.19,-1.23,10.11,-0.13,0.00,-0.18
3996,1.65,-1.72,10.23,-0.13,0.00,-0.18
4001,1.65,-1.72,10.23,-0.08,0.02,-0.02
4006,0.54,-1.07,9.38,-0.08,0.02,-0.02
4011,0.15,-1.30,9.88,-0.08,0.02,-0.02
4016,0.19,-1.30,9.73,-0.08,0.02,-0.02
4021,0.30,-1.46,9.73,-0.08,0.02,-0.02
4026,0.88,-1.76,9.27,-0.08,0.02,-0.02
4031,1.15,-1.68,9.61,-0.08,0.02,-0.02
4036,0.96,-1.57,9.46,-0.08,0.02,-0.02
4041,0.77,-1.23,10.19,-0.08,0.02,-0.02
4046,0.77,-1.23,10.19,-0.05,-0.02,0.13
4050,1.00,-1.46,9.77,-0.05,-0.02,0.13
4056,1.00,-1.46,9.77,-0.03,-0.00,0.15
4061,1.00,-1.46,9.77,-0.03,0.00,0.17
4066,1.27,-1.68,9.42,-0.03,0.00,0.17
4071,0.69,-1.65,9.35,-0.03,0.00,0.17
4076,0.80,-1.99,9.69,-0.03,0.00,0.17
4081,0.38,-1.72,9.23,-0.03,0.00,0.17
4086,0.73,-1.91,9.54,-0.03,0.00,0.17
4091,0.57,-1.65,9.30,-0.03,0.00,0.17
4096,0.57,-1.65,9.30,0.03,0.00,0.22
4100,0.42,-1.57,9.54,0.03,0.00,0.22
4106,0.42,-1.57,9.54,0.02,-0.01,0.21
4111,0.42,-1.57,9.54,0.02,-0.02,0.21
4117,0.11,-1.11,9.16,0.02,-0.02,0.21
4121,0.84,-0.88,9.58,0.02,-0.02,0.21
4126,0.73,-0.65,8.85,0.02,-0.02,0.21
4131,0.65,-0.27,9.50,0.02,-0.02,0.21
4136,1.11,-0.61,9.96,0.02,-0.02,0.21
4141,0.15,-0.27,10.03,0.02,-0.02,0.21
4146,0.04,-0.11,9.69,0.02,-0.02,0.21
4151,1.00,-0.30,9.54,0.02,-0.02,0.21
4156,0.77,-0.34,10.61,0.02,-0.02,0.21
4161,1.53,0.04,10.04,0.02,-0.02,0.21
4166,1.53,0.04,10.04,-0.03,0.00,0.01
4171,1.53,0.04,10.04,-0.03,0.03,-0.01
4176,0.80,0.73,8.96,-0.03,0.03,-0.01
4181,0.92,0.80,9.81,-0.03,0.03,-0.01
4186,0.65,0.88,9.80,-0.03,0.03,-0.01
4191,0.84,0.54,9.92,-0.03,0.03,-0.01
4196,1.23,0.54,9.46,-0.03,0.03,-0.01
4201,1.00,0.54,9.61,-0.03,0.03,-0.01
4206,1.11,0.69,9.61,-0.03,0.03,-0.01
4211,0.61,0.84,9.65,-0.03,0.03,-0.01
4216,0.61,0.84,9.65,-0.08,0.02,-0.13
4221,0.69,0.80,9.54,-0.08,0.02,-0.13
4226,1.27,0.34,9.69,-0.08,0.02,-0.13
4231,0.80,0.57,10.27,-0.08,0.02,-0.13
4236,0.80,0.04,9.50,-0.08,0.02,-0.13
4241,0.65,0.19,9.96,-0.08,0.02,-0.13
4246,0.77,-0.23,9.54,-0.08,0.02,-0.13
4251,0.77,-0.23,9.54,-0.11,0.05,-0.26
4256,0.57,0.11,9.38,-0.11,0.05,-0.26
4261,0.23,0.23,9.35,-0.11,0.05,-0.26
4266,0.69,-0.11,8.84,-0.11,0.05,-0.26
4271,0.57,0.19,9.85,-0.11,0.05,-0.26
4276,0.69,-0.34,9.20,-0.11,0.05,-0.26
4281,1.19,-0.23,10.31,-0.11,0.05,-0.26
4286,1.19,-0.23,10.31,-0.14,0.01,-0.31
4290,1.19,-0.23,10.31,-0.14,0.00,-0.33
4296,0.69,-0.69,9.30,-0.14,0.00,-0.33
4301,0.77,-0.04,9.81,-0.14,0.00,-0.33
4306,0.77,-0.04,9.81,-0.13,0.04,-0.35
4311,0.84,-0.15,9.77,-0.13,0.04,-0.35
4316,0.84,0.04,9.58,-0.13,0.04,-0.35
4321,1.07,0.34,9.84,-0.13,0.04,-0.35
4326,0.69,-0.27,9.61,-0.13,0.04,-0.35
4331,0.92,-0.04,10.11,-0.13,0.04,-0.35
4336,0.92,-0.04,10.11,-0.13,0.03,-0.35
4340,0.92,-0.04,10.11,-0.13,0.01,-0.35
4346,1.30,-0.46,10.23,-0.13,0.01,-0.35
4351,0.73,0.04,9.42,-0.13,0.01,-0.35
4356,0.73,0.04,9.42,-0.11,0.02,-0.34
4361,0.69,-0.30,9.54,-0.11,0.02,-0.34
4366,0.96,-0.27,9.61,-0.11,0.02,-0.34
4371,1.11,-0.69,9.42,-0.11,0.02,-0.34
4376,0.92,-0.88,10.00,-0.11,0.02,-0.34
4381,1.04,-0.50,9.54,-0.11,0.02,-0.34
4387,0.57,-0.69,9.46,-0.11,0.02,-0.34
4391,0.57,-0.69,9.46,-0.10,0.04,-0.37
4396,0.54,-0.04,9.46,-0.10,0.04,-0.37
4401,0.46,-0.34,9.54,-0.10,0.04,-0.37
4406,0.54,-0.50,10.03,-0.10,0.04,-0.37
4411,0.84,-0.23,9.50,-0.10,0.04,-0.37
4416,0.88,-0.15,9.69,-0.10,0.04,-0.37
4422,0.57,-0.57,8.89,-0.10,0.04,-0.37
4426,0.57,-0.57,8.89,-0.11,0.03,-0.36
4431,0.57,-0.57,8.89,-0.11,0.03,-0.35
4436,0.77,-0.73,9.88,-0.11,0.03,-0.35
4441,1.04,-1.00,10.00,-0.11,0.03,-0.35
4446,0.54,-0.54,9.50,-0.11,0.03,-0.35
4451,0.46,-0.80,9.43,-0.11,0.03,-0.35
4457,0.46,-0.69,9.88,-0.11,0.03,-0.35
4461,0.46,-0.69,9.88,-0.07,0.04,-0.24
4466,0.77,-0.84,9.69,-0.07,0.04,-0.24
4471,0.73,-1.15,9.58,-0.07,0.04,-0.24
4476,0.46,-1.04,9.61,-0.07,0.04,-0.24
4483,0.15,-0.96,9.16,-0.07,0.04,-0.24
4486,0.65,-1.30,9.58,-0.07,0.04,-0.24
4491,0.65,-1.30,9.58,-0.04,-0.01,-0.12
4496,0.65,-1.30,9.58,-0.04,-0.01,-0.10
4501,0.73,-1.80,9.27,-0.04,-0.01,-0.10
4506,0.27,-1.88,9.20,-0.04,-0.01,-0.10
4511,0.34,-1.95,8.73,-0.04,-0.01,-0.10
4518,0.77,-1.53,8.85,-0.04,-0.01,-0.10
4522,0.69,-2.03,9.42,-0.04,-0.01,-0.10
4526,0.69,-2.03,9.42,-0.00,-0.02,0.03
4531,0.69,-2.03,9.42,0.00,-0.03,0.06
4536,1.15,-1.53,9.73,0.00,-0.03,0.06
4542,0.88,-1.68,9.73,0.00,-0.03,0.06
4546,0.88,-1.68,9.73,0.03,0.02,0.10
4551,0.88,-1.68,9.73,0.04,0.03,0.11
4557,0.73,-2.03,9.81,0.04,0.03,0.11
4561,0.73,-2.03,9.81,0.06,0.02,0.16
4566,0.73,-2.03,9.81,0.06,-0.01,0.18
4571,0.73,-2.03,9.81,0.08,-0.02,0.21
4576,1.11,-1.88,10.15,0.08,-0.02,0.21
4582,1.42,-1.84,9.85,0.08,-0.02,0.21
4586,1.07,-1.88,9.69,0.08,-0.02,0.21
4591,0.73,-1.49,9.58,0.08,-0.02,0.21
4597,0.61,-1.76,9.08,0.08,-0.02,0.21
4601,0.61,-1.76,9.08,0.11,0.01,0.33
4606,0.27,-1.57,9.04,0.11,0.01,0.33
4611,0.50,-1.65,9.54,0.11,0.01,0.33
4617,0.08,-1.68,9.43,0.11,0.01,0.33
4621,0.77,-1.72,9.38,0.11,0.01,0.33
4626,0.61,-1.57,10.19,0.11,0.01,0.33
4631,0.80,-1.30,9.39,0.11,0.01,0.33
4636,1.15,-1.68,9.23,0.11,0.01,0.33
4641,0.69,-1.49,9.00,0.11,0.01,0.33
4647,0.61,-1.42,9.12,0.11,0.01,0.33
4651,0.61,-1.42,9.12,0.12,-0.04,0.40
4656,0.61,-1.30,9.69,0.12,-0.04,0.40
4661,0.46,-1.11,10.00,0.12,-0.04,0.40
4666,0.57,-1.00,9.69,0.12,-0.04,0.40
4671,0.57,-1.00,9.69,0.12,-0.01,0.37
4676,0.65,-0.80,9.65,0.12,-0.01,0.37
4682,0.57,-0.80,9.35,0.12,-0.01,0.37
4686,0.57,-0.80,9.35,0.11,-0.03,0.34
4691,0.54,-0.84,9.46,0.11,-0.03,0.34
4696,0.54,-0.77,9.50,0.11,-0.03,0.34
4702,-0.04,-0.57,9.84,0.11,-0.03,0.34
4706,-0.04,-0.57,9.84,0.07,-0.04,0.23
4711,0.61,0.08,9.89,0.07,-0.04,0.23
4717,0.57,-0.19,10.11,0.07,-0.04,0.23
4721,0.57,-0.19,10.11,0.04,-0.01,0.12
4726,0.84,0.15,9.69,0.04,-0.01,0.12
4732,1.07,0.46,9.65,0.04,-0.01,0.12
4736,1.07,0.46,9.65,0.01,0.00,0.03
4741,0.61,0.50,9.73,0.01,0.00,0.03
4746,0.61,0.61,9.46,0.01,0.00,0.03
4751,0.61,0.61,9.46,-0.01,0.03,-0.04
4756,0.61,0.61,9.46,-0.02,0.04,-0.06
4761,0.65,0.46,9.58,-0.02,0.04,-0.06
4766,0.46,0.46,9.54,-0.02,0.04,-0.06
4771,0.46,0.46,9.54,-0.03,0.02,-0.10
4776,0.42,1.00,9.08,-0.03,0.02,-0.10
4782,0.57,1.15,9.50,-0.03,0.02,-0.10
4786,0.57,1.15,9.50,-0.07,0.01,-0.18
4791,0.57,1.15,9.50,-0.08,0.01,-0.20
4796,0.34,0.61,9.35,-0.08,0.01,-0.20
4802,0.38,0.77,9.23,-0.08,0.01,-0.20
4806,0.38,0.77,9.23,-0.10,0.02,-0.27
4811,0.38,0.77,9.23,-0.10,0.02,-0.28
4817,0.73,0.34,9.16,-0.10,0.02,-0.28
4821,0.73,0.34,9.16,-0.11,-0.00,-0.30
4826,0.73,0.34,9.16,-0.12,-0.01,-0.32
4831,0.73,0.34,9.16,-0.12,0.00,-0.33
4837,0.96,0.54,9.77,-0.12,0.00,-0.33
4841,0.96,0.54,9.77,-0.13,0.03,-0.35
4846,0.88,0.23,9.77,-0.13,0.03,-0.35
4851,0.73,0.04,9.92,-0.13,0.03,-0.35
4857,1.07,-0.04,10.04,-0.13,0.03,-0.35
4861,1.07,-0.04,10.04,-0.14,0.02,-0.36
4866,0.84,-0.34,9.46,-0.14,0.02,-0.36
4871,0.84,-0.34,9.46,-0.14,0.03,-0.37
4876,0.84,-0.34,9.46,-0.14,0.03,-0.37
4881,0.96,-0.69,9.61,-0.14,0.03,-0.37
4887,1.23,-0.80,9.61,-0.14,0.03,-0.37
4891,1.23,-0.80,9.61,-0.13,0.01,-0.35
4896,1.23,-0.80,9.61,-0.13,0.02,-0.34
4901,0.61,-0.84,9.89,-0.13,0.02,-0.34
4907,0.57,-0.96,9.50,-0.13,0.02,-0.34
4911,0.57,-0.96,9.50,-0.13,0.03,-0.32
4916,0.96,-1.30,9.31,-0.13,0.03,-0.32
4922,0.65,-1.61,9.34,-0.13,0.03,-0.32
4926,0.65,-1.61,9.34,-0.11,-0.01,-0.25
4831,0.73,0.34,9.16,-0.12,0.00,-0.33
4837,0.96,0.54,9.77,-0.12,0.00,-0.33
4841,0.96,0.54,9.77,-0.13,0.03,-0.35
4846,0.88,0.23,9.77,-0.13,0.03,-0.35
4851,0.73,0.04,9.92,-0.13,0.03,-0.35
4857,1.07,-0.04,10.04,-0.13,0.03,-0.35
4861,1.07,-0.04,10.04,-0.14,0.02,-0.36
4866,0.84,-0.34,9.46,-0.14,0.02,-0.36
4871,0.84,-0.34,9.46,-0.14,0.03,-0.37
4876,0.84,-0.34,9.46,-0.14,0.03,-0.37
4881,0.96,-0.69,9.61,-0.14,0.03,-0.37
4887,1.23,-0.80,9.61,-0.14,0.03,-0.37
4891,1.23,-0.80,9.61,-0.13,0.01,-0.35
4896,1.23,-0.80,9.61,-0.13,0.02,-0.34
4901,0.61,-0.84,9.89,-0.13,0.02,-0.34
