timestamp,accX,accY,accZ,gyroX,gyroY,gyroZ
Right
6,-0.84,0.15,9.00,-0.04,-0.02,0.19
17,-0.84,0.15,9.00,-0.05,0.00,0.17
19,-0.84,0.15,9.00,-0.16,-0.06,-0.27
21,-0.34,-0.11,9.80,-0.16,-0.06,-0.27
26,-0.34,-0.11,9.80,-0.15,0.04,-0.31
31,-1.00,0.08,9.54,-0.15,0.04,-0.31
36,-1.00,0.08,9.54,-0.16,0.10,-0.31
42,-1.99,0.08,9.84,-0.16,0.10,-0.31
46,-1.99,0.08,9.84,-0.20,0.14,-0.36
51,-1.99,0.08,9.84,-0.23,0.12,-0.38
56,-1.99,0.08,9.84,-0.23,0.09,-0.39
62,0.46,0.77,9.96,-0.23,0.09,-0.39
66,0.46,0.77,9.96,-0.21,-0.01,-0.40
71,0.46,0.77,9.96,-0.21,-0.05,-0.40
77,0.34,-0.46,9.30,-0.21,-0.05,-0.40
81,0.34,-0.46,9.30,-0.20,-0.01,-0.38
86,0.34,-0.46,9.30,-0.18,0.06,-0.39
91,0.34,-0.46,9.30,-0.18,0.11,-0.38
97,-1.07,-0.15,11.26,-0.18,0.11,-0.38
101,-1.07,-0.15,11.26,-0.17,0.08,-0.37
106,-1.07,-0.15,11.26,-0.15,0.04,-0.38
112,-0.46,-0.69,10.31,-0.15,0.04,-0.38
116,-0.46,-0.69,10.31,-0.13,0.02,-0.38
121,-0.46,-0.69,10.31,-0.12,0.04,-0.35
126,-0.46,-0.69,10.31,-0.12,0.05,-0.33
131,-0.96,-0.69,8.88,-0.12,0.05,-0.33
136,-0.96,-0.69,8.88,-0.14,0.07,-0.31
141,-0.96,-0.69,8.88,-0.15,0.07,-0.33
147,-1.72,-0.54,10.03,-0.15,0.07,-0.33
151,-1.72,-0.54,10.03,-0.12,0.08,-0.31
156,-1.72,-0.54,10.03,-0.11,0.10,-0.27
162,-1.72,-0.54,10.03,-0.10,0.09,-0.24
166,-1.72,-0.54,10.03,-0.10,0.07,-0.24
171,-1.72,-0.54,10.03,-0.09,0.02,-0.23
176,-1.72,-0.54,10.03,-0.08,-0.04,-0.20
182,-0.80,-1.76,8.96,-0.08,-0.04,-0.20
186,-0.80,-1.76,8.96,-0.05,-0.09,-0.15
191,-0.80,-1.76,8.96,-0.02,-0.06,-0.13
196,-0.80,-1.76,8.96,0.00,-0.02,-0.11
202,-0.38,-1.38,11.26,0.00,-0.02,-0.11
206,-0.38,-1.38,11.26,0.04,0.08,-0.06
211,-0.38,-1.38,11.26,0.03,0.12,-0.04
217,-0.54,-1.84,9.42,0.03,0.12,-0.04
221,-0.54,-1.84,9.42,0.01,0.10,-0.02
226,-0.54,-1.84,9.42,0.00,0.07,-0.00
232,-1.46,-1.46,9.20,0.00,0.07,-0.00
236,-1.46,-1.46,9.20,0.00,0.05,0.06
241,-1.46,-1.46,9.20,0.00,0.06,0.08
246,-1.46,-1.46,9.20,-0.00,0.06,0.08
251,-1.95,-1.61,9.80,-0.00,0.06,0.08
256,-1.95,-1.61,9.80,-0.01,0.06,0.10
261,-1.95,-1.61,9.80,-0.01,0.03,0.13
266,-1.04,-1.53,8.39,-0.01,0.03,0.13
271,-1.04,-1.53,8.39,-0.00,0.00,0.16
276,-1.04,-1.53,8.39,0.01,0.01,0.19
281,-1.04,-1.53,8.39,0.01,0.01,0.22
287,-0.57,-1.99,8.24,0.01,0.01,0.22
291,-0.57,-1.99,8.24,0.02,-0.01,0.27
296,-0.57,-1.99,8.24,0.03,-0.01,0.28
302,-0.57,-1.99,8.24,0.03,0.01,0.28
306,-0.57,-1.99,8.24,0.02,0.03,0.26
311,-0.57,-1.99,8.24,0.02,0.04,0.24
316,-0.57,-1.99,8.24,0.04,0.04,0.25
322,0.11,-2.18,9.81,0.04,0.04,0.25
326,0.11,-2.18,9.81,0.04,0.01,0.25
331,0.11,-2.18,9.81,0.02,0.01,0.22
337,0.38,-1.04,10.15,0.02,0.01,0.22
341,0.38,-1.04,10.15,-0.02,0.05,0.14
346,0.38,-1.04,10.15,-0.03,0.08,0.12
351,0.38,-1.04,10.15,-0.04,0.11,0.10
357,0.00,-0.88,9.80,-0.04,0.11,0.10
361,0.00,-0.88,9.80,-0.08,0.12,0.04
366,0.00,-0.88,9.80,-0.09,0.11,0.01
372,0.30,0.23,9.23,-0.09,0.11,0.01
376,0.30,0.23,9.23,-0.10,0.07,-0.02
381,0.30,0.23,9.23,-0.13,0.05,-0.04
387,-1.00,2.11,6.59,-0.13,0.05,-0.04
391,-1.00,2.11,6.59,-0.19,0.00,-0.06
396,-1.00,2.11,6.59,-0.21,-0.03,-0.08
401,-1.00,2.11,6.59,-0.22,-0.05,-0.09
407,1.42,2.34,10.54,-0.22,-0.05,-0.09
411,1.42,2.34,10.54,-0.23,-0.08,-0.11
416,1.42,2.34,10.54,-0.22,-0.09,-0.15
422,1.42,2.34,10.54,-0.21,-0.07,-0.22
426,1.42,2.34,10.54,-0.23,-0.01,-0.29
431,1.42,2.34,10.54,-0.23,0.08,-0.32
436,1.42,2.34,10.54,-0.26,0.16,-0.32
442,1.42,2.34,10.54,-0.32,0.21,-0.35
446,1.42,2.34,10.54,-0.36,0.22,-0.39
451,1.42,2.34,10.54,-0.42,0.16,-0.43
456,-2.61,2.26,6.59,-0.42,0.16,-0.43
462,-1.27,2.38,8.74,-0.42,0.16,-0.43
466,-1.27,2.38,8.74,-0.48,0.02,-0.63
472,-1.27,2.38,8.74,-0.43,-0.03,-0.59
476,-1.27,2.38,8.74,-0.39,-0.03,-0.58
481,-1.27,2.38,8.74,-0.35,-0.01,-0.62
486,-1.27,2.38,8.74,-0.35,0.04,-0.63
492,-2.68,1.15,9.27,-0.35,0.04,-0.63
496,-2.68,1.15,9.27,-0.33,0.10,-0.58
501,-2.68,1.15,9.27,-0.34,0.09,-0.59
506,-2.68,1.15,9.27,-0.35,0.09,-0.65
511,-1.95,1.61,9.35,-0.35,0.09,-0.65
516,-1.95,1.61,9.35,-0.39,0.15,-0.72
521,-1.95,1.61,9.35,-0.37,0.15,-0.65
527,-2.18,0.23,9.35,-0.37,0.15,-0.65
531,-2.18,0.23,9.35,-0.37,0.10,-0.59
536,-2.18,0.23,9.35,-0.38,0.08,-0.64
541,-2.18,0.23,9.35,-0.38,0.06,-0.67
547,-0.57,-0.08,10.42,-0.38,0.06,-0.67
551,-0.57,-0.08,10.42,-0.32,0.06,-0.56
556,-0.57,-0.08,10.42,-0.31,0.08,-0.50
562,-0.57,-0.08,10.42,-0.29,0.10,-0.46
566,-0.57,-0.08,10.42,-0.29,0.12,-0.45
571,-0.57,-0.08,10.42,-0.29,0.15,-0.46
576,-0.57,-0.08,10.42,-0.29,0.15,-0.42
582,-1.19,-1.72,9.80,-0.29,0.15,-0.42
586,-1.19,-1.72,9.80,-0.27,0.08,-0.36
591,-1.19,-1.72,9.80,-0.27,0.06,-0.37
597,0.38,-1.88,9.58,-0.27,0.06,-0.37
601,0.38,-1.88,9.58,-0.25,0.07,-0.35
606,0.38,-1.88,9.58,-0.21,0.09,-0.33
611,0.38,-1.88,9.58,-0.20,0.09,-0.29
616,0.38,-1.88,9.58,-0.19,0.09,-0.27
621,0.38,-1.88,9.58,-0.20,0.10,-0.30
626,0.38,-1.88,9.58,-0.20,0.10,-0.35
631,0.27,-2.91,9.81,-0.20,0.10,-0.35
636,0.27,-2.91,9.81,-0.16,0.10,-0.34
640,0.27,-2.91,9.81,-0.16,0.13,-0.32
646,0.27,-2.91,9.81,-0.16,0.14,-0.32
651,-1.00,-1.99,7.85,-0.16,0.14,-0.32
656,-1.00,-1.99,7.85,-0.18,0.06,-0.36
662,-1.00,-1.99,7.85,-0.20,-0.00,-0.38
666,-1.00,-1.99,7.85,-0.19,-0.04,-0.42
671,-1.00,-1.99,7.85,-0.20,-0.04,-0.46
676,-1.00,-1.99,7.85,-0.17,-0.02,-0.48
681,-1.00,-1.99,7.85,-0.13,0.04,-0.52
686,-1.00,-1.99,7.85,-0.12,0.12,-0.56
691,-1.00,-1.99,7.85,-0.14,0.21,-0.59
696,-1.00,-1.99,7.85,-0.18,0.27,-0.62
701,-1.00,-1.99,7.85,-0.22,0.28,-0.63
706,-1.00,-1.99,7.85,-0.25,0.25,-0.64
711,-1.00,-1.99,7.85,-0.27,0.19,-0.65
716,-0.04,1.76,9.39,-0.27,0.19,-0.65
721,-0.19,2.41,10.65,-0.27,0.19,-0.65
726,-0.19,2.41,10.65,-0.26,0.10,-0.67
731,-0.19,2.41,10.65,-0.24,0.10,-0.65
736,-0.19,2.41,10.65,-0.23,0.10,-0.66
741,-0.19,2.41,10.65,-0.22,0.09,-0.65
746,-0.19,2.41,10.65,-0.21,0.07,-0.63
751,0.69,0.08,9.00,-0.21,0.07,-0.63
756,0.69,0.08,9.00,-0.24,0.04,-0.65
761,0.69,0.08,9.00,-0.25,0.05,-0.67
766,0.69,0.08,9.00,-0.26,0.08,-0.67
771,0.69,0.08,9.00,-0.26,0.10,-0.67
776,0.69,0.08,9.00,-0.27,0.12,-0.69
781,0.69,0.08,9.00,-0.28,0.17,-0.76
786,-1.42,-0.77,10.27,-0.28,0.17,-0.76
791,-1.42,-0.77,10.27,-0.29,0.24,-0.79
796,-1.42,-0.77,10.27,-0.26,0.23,-0.77
801,-1.42,-0.77,10.27,-0.25,0.18,-0.77
806,-1.42,-0.77,10.27,-0.25,0.12,-0.77
811,-1.42,-0.77,10.27,-0.24,0.09,-0.78
816,-1.42,-0.77,10.27,-0.24,0.11,-0.82
821,-1.42,-0.77,10.27,-0.24,0.15,-0.84
826,-1.42,-0.77,10.27,-0.23,0.18,-0.83
831,-1.42,-0.77,10.27,-0.21,0.22,-0.84
836,-1.42,-0.77,10.27,-0.22,0.25,-0.88
841,-1.53,-0.69,8.50,-0.22,0.25,-0.88
846,-1.53,-0.69,8.50,-0.22,0.27,-0.88
851,-1.53,-0.69,8.50,-0.22,0.27,-0.88
856,-3.07,1.57,7.59,-0.22,0.27,-0.88
861,-3.07,1.57,7.59,-0.25,0.22,-0.84
866,-3.07,1.57,7.59,-0.26,0.19,-0.82
871,-3.07,1.57,7.59,-0.24,0.12,-0.80
876,-3.07,1.57,7.59,-0.19,0.06,-0.78
881,-3.07,1.57,7.59,-0.15,0.04,-0.76
886,-3.07,1.57,7.59,-0.12,0.04,-0.72
891,2.84,-1.00,13.95,-0.12,0.04,-0.72
896,2.84,-1.00,13.95,-0.06,0.05,-0.75
901,2.84,-1.00,13.95,-0.05,0.13,-0.81
906,-0.96,-0.54,9.00,-0.05,0.13,-0.81
911,-0.96,-0.54,9.00,-0.11,0.35,-0.79
916,-0.96,-0.54,9.00,-0.17,0.42,-0.76
921,-0.96,-0.54,9.00,-0.21,0.45,-0.74
926,-3.79,1.34,7.01,-0.21,0.45,-0.74
931,-1.91,0.88,8.36,-0.21,0.45,-0.74
937,-1.91,0.88,8.36,-0.25,0.35,-0.73
942,-1.91,0.88,8.36,-0.17,0.13,-0.74
945,1.00,-4.64,11.50,-0.17,0.13,-0.74
951,1.00,-4.64,11.50,-0.03,0.03,-0.65
956,1.00,-4.64,11.50,0.02,0.04,-0.58
961,1.00,-4.64,11.50,0.04,0.08,-0.52
966,1.00,-4.64,11.50,0.06,0.12,-0.46
971,1.00,-4.64,11.50,0.02,0.15,-0.46
976,0.08,0.57,9.69,0.02,0.15,-0.46
981,-1.46,0.15,10.80,0.02,0.15,-0.46
986,-1.46,0.15,10.80,-0.08,0.23,-0.63
991,-1.46,0.15,10.80,-0.07,0.28,-0.62
996,-1.46,0.15,10.80,-0.05,0.27,-0.57
1001,-1.46,0.15,10.80,-0.05,0.24,-0.58
1006,-1.46,0.15,10.80,-0.03,0.21,-0.59
1011,-1.15,-3.03,9.04,-0.03,0.21,-0.59
1016,-1.15,-3.03,9.04,0.01,0.18,-0.55
1021,-1.15,-3.03,9.04,0.01,0.14,-0.53
1026,-1.15,-3.03,9.04,0.02,0.12,-0.54
1031,-1.15,-3.03,9.04,0.03,0.12,-0.55
1036,-1.15,-3.03,9.04,0.04,0.13,-0.54
1041,-1.15,-3.03,9.04,0.06,0.14,-0.53
1046,0.15,-1.72,9.96,0.06,0.14,-0.53
1051,0.15,-1.72,9.96,0.07,0.20,-0.55
1056,0.15,-1.72,9.96,0.08,0.19,-0.53
1061,0.15,-1.72,9.96,0.08,0.18,-0.53
1066,0.15,-1.72,9.96,0.07,0.17,-0.55
1071,0.15,-1.72,9.96,0.07,0.18,-0.55
1076,0.15,-1.72,9.96,0.08,0.19,-0.54
1081,0.15,-1.72,9.96,0.07,0.20,-0.55
1086,0.15,-1.72,9.96,0.06,0.19,-0.56
1091,0.15,-1.72,9.96,0.05,0.19,-0.57
1096,0.15,-1.72,9.96,0.04,0.18,-0.58
1101,-1.15,-0.96,9.46,0.04,0.18,-0.58
1106,-1.15,-0.96,9.46,0.04,0.21,-0.56
1111,-1.15,-0.96,9.46,0.04,0.23,-0.55
1116,-1.15,-0.96,9.46,0.06,0.23,-0.53
1121,-1.15,-0.96,9.46,0.06,0.22,-0.51
1126,-1.15,-0.96,9.46,0.06,0.17,-0.49
1132,-1.15,-0.96,9.46,0.06,0.10,-0.48
1136,-1.15,-0.96,9.46,0.06,0.03,-0.49
1140,2.91,-2.22,12.22,0.06,0.03,-0.49
1146,2.91,-2.22,12.22,0.10,-0.06,-0.51
1152,1.72,-2.64,12.57,0.10,-0.06,-0.51
1156,1.72,-2.64,12.57,0.12,0.07,-0.59
1161,-0.54,-1.99,9.73,0.12,0.07,-0.59
1166,-0.54,-1.99,9.73,0.11,0.29,-0.52
1171,-0.54,-1.99,9.73,0.08,0.35,-0.50
1176,-0.54,-1.99,9.73,0.05,0.35,-0.53
1181,-0.54,-1.99,9.73,0.01,0.33,-0.57
1186,-0.54,-1.99,9.73,-0.01,0.30,-0.57
1191,-0.54,-1.99,9.73,0.01,0.25,-0.56
1196,-0.54,-1.99,9.73,0.03,0.21,-0.53
1201,-0.54,-1.99,9.73,0.09,0.15,-0.48
1206,-0.54,-1.99,9.73,0.13,0.09,-0.43
1211,-0.54,-1.99,9.73,0.16,0.06,-0.39
1216,-0.54,-1.99,9.73,0.16,0.04,-0.35
1221,-0.54,-1.99,9.73,0.15,0.04,-0.35
1226,-0.54,-1.99,9.73,0.13,0.08,-0.37
1231,-0.54,-1.99,9.73,0.11,0.12,-0.36
1236,-0.54,-1.99,9.73,0.10,0.16,-0.33
1241,-0.54,-1.99,9.73,0.11,0.20,-0.29
1246,-0.54,-1.99,9.73,0.12,0.23,-0.28
1252,-0.54,-1.99,9.73,0.10,0.27,-0.32
1256,-0.54,-1.99,9.73,0.09,0.29,-0.35
1260,-0.54,-1.99,9.73,0.09,0.25,-0.29
1265,-2.76,-1.68,8.24,0.09,0.25,-0.29
1271,-2.76,-1.68,8.24,0.11,0.19,-0.22
1276,-2.76,-1.68,8.24,0.11,0.08,-0.19
1281,-2.76,-1.68,8.24,0.11,0.00,-0.19
1287,-2.76,-1.68,8.24,0.09,-0.01,-0.23
1291,-2.76,-1.68,8.24,0.07,0.01,-0.26
1295,-0.80,-1.30,11.03,0.07,0.01,-0.26
1301,-0.80,-1.30,11.03,0.08,0.11,-0.28
1307,-1.34,-2.41,10.54,0.08,0.11,-0.28
1311,-0.73,-2.14,10.42,0.08,0.11,-0.28
1315,-0.27,-1.46,10.30,0.08,0.11,-0.28
1322,-0.27,-1.46,10.30,0.08,0.22,-0.36
1327,-0.27,-1.46,10.30,0.07,0.22,-0.37
1331,-3.07,0.23,7.24,0.07,0.22,-0.37
1335,-2.95,0.11,5.67,0.07,0.22,-0.37
1342,-2.95,0.11,5.67,-0.02,0.24,-0.31
1347,-2.95,0.11,5.67,-0.04,0.18,-0.29
1351,-1.11,0.34,10.54,-0.04,0.18,-0.29
1356,-0.11,0.19,11.38,-0.04,0.18,-0.29
1361,-0.11,0.19,11.38,0.00,-0.02,-0.22
1366,-0.11,0.19,11.38,0.02,-0.04,-0.24
1371,-0.11,0.19,11.38,0.06,-0.02,-0.28
1376,-0.11,0.19,11.38,0.09,0.04,-0.30
1381,-1.57,-0.65,8.78,0.09,0.04,-0.30
1385,-2.53,0.27,8.43,0.09,0.04,-0.30
1391,-2.53,0.27,8.43,0.02,0.26,-0.20
1397,-2.53,0.27,8.43,-0.04,0.30,-0.24
1401,-1.53,2.57,8.43,-0.04,0.30,-0.24
1406,-0.38,1.19,9.50,-0.04,0.30,-0.24
1411,-0.38,1.19,9.50,-0.15,0.15,-0.31
1416,-0.38,1.19,9.50,-0.12,0.10,-0.36
1421,-0.38,1.19,9.50,-0.08,0.06,-0.36
1426,-0.38,1.19,9.50,-0.04,0.05,-0.30
1431,-0.38,1.19,9.50,-0.01,0.04,-0.23
1436,-0.77,-1.04,9.43,-0.01,0.04,-0.23
1441,-0.80,0.00,9.65,-0.01,0.04,-0.23
1446,-0.80,0.00,9.65,-0.04,0.07,-0.27
1451,-0.80,0.00,9.65,-0.05,0.10,-0.31
1456,-0.80,0.00,9.65,-0.07,0.14,-0.37
1462,-0.80,0.00,9.65,-0.11,0.20,-0.43
1466,-0.92,-1.07,8.58,-0.11,0.20,-0.43
1470,-0.57,-0.69,8.46,-0.11,0.20,-0.43
1476,-0.57,-0.69,8.46,-0.13,0.16,-0.39
1481,-0.57,-0.69,8.46,-0.15,0.10,-0.45
1486,-0.57,-0.69,8.46,-0.15,0.05,-0.49
1491,0.88,0.38,11.07,-0.15,0.05,-0.49
1496,1.19,0.19,10.19,-0.15,0.05,-0.49
1501,1.99,-0.69,10.41,-0.15,0.05,-0.49
1506,1.99,-0.69,10.41,-0.13,0.13,-0.57
1511,1.99,-0.69,10.41,-0.13,0.15,-0.59
1516,1.99,-0.69,10.41,-0.15,0.17,-0.62
1521,-0.11,-0.19,9.58,-0.15,0.17,-0.62
1526,0.23,0.04,9.81,-0.15,0.17,-0.62
1531,0.23,0.04,9.81,-0.18,0.20,-0.65
1536,1.23,-0.27,11.19,-0.18,0.20,-0.65
1540,1.27,-0.30,11.03,-0.18,0.20,-0.65
1546,1.27,-0.30,11.03,-0.17,0.17,-0.75
1551,1.27,-0.30,11.03,-0.14,0.18,-0.73
1556,-1.11,-0.04,9.27,-0.14,0.18,-0.73
1561,-0.46,0.34,8.81,-0.14,0.18,-0.73
1566,-0.46,0.34,8.81,-0.16,0.18,-0.67
1571,-0.23,1.27,9.61,-0.16,0.18,-0.67
1576,1.04,1.11,10.00,-0.16,0.18,-0.67
1581,1.19,1.19,10.27,-0.16,0.18,-0.67
1586,1.19,1.19,10.27,-0.18,0.13,-0.69
1591,-0.61,-0.27,9.77,-0.18,0.13,-0.69
1595,-0.92,-1.11,9.08,-0.18,0.13,-0.69
1602,-0.92,-1.11,9.08,-0.20,0.21,-0.69
1606,0.19,-0.38,10.38,-0.20,0.21,-0.69
1610,1.49,-0.42,11.03,-0.20,0.21,-0.69
1616,1.49,-0.42,11.03,-0.18,0.10,-0.70
1621,1.49,-0.42,11.03,-0.17,0.12,-0.73
1626,1.07,-0.46,12.48,-0.17,0.12,-0.73
1631,-1.23,-0.46,11.19,-0.17,0.12,-0.73
1636,-1.23,-0.46,11.19,-0.17,0.34,-0.79
1641,-1.23,-0.46,11.19,-0.18,0.40,-0.77
1646,-1.23,-0.46,11.19,-0.20,0.38,-0.72
1652,-1.23,-0.46,11.19,-0.22,0.31,-0.71
1656,0.69,0.19,10.61,-0.22,0.31,-0.71
1660,0.69,0.19,10.61,-0.23,0.21,-0.79
1665,0.11,0.15,10.57,-0.23,0.21,-0.79
1670,-1.04,-0.54,11.03,-0.23,0.21,-0.79
1677,-1.04,-0.54,11.03,-0.21,0.26,-0.79
1682,-1.04,-0.54,11.03,-0.16,0.31,-0.68
1686,-3.03,0.11,6.66,-0.16,0.31,-0.68
1690,-4.67,0.61,5.48,-0.16,0.31,-0.68
1696,-4.67,0.61,5.48,-0.19,0.23,-0.55
1701,-4.67,0.61,5.48,-0.23,0.19,-0.54
1706,-4.67,0.61,5.48,-0.22,0.11,-0.51
1711,-1.38,-0.69,8.27,-0.22,0.11,-0.51
1715,-0.57,-1.99,9.77,-0.22,0.11,-0.51
1722,-0.57,-1.99,9.77,-0.17,-0.02,-0.39
1726,-1.84,-2.30,11.49,-0.17,-0.02,-0.39
1731,-2.76,-2.03,10.84,-0.17,-0.02,-0.39
1736,-1.88,-2.57,10.57,-0.17,-0.02,-0.39
1741,-1.84,-1.11,9.77,-0.17,-0.02,-0.39
1746,-1.84,-1.11,9.77,-0.12,0.22,-0.33
1751,-1.84,-1.11,9.77,-0.15,0.24,-0.33
1756,-1.84,-1.11,9.77,-0.16,0.24,-0.33
1761,-0.19,-1.07,8.31,-0.16,0.24,-0.33
1765,-0.42,-1.34,9.46,-0.16,0.24,-0.33
1771,-0.42,-1.34,9.46,-0.20,0.14,-0.41
1776,-0.42,-1.34,9.46,-0.17,0.17,-0.42
1781,-2.26,-2.95,6.25,-0.17,0.17,-0.42
1786,-4.06,-2.14,5.63,-0.17,0.17,-0.42
1791,-4.06,-2.14,5.63,-0.18,0.21,-0.33
1796,-2.45,-1.15,5.79,-0.18,0.21,-0.33
1801,-1.80,-0.23,6.25,-0.18,0.21,-0.33
1806,-1.27,0.04,8.20,-0.18,0.21,-0.33
1811,0.00,-1.11,8.43,-0.18,0.21,-0.33
1815,-0.23,-2.03,8.78,-0.18,0.21,-0.33
1822,-0.23,-2.03,8.78,-0.18,-0.10,-0.33
1826,-0.23,-2.03,8.78,-0.16,-0.10,-0.33
1831,0.80,-2.34,12.76,-0.16,-0.10,-0.33
1836,1.23,-3.10,14.18,-0.16,-0.10,-0.33
1841,3.18,-2.07,14.25,-0.16,-0.10,-0.33
1846,3.60,-1.07,12.22,-0.16,-0.10,-0.33
1850,1.61,-0.11,12.14,-0.16,-0.10,-0.33
1856,1.61,-0.11,12.14,-0.18,0.10,-0.77
1862,1.61,-0.11,12.14,-0.23,0.21,-0.90
1866,0.27,0.04,8.01,-0.23,0.21,-0.90
1870,0.27,0.04,8.01,-0.35,0.32,-1.04
1876,0.27,1.07,8.70,-0.35,0.32,-1.04
1881,0.27,1.07,8.70,-0.40,0.28,-1.17
1886,2.64,1.00,12.91,-0.40,0.28,-1.17
1891,3.68,0.30,12.41,-0.40,0.28,-1.17
1896,3.68,0.30,12.41,-0.40,0.03,-1.52
1901,4.02,-0.15,14.36,-0.40,0.03,-1.52
1906,4.33,-0.19,14.18,-0.40,0.03,-1.52
1911,3.64,0.57,13.37,-0.40,0.03,-1.52
1916,4.18,2.64,11.50,-0.40,0.03,-1.52
1921,4.94,3.91,12.14,-0.40,0.03,-1.52
1926,3.18,4.48,10.57,-0.40,0.03,-1.52
1931,3.18,4.48,10.57,-0.49,0.34,-1.99
1936,0.34,3.14,10.41,-0.49,0.34,-1.99
1940,0.34,3.14,10.41,-0.55,0.54,-2.05
1945,-0.50,3.18,10.84,-0.55,0.54,-2.05
1950,1.00,3.56,12.83,-0.55,0.54,-2.05
1957,1.00,3.56,12.83,-0.51,0.54,-2.02
1961,3.10,2.03,14.90,-0.51,0.54,-2.02
1966,2.18,1.68,13.83,-0.51,0.54,-2.02
1971,3.52,-1.15,13.21,-0.51,0.54,-2.02
1976,2.41,-1.15,12.64,-0.51,0.54,-2.02
1981,3.37,-1.91,12.22,-0.51,0.54,-2.02
1986,1.65,-1.19,10.61,-0.51,0.54,-2.02
1991,1.61,-0.38,11.19,-0.51,0.54,-2.02
1996,-1.11,-0.61,10.54,-0.51,0.54,-2.02
2001,-1.07,-0.92,10.92,-0.51,0.54,-2.02
2006,-1.30,-1.27,10.80,-0.51,0.54,-2.02
2011,-1.23,-1.76,10.57,-0.51,0.54,-2.02
2016,-1.88,-3.10,10.34,-0.51,0.54,-2.02
2021,-1.07,-2.45,9.39,-0.51,0.54,-2.02
2026,-1.15,-2.64,9.42,-0.51,0.54,-2.02
2031,-0.23,-4.02,10.23,-0.51,0.54,-2.02
2036,0.08,-3.48,8.08,-0.51,0.54,-2.02
2040,0.08,-3.48,8.08,0.01,0.54,-1.62
2046,-0.80,-3.95,9.27,0.01,0.54,-1.62
2051,-0.80,-3.95,9.27,0.04,0.56,-1.57
2056,-6.44,-2.95,11.64,0.04,0.56,-1.57
2060,-6.44,-2.95,11.64,0.22,0.81,-1.18
2065,-4.45,-3.48,12.57,0.22,0.81,-1.18
2070,-2.38,-2.41,14.21,0.22,0.81,-1.18
2077,-2.38,-2.41,14.21,0.25,0.85,-1.05
2082,3.18,-2.53,12.68,0.25,0.85,-1.05
2086,0.15,-4.86,11.45,0.25,0.85,-1.05
2091,-2.99,-5.63,9.00,0.25,0.85,-1.05
2097,-4.67,-5.63,8.23,0.25,0.85,-1.05
2101,-4.41,-2.84,9.23,0.25,0.85,-1.05
2106,-4.29,-1.53,9.84,0.25,0.85,-1.05
2111,-2.18,-1.46,11.61,0.25,0.85,-1.05
2116,-0.15,-0.42,9.81,0.25,0.85,-1.05
2121,2.41,0.15,11.15,0.25,0.85,-1.05
2126,1.84,-4.67,11.76,0.25,0.85,-1.05
2131,1.84,-4.67,11.76,0.53,0.52,-0.53
2135,-0.77,-6.93,10.19,0.53,0.52,-0.53
2141,-0.77,-6.93,10.19,0.57,0.55,-0.45
2146,-4.25,-6.89,10.45,0.57,0.55,-0.45
2151,-1.95,-2.76,8.85,0.57,0.55,-0.45
2156,-1.53,-0.96,7.97,0.57,0.55,-0.45
2161,-3.33,-0.27,9.16,0.57,0.55,-0.45
2166,-3.68,-0.57,8.77,0.57,0.55,-0.45
2171,-1.38,-1.15,8.62,0.57,0.55,-0.45
2176,0.96,-3.14,8.01,0.57,0.55,-0.45
2181,0.96,-3.14,8.01,0.56,0.31,-0.13
2186,-0.77,-6.59,8.36,0.56,0.31,-0.13
2191,-0.42,-5.94,9.54,0.56,0.31,-0.13
2196,-1.00,-5.02,10.53,0.56,0.31,-0.13
2201,-1.15,-2.87,11.53,0.56,0.31,-0.13
2206,-0.88,-2.41,11.96,0.56,0.31,-0.13
2212,-1.19,-0.34,11.53,0.56,0.31,-0.13
2216,-1.19,-0.34,11.53,0.58,0.47,-0.16
2221,0.69,-0.23,10.19,0.58,0.47,-0.16
2226,0.34,-0.92,9.16,0.58,0.47,-0.16
2231,-0.92,-1.19,8.46,0.58,0.47,-0.16
2236,-0.11,-1.61,7.09,0.58,0.47,-0.16
2241,-0.27,-1.27,7.05,0.58,0.47,-0.16
2246,-2.53,-1.00,6.36,0.58,0.47,-0.16
2251,-2.53,-1.00,6.36,0.44,0.31,-0.22
2256,-2.53,-1.00,6.36,0.40,0.30,-0.21
2261,-3.22,1.53,2.41,0.40,0.30,-0.21
2266,-2.98,1.80,1.68,0.40,0.30,-0.21
2272,-1.49,0.69,2.95,0.40,0.30,-0.21
2276,1.07,0.65,6.51,0.40,0.30,-0.21
2281,3.91,0.15,9.35,0.40,0.30,-0.21
2286,4.90,-0.30,11.84,0.40,0.30,-0.21
2291,6.05,-1.34,14.44,0.40,0.30,-0.21
2296,3.60,-3.87,16.86,0.40,0.30,-0.21
2301,2.41,-3.14,16.05,0.40,0.30,-0.21
2306,1.30,-2.07,14.21,0.40,0.30,-0.21
2311,-1.61,0.54,11.61,0.40,0.30,-0.21
2316,-1.04,1.76,9.96,0.40,0.30,-0.21
2320,-1.04,1.76,9.96,0.35,0.63,-0.24
2326,-0.19,2.34,9.61,0.35,0.63,-0.24
2330,-0.19,2.34,9.61,0.26,0.64,-0.30
2338,-0.19,2.34,9.61,0.18,0.60,-0.37
2341,-0.42,-4.29,10.31,0.18,0.60,-0.37
2345,-0.42,-4.29,10.31,0.24,0.33,-0.50
2351,0.00,-5.75,10.53,0.24,0.33,-0.50
2356,0.34,-5.94,9.69,0.24,0.33,-0.50
2361,-0.08,-3.64,9.96,0.24,0.33,-0.50
2366,0.65,-1.57,9.27,0.24,0.33,-0.50
2371,0.65,-1.57,9.27,0.41,0.08,-0.33
2375,0.65,-1.57,9.27,0.40,0.08,-0.36
2381,0.80,-0.69,8.08,0.40,0.08,-0.36
2387,0.88,-1.99,7.81,0.40,0.08,-0.36
2391,0.88,-1.99,7.81,0.34,0.12,-0.31
2396,0.88,-1.99,7.81,0.32,0.11,-0.31
2401,2.68,-2.53,12.11,0.32,0.11,-0.31
2407,3.14,-2.49,12.45,0.32,0.11,-0.31
2411,2.18,-2.72,12.76,0.32,0.11,-0.31
2416,-0.23,-3.29,11.49,0.32,0.11,-0.31
2421,-0.50,-3.03,12.98,0.32,0.11,-0.31
2427,-0.50,-2.80,12.53,0.32,0.11,-0.31
2431,0.50,-1.04,11.64,0.32,0.11,-0.31
2437,1.61,-1.15,12.53,0.32,0.11,-0.31
2441,1.61,-1.15,12.53,0.33,0.29,-0.44
2446,-0.54,-0.73,8.66,0.33,0.29,-0.44
2451,-0.69,-1.23,8.32,0.33,0.29,-0.44
2456,-2.80,-0.73,8.35,0.33,0.29,-0.44
2462,-4.33,-0.46,7.93,0.33,0.29,-0.44
2466,-3.48,-0.34,7.13,0.33,0.29,-0.44
2471,-3.60,0.15,8.16,0.33,0.29,-0.44
2476,-3.98,0.88,7.89,0.33,0.29,-0.44
2481,-4.21,1.23,8.16,0.33,0.29,-0.44
2487,0.23,0.96,7.35,0.33,0.29,-0.44
2491,0.23,0.96,7.35,0.34,0.02,-0.03
2495,0.23,0.96,7.35,0.26,0.08,-0.03
2502,-6.25,-0.27,1.42,0.26,0.08,-0.03
2507,-5.78,0.46,0.42,0.26,0.08,-0.03
2511,-5.78,0.46,0.42,0.23,-0.01,0.31
2516,-5.78,0.46,0.42,0.19,-0.12,0.32
2522,-1.15,-0.54,7.70,0.19,-0.12,0.32
2526,-1.15,-0.54,7.70,0.23,-0.31,0.29
2531,-0.42,-2.91,11.15,0.23,-0.31,0.29
2536,-4.14,-3.03,10.35,0.23,-0.31,0.29
2542,-8.32,-2.84,8.08,0.23,-0.31,0.29
2546,-8.32,-2.84,8.08,0.27,0.06,0.39
2551,-1.15,-3.60,10.88,0.27,0.06,0.39
2557,-3.14,-1.34,12.64,0.27,0.06,0.39
2561,-3.14,-1.34,12.64,0.33,0.01,0.36
2566,3.95,-0.11,12.07,0.33,0.01,0.36
2571,0.54,-1.80,11.22,0.33,0.01,0.36
2576,0.54,-1.80,11.22,0.16,0.02,0.07
2581,0.54,-1.80,11.22,0.13,0.13,-0.02
2586,-2.30,-4.21,9.38,0.13,0.13,-0.02
2592,-3.10,-3.75,9.73,0.13,0.13,-0.02
2596,-3.10,-3.75,9.73,0.20,0.30,0.04
2601,0.42,-0.54,7.93,0.20,0.30,0.04
2607,-1.23,-0.34,8.92,0.20,0.30,0.04
2611,-1.23,-0.34,8.92,0.08,0.22,-0.26
2616,-1.23,-0.34,8.92,0.09,0.17,-0.37
2621,-0.80,-3.48,8.58,0.09,0.17,-0.37
2627,-0.77,-2.91,9.27,0.09,0.17,-0.37
2631,-0.77,-2.91,9.27,0.12,-0.04,-0.31
2636,-0.77,-2.91,9.27,0.16,-0.09,-0.32
2642,2.22,-0.73,11.99,0.16,-0.09,-0.32
2646,2.22,-0.73,11.99,0.14,-0.07,-0.45
2651,2.22,-0.73,11.99,0.12,-0.03,-0.52
2656,0.80,-0.57,10.39,0.12,-0.03,-0.52
2662,-2.14,0.19,8.85,0.12,-0.03,-0.52
2666,-2.14,0.19,8.85,0.05,0.21,-0.68
2671,-3.48,0.77,7.55,0.05,0.21,-0.68
2676,-1.42,1.68,7.89,0.05,0.21,-0.68
2682,0.08,2.41,9.38,0.05,0.21,-0.68
2686,0.08,2.41,9.38,0.00,-0.13,-0.66
2691,3.60,1.27,10.65,0.00,-0.13,-0.66
2696,4.71,-0.23,11.64,0.00,-0.13,-0.66
2702,4.56,0.00,8.46,0.00,-0.13,-0.66
2706,0.46,-0.65,9.23,0.00,-0.13,-0.66
2711,1.42,-0.96,9.58,0.00,-0.13,-0.66
2716,1.42,-0.96,9.58,-0.01,-0.13,-0.78
2721,1.42,-0.96,9.58,-0.04,-0.06,-0.83
2727,1.80,1.42,11.15,-0.04,-0.06,-0.83
2731,1.80,1.42,11.15,-0.07,-0.05,-0.99
2736,1.80,1.42,11.15,-0.09,-0.04,-1.04
2741,6.13,1.38,10.19,-0.09,-0.04,-1.04
2747,4.94,1.15,9.50,-0.09,-0.04,-1.04
2751,4.94,1.15,9.50,-0.10,0.09,-1.13
2756,4.94,1.15,9.50,-0.08,0.19,-1.11
2760,1.61,0.30,9.16,-0.08,0.19,-1.11
2766,1.61,0.30,9.16,-0.10,0.21,-1.05
2770,-2.64,1.49,9.42,-0.10,0.21,-1.05
2778,-2.64,1.49,9.42,-0.08,0.30,-1.12
2782,-5.44,-0.65,10.27,-0.08,0.30,-1.12
2786,-5.44,-0.65,10.27,0.02,0.35,-1.03
2791,-2.03,0.42,8.89,0.02,0.35,-1.03
2796,-2.22,-0.19,9.00,0.02,0.35,-1.03
2802,0.84,-0.54,8.54,0.02,0.35,-1.03
2806,0.84,-0.54,8.54,0.07,-0.03,-0.93
2811,0.27,-3.10,9.08,0.07,-0.03,-0.93
2816,1.30,-2.45,9.35,0.07,-0.03,-0.93
2822,1.88,-2.99,9.16,0.07,-0.03,-0.93
2826,0.96,-1.88,9.46,0.07,-0.03,-0.93
2832,-2.99,-1.15,9.50,0.07,-0.03,-0.93
2836,-2.99,-1.15,9.50,0.14,0.34,-0.93
2841,-2.99,-1.15,9.50,0.18,0.53,-0.89
2846,-11.11,-2.49,9.39,0.18,0.53,-0.89
2851,-12.06,-3.26,10.84,0.18,0.53,-0.89
2855,-12.06,-3.26,10.84,0.32,0.58,-0.57
2862,2.45,0.73,13.48,0.32,0.58,-0.57
2867,5.75,-0.42,14.18,0.32,0.58,-0.57
2871,5.75,-0.42,14.18,0.35,-0.23,-0.50
2876,5.75,-0.42,14.18,0.34,-0.31,-0.52
2883,-3.18,-5.25,10.61,0.34,-0.31,-0.52
2886,-3.18,-5.25,10.61,0.44,0.09,-0.40
2891,-3.18,-5.25,10.61,0.41,0.35,-0.21
2896,-3.18,-5.25,10.61,0.39,0.52,-0.08
2902,-5.17,2.07,9.04,0.39,0.52,-0.08
2906,-5.17,2.07,9.04,0.29,0.48,-0.15
2911,-5.17,2.07,9.04,0.23,0.28,-0.21
2916,-5.17,2.07,9.04,0.20,0.05,-0.23
2922,5.44,-3.41,8.12,0.20,0.05,-0.23
2926,5.44,-3.41,8.12,0.33,-0.27,-0.04
2931,1.99,-5.29,12.38,0.33,-0.27,-0.04
2937,2.03,-5.75,14.40,0.33,-0.27,-0.04
2941,2.03,-5.75,14.40,0.49,-0.12,0.14
2946,0.65,-5.13,14.21,0.49,-0.12,0.14
2952,3.07,-4.60,13.75,0.49,-0.12,0.14
2956,3.07,-4.60,13.75,0.52,0.15,0.06
2961,3.07,-4.60,13.75,0.49,0.26,-0.00
2966,-2.41,-2.53,6.29,0.49,0.26,-0.00
2972,-2.41,-2.03,5.09,0.49,0.26,-0.00
2976,-2.41,-2.03,5.09,0.37,0.40,0.07
2981,-5.48,-2.53,8.27,0.37,0.40,0.07
2987,-4.25,-2.72,9.42,0.37,0.40,0.07
2991,-4.25,-2.72,9.42,0.36,0.17,0.06
2996,-4.25,-2.72,9.42,0.39,0.04,0.14
3001,-0.46,-2.80,10.57,0.39,0.04,0.14
3007,-0.61,-2.41,8.96,0.39,0.04,0.14
3011,-0.61,-2.41,8.96,0.42,-0.08,0.18
3016,-0.61,-2.41,8.96,0.43,-0.03,0.21
3022,-0.77,-1.88,7.59,0.43,-0.03,0.21
3027,-0.77,-1.88,7.59,0.41,0.03,0.33
3031,-0.77,-1.88,7.59,0.40,0.07,0.31
3036,-0.96,-0.23,10.65,0.40,0.07,0.31
3042,-1.57,0.04,10.45,0.40,0.07,0.31
3046,-1.57,0.04,10.45,0.34,0.10,0.19
3051,-1.57,0.04,10.45,0.34,0.13,0.18
3057,0.96,-1.57,9.42,0.34,0.13,0.18
3061,0.96,-1.57,9.42,0.34,0.04,0.19
3066,0.96,-1.57,9.42,0.36,0.01,0.13
3071,0.77,0.30,6.63,0.36,0.01,0.13
3077,-2.91,0.50,6.20,0.36,0.01,0.13
3081,-2.91,0.50,6.20,0.27,0.08,0.08
3086,-2.91,0.50,6.20,0.24,0.07,0.04
3091,-0.57,-0.23,8.24,0.24,0.07,0.04
3095,-0.57,-0.23,8.24,0.20,0.02,-0.09
3101,-0.57,-0.23,8.24,0.21,0.03,-0.12
3105,0.73,-0.69,10.50,0.21,0.03,-0.12
3112,0.73,-0.69,10.50,0.21,0.03,-0.13
3117,1.65,-0.04,13.48,0.21,0.03,-0.13
3122,1.65,-0.04,13.48,0.25,-0.01,-0.23
3126,1.65,-0.04,13.48,0.23,-0.01,-0.26
3131,1.65,-0.04,13.48,0.21,0.00,-0.28
3136,1.65,-0.04,13.48,0.21,0.01,-0.33
3142,-1.49,2.84,6.09,0.21,0.01,-0.33
3146,-1.49,2.84,6.09,0.08,0.14,-0.50
3151,-1.49,2.84,6.09,0.05,0.19,-0.54
3156,-1.49,2.84,6.09,0.03,0.16,-0.52
3162,2.80,-0.27,8.08,0.03,0.16,-0.52
3166,2.80,-0.27,8.08,0.04,-0.05,-0.57
3171,2.80,-0.27,8.08,0.06,-0.05,-0.65
3176,2.80,-0.27,8.08,0.10,-0.01,-0.66
3182,0.96,-1.30,13.37,0.10,-0.01,-0.66
3186,0.96,-1.30,13.37,0.16,0.19,-0.61
3191,0.96,-1.30,13.37,0.17,0.26,-0.57
3197,0.88,-1.23,10.80,0.17,0.26,-0.57
3201,0.88,-1.23,10.80,0.21,0.06,-0.45
3206,0.88,-1.23,10.80,0.18,-0.06,-0.51
3212,7.74,-1.15,12.03,0.18,-0.06,-0.51
3216,7.74,-1.15,12.03,0.16,-0.21,-0.64
3221,7.74,-1.15,12.03,0.18,-0.12,-0.67
3226,-1.11,-2.38,8.89,0.18,-0.12,-0.67
3232,-4.41,-1.49,8.54,0.18,-0.12,-0.67
3236,-4.41,-1.49,8.54,0.18,0.38,-0.56
3241,-4.41,-1.49,8.54,0.20,0.43,-0.53
3247,-2.41,1.19,8.58,0.20,0.43,-0.53
3251,-2.41,1.19,8.58,0.20,0.25,-0.48
3256,-2.41,1.19,8.58,0.20,0.10,-0.45
3262,5.48,0.04,11.95,0.20,0.10,-0.45
3266,5.48,0.04,11.95,0.24,-0.17,-0.24
3271,5.48,0.04,11.95,0.27,-0.12,-0.17
3276,5.48,0.04,11.95,0.34,0.00,-0.09
3282,-6.86,0.50,5.29,0.34,0.00,-0.09
3286,-6.86,0.50,5.29,0.33,0.20,0.13
3291,-6.86,0.50,5.29,0.33,0.20,0.22
3296,-6.86,0.50,5.29,0.24,0.08,0.27
3302,-10.38,-1.46,6.55,0.24,0.08,0.27
3306,-10.38,-1.46,6.55,0.21,-0.27,0.15
3311,-10.38,-1.46,6.55,0.21,-0.41,0.17
3317,-0.54,-2.45,11.80,0.21,-0.41,0.17
3321,-0.54,-2.45,11.80,0.33,-0.33,0.37
3326,-0.54,-2.45,11.80,0.38,-0.17,0.44
3332,-2.11,-3.68,8.81,0.38,-0.17,0.44
3336,-2.11,-3.68,8.81,0.43,0.01,0.44
3341,-2.11,-3.68,8.81,0.44,0.04,0.44
3346,-0.57,-3.60,7.66,0.44,0.04,0.44
3352,-1.53,-3.87,7.24,0.44,0.04,0.44
3356,-1.53,-3.87,7.24,0.41,-0.03,0.46
3361,-1.53,-3.87,7.24,0.41,-0.01,0.43
3367,-3.37,-2.22,9.12,0.41,-0.01,0.43
3371,-3.37,-2.22,9.12,0.41,0.00,0.52
3376,-3.37,-2.22,9.12,0.41,0.02,0.53
3381,-0.77,-2.49,10.41,0.41,0.02,0.53
3387,-0.69,-1.53,10.03,0.41,0.02,0.53
3391,-0.69,-1.53,10.03,0.39,-0.09,0.38
3396,-0.69,-1.53,10.03,0.38,-0.13,0.37
3402,-0.96,-2.61,6.47,0.38,-0.13,0.37
3406,-0.96,-2.61,6.47,0.33,-0.16,0.42
3411,-0.96,-2.61,6.47,0.32,-0.16,0.38
3417,-0.96,-2.61,6.47,0.32,-0.13,0.32
3421,-0.96,-2.61,6.47,0.34,-0.09,0.26
3426,-0.96,-2.61,6.47,0.37,-0.02,0.22
3431,-0.96,-2.61,6.47,0.38,0.08,0.20
3437,1.72,-3.07,12.45,0.38,0.08,0.20
3441,1.72,-3.07,12.45,0.40,0.20,0.15
3446,1.72,-3.07,12.45,0.40,0.24,0.13
3451,-5.13,0.04,6.02,0.40,0.24,0.13
3458,-3.91,0.46,4.25,0.40,0.24,0.13
3461,-3.91,0.46,4.25,0.31,0.31,0.13
3466,-5.02,-0.54,6.21,0.31,0.31,0.13
3472,-1.38,-0.61,6.36,0.31,0.31,0.13
3476,-1.38,-0.61,6.36,0.25,-0.15,0.17
3481,-1.38,-0.61,6.36,0.28,-0.37,0.21
3487,5.09,-1.68,10.46,0.28,-0.37,0.21
3491,5.09,-1.68,10.46,0.32,-0.55,0.28
3495,5.09,-1.68,10.46,0.30,-0.50,0.30
3501,5.09,-1.68,10.46,0.31,-0.41,0.32
3505,-0.61,-3.79,9.77,0.31,-0.41,0.32
3512,-0.61,-3.79,9.77,0.34,-0.31,0.37
3517,1.80,-2.80,11.07,0.34,-0.31,0.37
3522,4.41,-1.95,12.64,0.34,-0.31,0.37
3526,4.41,-1.95,12.64,0.42,-0.08,0.39
3531,4.41,-1.95,12.64,0.37,-0.04,0.34
3536,4.41,-1.95,12.64,0.34,-0.02,0.34
3542,2.76,-1.65,10.15,0.34,-0.02,0.34
3546,2.76,-1.65,10.15,0.30,0.03,0.34
3551,2.76,-1.65,10.15,0.27,0.07,0.32
3556,2.76,-1.65,10.15,0.28,0.07,0.39
3562,-2.14,-1.27,8.12,0.28,0.07,0.39
3566,-2.14,-1.27,8.12,0.26,0.00,0.51
3571,-2.14,-1.27,8.12,0.25,-0.03,0.48
3577,0.77,-1.76,10.04,0.25,-0.03,0.48
3581,0.77,-1.76,10.04,0.27,-0.15,0.50
3586,0.77,-1.76,10.04,0.31,-0.14,0.55
3592,-0.65,-0.69,10.31,0.31,-0.14,0.55
3596,-0.65,-0.69,10.31,0.32,-0.03,0.63
3601,-0.65,-0.69,10.31,0.33,0.02,0.66
3606,0.00,0.19,11.61,0.33,0.02,0.66
3612,-1.15,0.30,10.88,0.33,0.02,0.66
3616,-1.15,0.30,10.88,0.27,0.02,0.54
3621,-1.15,0.30,10.88,0.23,0.00,0.45
3627,-1.80,0.00,7.31,0.23,0.00,0.45
3631,-1.80,0.00,7.31,0.16,0.07,0.34
3636,-1.80,0.00,7.31,0.13,0.14,0.30
3641,-3.68,0.96,7.17,0.13,0.14,0.30
3647,-1.91,1.72,6.93,0.13,0.14,0.30
3651,-1.91,1.72,6.93,0.01,0.12,0.08
3656,-1.91,1.72,6.93,-0.01,0.07,-0.01
3662,-2.87,0.65,9.12,-0.01,0.07,-0.01
3666,-2.87,0.65,9.12,-0.01,0.08,-0.09
3671,-2.87,0.65,9.12,-0.04,0.17,-0.14
3676,-2.87,0.65,9.12,-0.06,0.24,-0.18
3682,-4.71,0.77,8.08,-0.06,0.24,-0.18
3686,-4.71,0.77,8.08,-0.04,0.08,-0.15
3691,-4.71,0.77,8.08,-0.07,-0.08,-0.19
3697,-4.71,0.77,8.08,-0.07,-0.28,-0.25
3701,-4.71,0.77,8.08,-0.08,-0.39,-0.32
3706,-4.71,0.77,8.08,-0.08,-0.41,-0.37
3711,0.69,-0.11,7.43,-0.08,-0.41,-0.37
3717,-2.34,0.38,7.89,-0.08,-0.41,-0.37
3721,-2.34,0.38,7.89,-0.09,0.01,-0.32
3726,-2.14,0.27,11.88,-0.09,0.01,-0.32
3732,-2.03,0.73,11.04,-0.09,0.01,-0.32
3736,-2.03,0.73,11.04,-0.03,0.23,-0.25
3741,-2.03,0.73,11.04,-0.05,0.20,-0.23
3747,3.68,2.14,15.17,-0.05,0.20,-0.23
3751,3.68,2.14,15.17,0.04,0.01,-0.15
3756,3.68,2.14,15.17,0.07,0.01,-0.09
3761,3.68,2.14,15.17,0.10,0.07,-0.03
3767,0.46,3.64,10.99,0.10,0.07,-0.03
3771,0.46,3.64,10.99,0.11,0.25,0.04
3776,0.46,3.64,10.99,0.06,0.30,0.03
3782,-3.37,2.14,8.16,0.06,0.30,0.03
3786,-3.37,2.14,8.16,-0.08,0.27,-0.02
3791,-3.37,2.14,8.16,-0.13,0.23,-0.07
3796,-3.37,2.14,8.16,-0.14,0.16,-0.08
3802,-4.29,-0.34,5.94,-0.14,0.16,-0.08
3806,-4.29,-0.34,5.94,-0.12,-0.01,-0.04
3811,-4.29,-0.34,5.94,-0.13,-0.08,-0.04
3817,-0.38,-0.30,2.91,-0.13,-0.08,-0.04
3821,-0.38,-0.30,2.91,-0.13,-0.31,-0.14
3826,-0.38,-0.30,2.91,-0.15,-0.40,-0.16
3831,-0.38,-0.30,2.91,-0.18,-0.50,-0.15
3837,4.56,-0.27,15.74,-0.18,-0.50,-0.15
3841,4.56,-0.27,15.74,-0.16,-0.52,-0.15
3846,4.56,-0.27,15.74,-0.15,-0.38,-0.19
3852,-5.40,0.96,14.64,-0.15,-0.38,-0.19
3856,-5.40,0.96,14.64,-0.09,0.16,-0.22
3861,-5.40,0.96,14.64,-0.04,0.33,-0.17
3866,-5.40,0.96,14.64,-0.02,0.31,-0.11
3871,-5.40,0.96,14.64,-0.00,0.20,-0.08
3876,-5.40,0.96,14.64,-0.06,0.10,-0.11
3881,-5.40,0.96,14.64,-0.13,0.01,-0.18
3886,1.88,1.38,9.61,-0.13,0.01,-0.18
3891,1.88,1.38,9.61,-0.22,-0.11,-0.21
3896,1.88,1.38,9.61,-0.21,-0.07,-0.18
3902,1.88,1.38,9.61,-0.19,0.01,-0.15
3906,1.88,1.38,9.61,-0.17,0.08,-0.14
3911,1.88,1.38,9.61,-0.13,0.13,-0.15
3916,1.88,1.38,9.61,-0.12,0.09,-0.15
3922,2.22,-0.27,9.12,-0.12,0.09,-0.15
3926,2.22,-0.27,9.12,-0.12,-0.04,-0.15
3931,2.22,-0.27,9.12,-0.12,-0.04,-0.17
3937,2.22,-0.27,9.12,-0.13,-0.00,-0.17
3941,2.22,-0.27,9.12,-0.13,0.07,-0.17
3946,2.22,-0.27,9.12,-0.14,0.17,-0.17
3951,2.22,-0.27,9.12,-0.15,0.25,-0.16
3957,-4.06,1.23,8.43,-0.15,0.25,-0.16
3961,-4.06,1.23,8.43,-0.17,0.19,-0.19
3966,-4.06,1.23,8.43,-0.16,0.07,-0.19
3972,-4.06,1.23,8.43,-0.16,-0.07,-0.17
3976,-4.06,1.23,8.43,-0.15,-0.20,-0.12
3981,-4.06,1.23,8.43,-0.16,-0.30,-0.08
3986,-4.06,1.23,8.43,-0.18,-0.35,-0.10
3992,-1.15,-0.19,9.96,-0.18,-0.35,-0.10
3996,-1.15,-0.19,9.96,-0.20,-0.29,-0.14
4001,-1.15,-0.19,9.96,-0.19,-0.25,-0.14
4006,-1.15,-0.19,9.96,-0.12,-0.16,-0.12
4011,-1.15,-0.19,9.96,-0.12,-0.09,-0.09
4016,-1.15,-0.19,9.96,-0.10,-0.05,-0.08
4021,-1.15,-0.19,9.96,-0.07,-0.06,-0.07
4027,2.84,-1.46,9.50,-0.07,-0.06,-0.07
4031,2.84,-1.46,9.50,-0.09,-0.09,-0.08
4036,2.84,-1.46,9.50,-0.09,-0.07,-0.07
4042,2.84,-1.46,9.50,-0.08,-0.01,-0.06
4047,2.84,-1.46,9.50,-0.06,0.09,-0.06
4051,2.84,-1.46,9.50,-0.05,0.20,-0.05
4056,2.84,-1.46,9.50,-0.03,0.22,-0.03
4061,2.84,-1.46,9.50,-0.01,0.23,-0.02
4066,2.84,-1.46,9.50,-0.01,0.28,-0.04
4071,2.84,-1.46,9.50,-0.02,0.33,-0.05
4077,-6.51,0.23,6.13,-0.02,0.33,-0.05
4081,-6.51,0.23,6.13,-0.05,0.39,-0.03
4086,-6.51,0.23,6.13,-0.04,0.32,-0.02
4092,-6.51,0.23,6.13,-0.08,0.19,-0.04
4096,-6.51,0.23,6.13,-0.08,0.01,-0.05
4101,-6.51,0.23,6.13,-0.08,-0.18,-0.04
4106,-6.51,0.23,6.13,-0.09,-0.29,-0.02
4112,3.22,-0.54,9.65,-0.09,-0.29,-0.02
4116,3.22,-0.54,9.65,-0.10,-0.29,0.01
4121,3.22,-0.54,9.65,-0.08,-0.20,0.03
4126,3.22,-0.54,9.65,-0.06,-0.04,0.04
4131,3.22,-0.54,9.65,-0.06,0.12,0.05
4136,3.22,-0.54,9.65,-0.04,0.20,0.08
4141,3.22,-0.54,9.65,0.00,0.24,0.09
4147,-4.10,-1.00,7.97,0.00,0.24,0.09
4151,-4.10,-1.00,7.97,-0.06,0.14,0.04
4156,-4.10,-1.00,7.97,-0.08,-0.05,0.01
4162,-4.10,-1.00,7.97,-0.07,-0.20,-0.01
4166,-4.10,-1.00,7.97,-0.10,-0.23,-0.02
4171,-4.10,-1.00,7.97,-0.11,-0.21,-0.01
4176,-4.10,-1.00,7.97,-0.11,-0.13,-0.01
4182,-2.41,-1.42,13.07,-0.11,-0.13,-0.01
4186,-2.41,-1.42,13.07,-0.08,0.10,-0.07
4191,-2.41,-1.42,13.07,-0.06,0.18,-0.11
4197,-2.41,-1.42,13.07,-0.06,0.17,-0.09
4201,-2.41,-1.42,13.07,-0.04,0.11,-0.07
4206,-2.41,-1.42,13.07,-0.05,0.02,-0.08
4211,-2.41,-1.42,13.07,-0.08,-0.07,-0.11
4217,-2.41,-1.42,13.07,-0.06,-0.16,-0.12
4221,-2.41,-1.42,13.07,-0.08,-0.17,-0.12
4226,-2.41,-1.42,13.07,-0.07,-0.09,-0.13
4231,-2.41,-1.42,13.07,-0.06,0.06,-0.14
4236,-2.41,-1.42,13.07,-0.04,0.22,-0.15
4241,-2.41,-1.42,13.07,-0.02,0.36,-0.17
4246,-2.41,-1.42,13.07,-0.01,0.40,-0.17
4252,-1.76,-0.92,7.59,-0.01,0.40,-0.17
4256,-1.76,-0.92,7.59,-0.04,0.16,-0.18
4261,-1.76,-0.92,7.59,-0.05,-0.04,-0.22
4266,-1.76,-0.92,7.59,-0.09,-0.15,-0.27
4271,-1.76,-0.92,7.59,-0.08,-0.12,-0.32
4276,-1.76,-0.92,7.59,-0.10,0.03,-0.36
4281,-1.76,-0.92,7.59,-0.06,0.22,-0.37
4287,-8.35,-0.61,10.39,-0.06,0.22,-0.37
4291,-8.35,-0.61,10.39,-0.00,0.34,-0.34
4296,-8.35,-0.61,10.39,0.01,0.21,-0.34
4301,-8.35,-0.61,10.39,0.01,-0.02,-0.37
4306,-8.35,-0.61,10.39,0.01,-0.23,-0.42
4311,-8.35,-0.61,10.39,-0.02,-0.33,-0.47
4316,-8.35,-0.61,10.39,-0.02,-0.34,-0.51
4321,-8.35,-0.61,10.39,-0.03,-0.26,-0.49
4326,-8.35,-0.61,10.39,-0.01,-0.11,-0.46
4331,-8.35,-0.61,10.39,-0.01,0.09,-0.44
4337,-3.48,1.84,10.91,-0.01,0.09,-0.44
4341,-3.48,1.84,10.91,-0.02,0.36,-0.51
4346,-3.48,1.84,10.91,-0.02,0.37,-0.55
4351,-3.48,1.84,10.91,-0.00,0.33,-0.56
4357,-1.65,1.38,7.43,-0.00,0.33,-0.56
4361,-1.65,1.38,7.43,-0.06,0.14,-0.59
4366,-1.65,1.38,7.43,-0.05,-0.01,-0.59
4371,1.30,1.04,8.20,-0.05,-0.01,-0.59
4376,1.30,1.04,8.20,-0.08,-0.19,-0.59
4381,1.30,1.04,8.20,-0.07,-0.20,-0.59
4386,1.30,1.04,8.20,-0.07,-0.21,-0.59
4391,1.30,1.04,8.20,-0.04,-0.18,-0.59
4396,1.30,1.04,8.20,0.00,-0.07,-0.60
4401,1.30,1.04,8.20,0.03,0.09,-0.61
4407,-2.14,-1.27,10.69,0.03,0.09,-0.61
4411,-2.14,-1.27,10.69,0.07,0.31,-0.55
4416,-2.14,-1.27,10.69,0.10,0.35,-0.52
4421,-2.14,-1.27,10.69,0.09,0.33,-0.51
4426,-2.14,-1.27,10.69,0.06,0.25,-0.50
4431,-2.14,-1.27,10.69,0.06,0.12,-0.51
4436,-2.14,-1.27,10.69,0.08,-0.00,-0.51
4442,1.30,-1.68,8.62,0.08,-0.00,-0.51
4446,1.30,-1.68,8.62,0.12,-0.10,-0.41
4451,1.30,-1.68,8.62,0.13,-0.09,-0.39
4456,1.30,-1.68,8.62,0.08,-0.04,-0.40
4461,1.30,-1.68,8.62,0.08,0.03,-0.38
4466,1.30,-1.68,8.62,0.10,0.06,-0.33
4471,1.30,-1.68,8.62,0.14,0.08,-0.30
4477,0.46,-2.11,10.73,0.14,0.08,-0.30
4481,0.46,-2.11,10.73,0.17,0.00,-0.22
4486,0.46,-2.11,10.73,0.22,-0.07,-0.16
4491,0.46,-2.11,10.73,0.21,-0.08,-0.14
4496,0.46,-2.11,10.73,0.21,-0.06,-0.09
4501,0.46,-2.11,10.73,0.22,-0.04,-0.03
4506,0.46,-2.11,10.73,0.21,-0.02,-0.02
4512,-0.65,-2.53,9.34,0.21,-0.02,-0.02
4516,-0.65,-2.53,9.34,0.25,-0.02,0.06
4521,-0.65,-2.53,9.34,0.27,-0.02,0.11
4527,-0.65,-2.53,9.34,0.28,0.02,0.10
4531,-0.65,-2.53,9.34,0.28,0.04,0.11
4536,-0.65,-2.53,9.34,0.29,0.03,0.14
4541,-0.65,-2.53,9.34,0.31,0.06,0.11
4547,-3.83,-3.18,6.36,0.31,0.06,0.11
4551,-3.83,-3.18,6.36,0.28,0.00,0.22
4556,-3.83,-3.18,6.36,0.29,-0.11,0.31
4562,-3.83,-3.18,6.36,0.28,-0.17,0.32
4566,-3.83,-3.18,6.36,0.29,-0.23,0.30
4571,-3.83,-3.18,6.36,0.28,-0.27,0.31
4576,-3.83,-3.18,6.36,0.28,-0.27,0.33
4581,-3.83,-3.18,6.36,0.31,-0.23,0.35
4586,-3.83,-3.18,6.36,0.33,-0.14,0.37
4591,-3.83,-3.18,6.36,0.36,-0.04,0.41
4597,-3.83,-3.18,6.36,0.37,0.02,0.43
4601,-3.83,-3.18,6.36,0.36,-0.00,0.44
4606,-3.83,-3.18,6.36,0.37,-0.02,0.43
4611,-3.83,-3.18,6.36,0.31,0.04,0.38
4617,-5.74,-1.27,5.13,0.31,0.04,0.38
4621,-5.74,-1.27,5.13,0.24,0.05,0.40
4626,-5.74,-1.27,5.13,0.29,-0.10,0.47
4632,1.88,-2.91,13.11,0.29,-0.10,0.47
4636,1.88,-2.91,13.11,0.31,-0.32,0.52
4641,1.88,-2.91,13.11,0.29,-0.33,0.51
4646,1.88,-2.91,13.11,0.26,-0.26,0.44
4652,1.80,-2.26,14.63,0.26,-0.26,0.44
4656,1.80,-2.26,14.63,0.31,0.06,0.40
4661,1.80,-2.26,14.63,0.33,0.25,0.51
4667,-6.89,2.03,4.64,0.33,0.25,0.51
4671,-6.89,2.03,4.64,0.33,0.46,0.69
4676,-6.89,2.03,4.64,0.29,0.43,0.65
4681,-6.89,2.03,4.64,0.21,0.25,0.60
4687,0.54,1.23,9.16,0.21,0.25,0.60
4691,0.54,1.23,9.16,0.16,-0.26,0.57
4696,0.54,1.23,9.16,0.16,-0.38,0.59
4702,0.30,-1.19,12.38,0.16,-0.38,0.59
4706,0.30,-1.19,12.38,0.19,-0.30,0.58
4711,0.30,-1.19,12.38,0.17,-0.15,0.55
4715,0.30,-1.19,12.38,0.20,-0.03,0.51
4720,-0.77,-1.68,9.42,0.20,-0.03,0.51
4726,-0.77,-1.68,9.42,0.19,0.02,0.49
4732,-0.77,-1.68,9.42,0.17,0.00,0.46
4737,0.04,-1.38,8.28,0.17,0.00,0.46
4741,0.04,-1.38,8.28,0.07,-0.05,0.34
4746,0.04,-1.38,8.28,0.05,0.02,0.25
4751,0.04,-1.38,8.28,0.04,0.10,0.20
4757,-3.68,-0.04,5.67,0.04,0.10,0.20
4761,-3.68,-0.04,5.67,0.02,0.16,0.18
4766,-3.68,-0.04,5.67,0.03,0.11,0.17
4772,-1.19,2.07,6.09,0.03,0.11,0.17
4776,-1.19,2.07,6.09,0.02,-0.14,0.13
4781,-1.19,2.07,6.09,0.01,-0.29,0.08
4787,-1.19,2.07,6.09,-0.01,-0.41,0.07
4791,-1.19,2.07,6.09,-0.01,-0.45,0.06
4796,-1.19,2.07,6.09,0.00,-0.37,0.04
4801,-1.19,2.07,6.09,0.01,-0.21,0.05
4807,-4.33,1.19,9.61,0.01,-0.21,0.05
4811,-4.33,1.19,9.61,-0.03,0.15,0.03
4816,-4.33,1.19,9.61,-0.01,0.22,0.01
4822,-4.33,1.19,9.61,-0.02,0.19,0.01
4826,-4.33,1.19,9.61,-0.05,0.11,-0.01
4831,-4.33,1.19,9.61,-0.06,0.01,-0.05
4836,-4.33,1.19,9.61,-0.06,-0.04,-0.07
4842,2.80,0.04,10.57,-0.06,-0.04,-0.07
4846,2.80,0.04,10.57,-0.08,-0.02,-0.07
4851,2.80,0.04,10.57,-0.09,0.02,-0.04
4857,2.80,0.04,10.57,-0.08,0.01,-0.01
4861,2.80,0.04,10.57,-0.10,0.06,-0.03
4866,2.80,0.04,10.57,-0.11,0.15,-0.04
4871,2.80,0.04,10.57,-0.11,0.27,-0.05
4877,-5.55,1.72,8.93,-0.11,0.27,-0.05
4881,-5.55,1.72,8.93,-0.08,0.37,-0.04
4886,-5.55,1.72,8.93,-0.08,0.31,0.00
4892,-1.04,1.72,9.04,-0.08,0.31,0.00
4896,-1.04,1.72,9.04,-0.13,0.01,0.05
4901,-1.04,1.72,9.04,-0.13,-0.16,0.06
4906,-1.04,1.72,9.04,-0.16,-0.27,0.05
4912,1.34,-0.61,7.66,-0.16,-0.27,0.05
4916,1.34,-0.61,7.66,-0.11,-0.28,0.12
4921,1.34,-0.61,7.66,-0.08,-0.22,0.19
4826,-4.33,1.19,9.61,-0.05,0.11,-0.01
4831,-4.33,1.19,9.61,-0.06,0.01,-0.05
4836,-4.33,1.19,9.61,-0.06,-0.04,-0.07
4842,2.80,0.04,10.57,-0.06,-0.04,-0.07
4846,2.80,0.04,10.57,-0.08,-0.02,-0.07
4851,2.80,0.04,10.57,-0.09,0.02,-0.04
4857,2.80,0.04,10.57,-0.08,0.01,-0.01
4861,2.80,0.04,10.57,-0.10,0.06,-0.03
4866,2.80,0.04,10.57,-0.11,0.15,-0.04
4871,2.80,0.04,10.57,-0.11,0.27,-0.05
4877,-5.55,1.72,8.93,-0.11,0.27,-0.05
4881,-5.55,1.72,8.93,-0.08,0.37,-0.04
4886,-5.55,1.72,8.93,-0.08,0.31,0.00
4892,-1.04,1.72,9.04,-0.08,0.31,0.00
4896,-1.04,1.72,9.04,-0.13,0.01,0.05
4901,-1.04,1.72,9.04,-0.13,-0.16,0.06
