timestamp,accX,accY,accZ,gyroX,gyroY,gyroZ
Straight
7,-1.19,-2.68,9.27,0.01,0.00,-0.02
19,-1.19,-2.68,9.27,0.01,0.00,-0.02
21,-1.19,-2.68,9.27,-0.00,0.06,-0.12
22,-1.72,-1.49,8.16,-0.00,0.06,-0.12
26,-1.72,-1.49,8.16,0.00,-0.04,-0.05
31,-1.68,-0.50,8.46,0.00,-0.04,-0.05
36,-1.68,-0.50,8.46,0.02,-0.08,0.00
42,1.57,-0.50,11.72,0.02,-0.08,0.00
46,1.57,-0.50,11.72,0.04,-0.16,0.06
51,1.57,-0.50,11.72,0.08,-0.15,0.02
57,0.57,-1.19,12.98,0.08,-0.15,0.02
61,0.57,-1.19,12.98,0.12,-0.00,-0.09
66,0.57,-1.19,12.98,0.13,0.11,-0.09
71,0.57,-1.19,12.98,0.10,0.22,-0.07
77,-2.91,0.42,7.09,0.10,0.22,-0.07
81,-2.91,0.42,7.09,0.04,0.30,-0.03
86,-2.91,0.42,7.09,-0.02,0.25,-0.06
92,0.15,2.18,9.23,-0.02,0.25,-0.06
96,0.15,2.18,9.23,-0.08,0.05,-0.19
101,0.15,2.18,9.23,-0.08,-0.02,-0.24
106,0.15,2.18,9.23,-0.04,-0.05,-0.22
112,-1.91,-1.57,9.46,-0.04,-0.05,-0.22
116,-1.91,-1.57,9.46,0.04,-0.07,-0.05
121,-1.91,-1.57,9.46,0.05,-0.07,0.04
126,0.27,0.19,8.08,0.05,-0.07,0.04
131,0.27,0.19,8.08,0.03,-0.10,0.07
136,0.27,0.19,8.08,0.01,-0.12,0.02
142,0.27,0.19,8.08,0.00,-0.12,-0.04
146,0.27,0.19,8.08,0.01,-0.11,-0.03
151,0.27,0.19,8.08,0.01,-0.09,0.03
156,0.27,0.19,8.08,0.04,-0.09,0.07
162,0.88,-2.45,11.00,0.04,-0.09,0.07
166,0.88,-2.45,11.00,0.05,-0.04,-0.01
171,0.88,-2.45,11.00,0.06,0.00,-0.06
177,0.88,-2.45,11.00,0.06,0.04,-0.09
181,0.88,-2.45,11.00,0.05,0.07,-0.10
186,0.88,-2.45,11.00,0.05,0.08,-0.09
191,0.88,-2.45,11.00,0.04,0.07,-0.10
197,0.23,-0.73,9.16,0.04,0.07,-0.10
201,0.23,-0.73,9.16,0.02,0.06,-0.20
206,0.23,-0.73,9.16,0.02,0.08,-0.23
212,0.23,-0.73,9.16,0.04,0.06,-0.20
216,0.23,-0.73,9.16,0.04,0.05,-0.16
221,0.23,-0.73,9.16,0.05,0.04,-0.15
226,0.23,-0.73,9.16,0.05,0.02,-0.16
232,0.19,-0.61,9.00,0.05,0.02,-0.16
236,0.19,-0.61,9.00,0.08,-0.02,-0.14
241,0.19,-0.61,9.00,0.07,-0.02,-0.11
247,-0.73,0.34,8.81,0.07,-0.02,-0.11
251,-0.73,0.34,8.81,0.07,0.01,-0.04
256,-0.73,0.34,8.81,0.04,-0.00,-0.04
261,-0.73,0.34,8.81,0.06,-0.04,-0.04
266,0.19,0.00,8.77,0.06,-0.04,-0.04
271,0.19,0.00,8.77,0.04,-0.10,-0.00
276,0.19,0.00,8.77,0.04,-0.10,0.01
282,-1.84,-0.69,7.93,0.04,-0.10,0.01
286,-1.84,-0.69,7.93,0.04,-0.04,0.05
291,-1.84,-0.69,7.93,0.07,-0.04,0.09
296,-1.84,-0.69,7.93,0.08,-0.06,0.11
302,1.65,0.11,11.72,0.08,-0.06,0.11
306,1.65,0.11,11.72,0.09,-0.12,0.08
311,1.65,0.11,11.72,0.11,-0.11,0.04
317,1.23,-1.04,11.30,0.11,-0.11,0.04
321,1.23,-1.04,11.30,0.11,0.03,0.02
326,1.23,-1.04,11.30,0.10,0.10,0.03
331,1.23,-1.04,11.30,0.09,0.17,0.02
337,-1.46,0.19,7.09,0.09,0.17,0.02
341,-1.46,0.19,7.09,0.03,0.16,0.01
346,-1.46,0.19,7.09,-0.08,0.09,-0.01
352,-9.12,1.23,8.04,-0.08,0.09,-0.01
356,-9.12,1.23,8.04,-0.18,0.02,-0.27
361,-9.12,1.23,8.04,-0.02,-0.08,-0.29
366,-9.12,1.23,8.04,0.04,-0.13,-0.18
372,0.77,-1.53,11.72,0.04,-0.13,-0.18
376,0.77,-1.53,11.72,-0.04,-0.08,-0.03
381,0.77,-1.53,11.72,0.03,-0.05,-0.07
387,-1.38,0.73,8.39,0.03,-0.05,-0.07
391,-1.38,0.73,8.39,0.04,0.10,-0.16
396,-1.38,0.73,8.39,0.04,0.13,-0.06
402,-1.38,0.73,8.39,0.02,0.15,0.01
406,-1.38,0.73,8.39,-0.01,0.10,0.01
411,-1.38,0.73,8.39,-0.01,0.03,-0.04
416,-1.38,0.73,8.39,0.00,-0.02,-0.06
422,-0.96,-0.11,9.92,0.00,-0.02,-0.06
426,-0.96,-0.11,9.92,-0.01,-0.04,0.01
431,-0.96,-0.11,9.92,-0.00,-0.05,0.03
437,-0.96,-0.11,9.92,0.01,-0.05,0.02
441,-0.96,-0.11,9.92,0.03,-0.04,-0.01
446,-0.96,-0.11,9.92,0.05,-0.03,0.02
451,-0.96,-0.11,9.92,0.03,0.00,0.08
457,-1.00,0.00,8.89,0.03,0.00,0.08
461,-1.00,0.00,8.89,0.01,0.07,0.10
466,-1.00,0.00,8.89,-0.04,0.10,0.04
471,-1.57,-1.07,7.78,-0.04,0.10,0.04
477,-1.53,-0.50,6.85,-0.04,0.10,0.04
481,-1.53,-0.50,6.85,-0.07,-0.04,0.13
486,-1.53,-0.50,6.85,-0.06,-0.10,0.15
492,-1.61,-1.23,8.73,-0.06,-0.10,0.15
496,-1.61,-1.23,8.73,-0.06,-0.14,0.15
501,-1.61,-1.23,8.73,-0.03,-0.16,0.18
507,-0.50,-3.03,11.76,-0.03,-0.16,0.18
511,-0.50,-3.03,11.76,0.02,-0.13,0.20
516,-0.50,-3.03,11.76,0.05,-0.09,0.19
521,-0.50,-3.03,11.76,0.07,-0.06,0.16
526,-0.65,-2.26,11.07,0.07,-0.06,0.16
531,-0.65,-2.26,11.07,0.11,0.11,0.09
536,-0.65,-2.26,11.07,0.11,0.22,0.06
542,-2.53,-0.34,7.47,0.11,0.22,0.06
546,-2.53,-0.34,7.47,0.06,0.28,0.02
551,-2.53,-0.34,7.47,0.01,0.22,-0.03
556,-2.53,-0.34,7.47,-0.04,0.14,-0.08
562,-1.53,-0.57,9.23,-0.04,0.14,-0.08
566,-1.53,-0.57,9.23,-0.09,-0.07,-0.20
571,-1.53,-0.57,9.23,-0.10,-0.13,-0.25
577,-1.53,-0.57,9.23,-0.10,-0.15,-0.29
581,-1.53,-0.57,9.23,-0.09,-0.14,-0.31
586,-1.53,-0.57,9.23,-0.06,-0.10,-0.29
591,-1.53,-0.57,9.23,-0.07,-0.06,-0.26
597,0.61,0.69,9.34,-0.07,-0.06,-0.26
601,0.61,0.69,9.34,-0.08,0.01,-0.29
606,0.61,0.69,9.34,-0.08,0.06,-0.32
612,-0.77,0.19,9.30,-0.08,0.06,-0.32
616,-0.77,0.19,9.30,-0.04,0.11,-0.29
621,-0.77,0.19,9.30,-0.04,0.11,-0.25
627,0.77,0.27,9.88,-0.04,0.11,-0.25
631,0.77,0.27,9.88,-0.02,0.03,-0.18
636,0.77,0.27,9.88,-0.02,0.00,-0.18
641,0.77,0.27,9.88,-0.02,-0.01,-0.18
646,-0.57,0.27,8.77,-0.02,-0.01,-0.18
651,-0.57,0.27,8.77,-0.04,0.00,-0.17
656,-0.57,0.27,8.77,-0.05,0.00,-0.17
662,-0.50,-1.15,9.50,-0.05,0.00,-0.17
666,-0.50,-1.15,9.50,-0.02,-0.01,-0.20
671,-0.50,-1.15,9.50,-0.03,0.00,-0.20
676,-0.50,-1.15,9.50,-0.02,0.02,-0.20
682,0.27,-0.92,10.07,-0.02,0.02,-0.20
686,0.27,-0.92,10.07,0.00,0.01,-0.21
691,0.27,-0.92,10.07,0.01,0.02,-0.23
697,0.27,-0.92,10.07,0.02,0.03,-0.24
701,0.27,-0.92,10.07,0.05,0.04,-0.25
706,0.27,-0.92,10.07,0.05,0.03,-0.25
711,0.27,-0.92,10.07,0.04,0.01,-0.25
716,0.27,-0.92,10.07,0.03,-0.00,-0.29
721,0.27,-0.92,10.07,0.00,-0.01,-0.33
726,0.27,-0.92,10.07,-0.00,-0.00,-0.38
732,-1.30,-0.65,8.43,-0.00,-0.00,-0.38
736,-1.30,-0.65,8.43,-0.01,0.05,-0.41
741,-1.30,-0.65,8.43,0.00,0.07,-0.42
746,-1.30,-0.65,8.43,-0.02,0.05,-0.43
752,-0.08,0.84,9.35,-0.02,0.05,-0.43
756,-0.08,0.84,9.35,-0.04,-0.04,-0.50
761,-0.08,0.84,9.35,-0.04,-0.10,-0.54
766,2.45,0.46,11.07,-0.04,-0.10,-0.54
771,2.45,0.46,11.07,-0.02,-0.10,-0.55
776,2.45,0.46,11.07,0.00,-0.04,-0.53
781,2.45,0.46,11.07,0.01,0.05,-0.48
786,-0.19,-0.11,8.88,0.01,0.05,-0.48
791,-0.19,-0.11,8.88,0.05,0.14,-0.45
796,-0.19,-0.11,8.88,0.05,0.13,-0.46
801,-0.96,2.11,8.85,0.05,0.13,-0.46
806,-0.96,2.11,8.85,0.05,0.09,-0.45
811,-0.96,2.11,8.85,0.06,0.10,-0.43
816,-0.96,2.11,8.85,0.06,0.11,-0.40
821,-0.96,2.11,8.85,0.08,0.09,-0.36
826,-0.96,2.11,8.85,0.07,0.04,-0.32
831,-0.96,2.11,8.85,0.09,-0.05,-0.28
836,-0.96,2.11,8.85,0.08,-0.15,-0.26
841,-0.96,2.11,8.85,0.09,-0.21,-0.24
846,-0.96,2.11,8.85,0.12,-0.20,-0.22
851,-0.96,2.11,8.85,0.13,-0.15,-0.18
856,0.69,-2.53,10.49,0.13,-0.15,-0.18
861,0.69,-2.53,10.49,0.19,-0.04,-0.07
866,0.69,-2.53,10.49,0.21,0.00,-0.03
871,0.08,-1.72,10.41,0.21,0.00,-0.03
876,0.08,-1.72,10.41,0.24,0.11,-0.02
881,0.08,-1.72,10.41,0.27,0.16,-0.00
886,-1.34,-2.07,8.54,0.27,0.16,-0.00
891,-1.34,-2.07,8.54,0.30,0.12,0.10
896,-1.34,-2.07,8.54,0.28,0.06,0.14
901,-1.34,-2.07,8.54,0.27,-0.01,0.15
906,-0.88,-1.91,9.23,0.27,-0.01,0.15
911,-0.88,-1.91,9.23,0.23,-0.08,0.13
916,-0.88,-1.91,9.23,0.25,-0.09,0.16
921,-1.15,-2.76,8.89,0.25,-0.09,0.16
926,-1.15,-2.76,8.89,0.27,-0.07,0.25
931,-1.15,-2.76,8.89,0.29,-0.07,0.27
936,-1.15,-2.76,8.89,0.29,-0.06,0.27
941,-1.15,-2.76,8.89,0.30,-0.05,0.29
946,-1.15,-2.76,8.89,0.32,-0.05,0.31
951,-1.15,-2.76,8.89,0.33,-0.03,0.33
956,-1.15,-2.76,8.89,0.32,-0.02,0.34
961,-1.15,-2.76,8.89,0.33,-0.03,0.35
966,-1.15,-2.76,8.89,0.32,-0.08,0.36
971,-1.15,-2.76,8.89,0.31,-0.14,0.38
976,-1.15,-2.76,8.89,0.28,-0.18,0.38
981,-1.15,-2.76,8.89,0.27,-0.18,0.38
986,-1.15,-2.76,8.89,0.30,-0.14,0.38
991,-1.80,-1.80,9.39,0.30,-0.14,0.38
996,-1.80,-1.80,9.39,0.35,0.02,0.42
1001,-1.80,-1.80,9.39,0.35,0.08,0.46
1006,-1.80,-1.80,9.39,0.34,0.09,0.47
1011,-1.80,-1.80,9.39,0.32,0.08,0.46
1016,-1.80,-1.80,9.39,0.28,0.06,0.42
1021,-1.80,-1.80,9.39,0.25,0.01,0.39
1026,-1.30,-0.50,9.16,0.25,0.01,0.39
1031,-1.30,-0.50,9.16,0.22,-0.04,0.38
1036,-1.30,-0.50,9.16,0.21,-0.04,0.40
1041,-1.30,-0.50,9.16,0.20,-0.05,0.41
1046,-1.30,-0.50,9.16,0.20,-0.10,0.40
1051,-1.30,-0.50,9.16,0.17,-0.13,0.39
1056,-1.30,-0.50,9.16,0.15,-0.14,0.37
1061,-2.30,0.92,8.46,0.15,-0.14,0.37
1066,-2.30,0.92,8.46,0.15,-0.08,0.30
1071,-2.30,0.92,8.46,0.15,-0.06,0.29
1076,-2.30,0.92,8.46,0.14,-0.05,0.30
1081,-2.30,0.92,8.46,0.13,-0.04,0.30
1086,-2.30,0.92,8.46,0.11,-0.03,0.27
1091,-2.30,0.92,8.46,0.09,-0.03,0.23
1096,-2.30,0.92,8.46,0.08,-0.03,0.18
1101,-2.30,0.92,8.46,0.06,-0.04,0.14
1106,-2.30,0.92,8.46,0.07,-0.03,0.13
1111,-2.30,0.92,8.46,0.06,-0.03,0.14
1116,1.07,-1.07,9.42,0.06,-0.03,0.14
1121,1.07,-1.07,9.42,0.07,-0.04,0.14
1126,1.07,-1.07,9.42,0.06,-0.02,0.13
1131,0.73,-0.04,11.38,0.06,-0.02,0.13
1136,0.73,-0.04,11.38,0.05,0.04,0.12
1141,0.73,-0.04,11.38,0.04,0.04,0.13
1146,0.73,-0.04,11.38,0.05,0.04,0.12
1151,0.73,-0.04,11.38,0.04,0.04,0.12
1156,0.73,-0.04,11.38,0.05,0.01,0.12
1161,0.73,-0.04,11.38,0.07,-0.01,0.14
1166,-1.42,1.19,8.35,0.07,-0.01,0.14
1171,-1.42,1.19,8.35,0.02,0.00,0.14
1176,-1.42,1.19,8.35,-0.01,-0.03,0.12
1181,-1.42,1.19,8.35,-0.02,-0.06,0.10
1186,-1.42,1.19,8.35,-0.03,-0.08,0.07
1191,-1.42,1.19,8.35,-0.05,-0.09,0.07
1196,-1.42,1.19,8.35,-0.03,-0.07,0.08
1201,-1.42,1.19,8.35,-0.03,-0.02,0.09
1206,-1.42,1.19,8.35,-0.02,0.03,0.08
1211,-1.42,1.19,8.35,-0.01,0.05,0.08
1216,-1.42,1.19,8.35,0.00,0.02,0.06
1221,-1.42,1.19,8.35,0.00,-0.03,0.05
1226,-1.42,1.19,8.35,0.00,-0.05,0.05
1231,-1.42,1.19,8.35,0.02,-0.04,0.06
1236,-1.42,1.19,8.35,0.03,-0.02,0.09
1241,-1.42,1.19,8.35,0.06,0.03,0.12
1246,-1.42,1.19,8.35,0.06,0.07,0.13
1251,-0.11,-0.38,10.07,0.06,0.07,0.13
1256,-0.11,-0.38,10.07,0.05,0.10,0.11
1261,-0.11,-0.38,10.07,0.05,0.08,0.11
1266,-0.11,-0.38,10.07,0.03,0.05,0.10
1271,-0.11,-0.38,10.07,0.01,0.02,0.10
1276,-0.11,-0.38,10.07,-0.00,-0.01,0.09
1281,-0.11,-0.38,10.07,-0.00,-0.04,0.09
1287,1.46,-0.46,8.24,-0.00,-0.04,0.09
1291,1.46,-0.46,8.24,-0.02,-0.13,0.13
1295,0.46,-0.88,9.27,-0.02,-0.13,0.13
1301,0.46,-0.88,9.27,-0.02,-0.11,0.14
1306,0.46,-0.88,9.27,-0.02,-0.05,0.15
1311,0.46,-0.88,9.27,-0.00,0.02,0.17
1316,0.46,-0.88,9.27,0.02,0.06,0.19
1321,0.46,-0.88,9.27,0.03,0.08,0.22
1325,-1.38,0.38,8.46,0.03,0.08,0.22
1331,-1.38,0.38,8.46,0.04,0.11,0.23
1336,-1.38,0.38,8.46,0.05,0.12,0.24
1341,-1.38,0.38,8.46,0.04,0.10,0.25
1346,-1.38,0.38,8.46,0.01,0.05,0.26
1351,-1.38,0.38,8.46,-0.01,-0.01,0.24
1357,-1.38,0.38,8.46,-0.02,-0.05,0.23
1361,-1.38,0.38,8.46,-0.02,-0.08,0.22
1365,-0.77,-0.34,9.65,-0.02,-0.08,0.22
1371,-0.77,-0.34,9.65,-0.02,-0.04,0.24
1377,-1.68,-0.23,9.16,-0.02,-0.04,0.24
1381,-1.68,-0.23,9.16,-0.04,0.01,0.23
1386,-1.19,-0.30,8.39,-0.04,0.01,0.23
1391,-1.19,-0.30,8.39,-0.07,-0.01,0.18
1396,-1.19,-0.30,8.39,-0.06,-0.04,0.17
1401,-1.19,-0.30,8.39,-0.05,-0.06,0.19
1406,-1.19,-0.30,8.39,-0.05,-0.06,0.21
1411,-1.19,-0.30,8.39,-0.06,-0.06,0.21
1415,-1.19,-0.30,8.39,-0.07,-0.08,0.20
1420,1.11,0.08,10.61,-0.07,-0.08,0.20
1425,1.04,-0.46,11.84,-0.07,-0.08,0.20
1432,1.04,-0.46,11.84,-0.08,-0.08,0.19
1436,1.04,-0.46,11.84,-0.07,0.00,0.16
1441,-1.30,-0.77,9.61,-0.07,0.00,0.16
1445,-0.61,-0.11,10.03,-0.07,0.00,0.16
1451,-0.61,-0.11,10.03,-0.00,0.13,0.21
1456,-0.61,-0.11,10.03,-0.02,0.10,0.22
1461,-0.61,-0.11,10.03,-0.05,0.04,0.19
1466,-0.61,-0.11,10.03,-0.07,0.02,0.13
1471,-0.61,-0.11,10.03,-0.08,0.00,0.10
1476,-0.61,-0.11,10.03,-0.07,0.01,0.10
1481,-0.61,-0.11,10.03,-0.06,0.01,0.12
1486,-2.38,-0.30,8.92,-0.06,0.01,0.12
1490,-0.65,1.07,8.73,-0.06,0.01,0.12
1496,-0.65,1.07,8.73,-0.07,-0.02,0.12
1501,-0.65,1.07,8.73,-0.10,-0.08,0.10
1506,-0.23,0.54,8.36,-0.10,-0.08,0.10
1511,-1.84,-0.19,8.27,-0.10,-0.08,0.10
1516,-1.53,-0.69,8.92,-0.10,-0.08,0.10
1521,-1.53,-0.69,8.92,-0.14,0.01,0.00
1526,-1.53,-0.69,8.92,-0.12,0.06,0.03
1531,-1.53,-0.69,8.92,-0.12,0.06,0.04
1536,-0.19,0.08,11.50,-0.12,0.06,0.04
1541,-0.54,0.69,11.00,-0.12,0.06,0.04
1546,-0.54,0.69,11.00,-0.15,0.03,-0.08
1551,0.11,-0.77,9.31,-0.15,0.03,-0.08
1555,0.23,-1.19,10.11,-0.15,0.03,-0.08
1561,0.23,-1.19,10.11,-0.13,0.06,-0.04
1566,0.23,-1.19,10.11,-0.13,0.06,-0.03
1571,-0.08,0.57,11.19,-0.13,0.06,-0.03
1576,-0.08,0.57,11.19,-0.12,0.08,-0.09
1581,-0.08,0.57,11.19,-0.12,0.11,-0.09
1586,-2.22,-0.23,9.00,-0.12,0.11,-0.09
1591,-1.34,-0.69,8.93,-0.12,0.11,-0.09
1596,-1.76,-0.08,7.70,-0.12,0.11,-0.09
1601,-1.76,-0.08,7.70,-0.10,0.13,-0.11
1606,-1.76,-0.08,7.70,-0.12,0.10,-0.12
1611,-1.76,-0.08,7.70,-0.12,0.06,-0.13
1617,-1.76,-0.08,7.70,-0.15,0.03,-0.14
1621,0.34,0.92,8.50,-0.15,0.03,-0.14
1625,-0.11,0.80,8.39,-0.15,0.03,-0.14
1631,-0.11,0.80,8.39,-0.23,-0.09,-0.27
1636,0.27,0.88,8.85,-0.23,-0.09,-0.27
1641,0.27,0.88,8.85,-0.23,-0.06,-0.28
1646,-0.65,0.08,9.04,-0.23,-0.06,-0.28
1651,0.27,0.80,9.93,-0.23,-0.06,-0.28
1656,0.77,0.00,11.54,-0.23,-0.06,-0.28
1661,0.77,0.00,11.54,-0.21,0.06,-0.32
1666,0.77,0.00,11.54,-0.20,0.07,-0.32
1671,0.00,0.08,9.89,-0.20,0.07,-0.32
1675,0.27,0.30,10.19,-0.20,0.07,-0.32
1681,0.27,0.30,10.19,-0.13,0.15,-0.26
1686,0.27,0.30,10.19,-0.13,0.18,-0.24
1691,0.61,0.04,9.27,-0.13,0.18,-0.24
1695,0.65,-0.38,9.58,-0.13,0.18,-0.24
1701,0.65,-0.38,9.58,-0.12,0.10,-0.25
1706,0.65,-0.38,9.58,-0.13,0.05,-0.27
1711,-0.96,0.42,9.50,-0.13,0.05,-0.27
1716,-1.11,0.19,9.80,-0.13,0.05,-0.27
1721,-1.11,0.19,9.80,-0.17,0.01,-0.29
1726,-1.11,0.19,9.80,-0.18,-0.01,-0.32
1731,-1.11,0.19,9.80,-0.19,-0.04,-0.35
1737,-1.11,0.19,9.80,-0.19,-0.07,-0.35
1741,0.27,-1.00,8.96,-0.19,-0.07,-0.35
1745,-0.11,-0.38,8.35,-0.19,-0.07,-0.35
1751,-0.11,-0.38,8.35,-0.17,-0.05,-0.32
1756,-0.11,-0.38,8.35,-0.16,-0.01,-0.33
1761,-0.11,-0.38,8.35,-0.14,0.03,-0.33
1766,0.61,-0.23,10.77,-0.14,0.03,-0.33
1771,0.19,-0.27,9.93,-0.14,0.03,-0.33
1775,-0.46,0.69,10.00,-0.14,0.03,-0.33
1781,-0.46,0.69,10.00,-0.08,0.10,-0.29
1786,-0.46,0.69,10.00,-0.07,0.09,-0.28
1791,-0.46,0.69,10.00,-0.08,0.06,-0.27
1796,-0.15,0.69,9.46,-0.08,0.06,-0.27
1801,-0.23,0.08,9.88,-0.08,0.06,-0.27
1806,-0.23,0.08,9.88,-0.10,-0.01,-0.32
1811,-0.08,-0.19,10.00,-0.10,-0.01,-0.32
1815,-0.08,0.08,9.61,-0.10,-0.01,-0.32
1821,-0.08,0.08,9.61,-0.09,-0.01,-0.26
1826,-0.08,0.08,9.61,-0.08,-0.02,-0.25
1831,1.65,-0.80,9.50,-0.08,-0.02,-0.25
1836,-0.30,-0.15,6.40,-0.08,-0.02,-0.25
1841,-0.30,-0.15,6.40,-0.09,-0.05,-0.28
1846,-0.73,-0.46,8.08,-0.09,-0.05,-0.28
1850,-1.46,-1.07,8.84,-0.09,-0.05,-0.28
1856,-1.46,-1.07,8.84,-0.04,0.01,-0.22
1861,-1.46,-1.07,8.84,-0.04,0.03,-0.22
1866,-0.42,-0.27,11.64,-0.04,0.03,-0.22
1871,-0.46,-2.53,11.96,-0.04,0.03,-0.22
1876,-0.92,-1.84,10.61,-0.04,0.03,-0.22
1881,-1.07,-1.91,8.85,-0.04,0.03,-0.22
1885,-0.84,-1.99,7.89,-0.04,0.03,-0.22
1891,-0.84,-1.99,7.89,0.04,0.03,-0.14
1896,-0.84,-1.99,7.89,0.06,0.02,-0.10
1901,-0.69,-0.65,9.31,0.06,0.02,-0.10
1906,-0.88,-0.54,9.89,0.06,0.02,-0.10
1911,-0.88,-0.54,9.89,0.05,0.05,-0.06
1916,-1.84,-1.15,9.61,0.05,0.05,-0.06
1921,-1.95,-2.22,8.84,0.05,0.05,-0.06
1926,-1.88,-1.68,8.70,0.05,0.05,-0.06
1931,-2.68,-0.27,7.93,0.05,0.05,-0.06
1936,-1.38,-0.61,8.50,0.05,0.05,-0.06
1941,1.11,-1.07,8.58,0.05,0.05,-0.06
1946,1.11,-1.07,8.58,0.09,-0.16,0.18
1951,0.00,-1.49,9.84,0.09,-0.16,0.18
1956,-1.30,-1.91,8.81,0.09,-0.16,0.18
1961,-1.23,-1.76,10.73,0.09,-0.16,0.18
1966,-1.23,-2.45,10.80,0.09,-0.16,0.18
1971,-1.34,-2.57,11.03,0.09,-0.16,0.18
1976,-0.92,-2.11,10.39,0.09,-0.16,0.18
1981,-0.92,-2.11,10.39,0.18,0.07,0.35
1986,-0.92,-2.11,10.39,0.16,0.05,0.31
1991,-0.92,-2.11,10.39,0.15,0.02,0.27
1997,-0.92,-2.11,10.39,0.15,0.00,0.25
2001,-1.49,-2.03,9.65,0.15,0.00,0.25
2005,-1.49,-2.03,9.65,0.17,0.01,0.34
2011,-1.88,-0.92,9.42,0.17,0.01,0.34
2016,-1.91,-1.84,9.69,0.17,0.01,0.34
2021,-1.11,-0.27,10.57,0.17,0.01,0.34
2026,-1.38,-0.57,10.61,0.17,0.01,0.34
2031,-1.34,-1.11,10.04,0.17,0.01,0.34
2036,-1.34,-1.11,10.04,0.11,-0.05,0.24
2041,0.04,-1.23,9.20,0.11,-0.05,0.24
2046,-2.14,0.57,8.35,0.11,-0.05,0.24
2051,-2.38,1.15,9.30,0.11,-0.05,0.24
2056,-0.88,1.57,10.61,0.11,-0.05,0.24
2061,-0.96,1.42,10.19,0.11,-0.05,0.24
2066,-0.96,1.42,10.19,0.03,0.04,0.11
2071,0.61,0.96,9.39,0.03,0.04,0.11
2076,0.23,0.54,7.97,0.03,0.04,0.11
2081,-0.38,0.77,7.93,0.03,0.04,0.11
2086,-1.00,0.04,7.36,0.03,0.04,0.11
2090,0.23,1.07,9.50,0.03,0.04,0.11
2097,0.23,1.07,9.50,-0.07,0.00,-0.04
2101,0.23,1.07,9.50,-0.08,-0.00,-0.07
2106,1.04,1.30,11.68,-0.08,-0.00,-0.07
2111,1.88,0.65,11.30,-0.08,-0.00,-0.07
2116,0.65,0.73,10.45,-0.08,-0.00,-0.07
2121,0.27,0.77,9.50,-0.08,-0.00,-0.07
2126,0.15,0.77,9.34,-0.08,-0.00,-0.07
2131,1.19,0.69,9.46,-0.08,-0.00,-0.07
2136,0.69,0.61,9.43,-0.08,-0.00,-0.07
2141,0.42,1.11,8.89,-0.08,-0.00,-0.07
2146,0.08,0.88,9.50,-0.08,-0.00,-0.07
2151,0.00,0.69,10.00,-0.08,-0.00,-0.07
2156,-0.65,1.30,10.23,-0.08,-0.00,-0.07
2161,-0.46,0.30,10.42,-0.08,-0.00,-0.07
2166,-0.88,0.84,10.23,-0.08,-0.00,-0.07
2171,-0.88,0.84,10.23,-0.11,0.06,-0.24
2176,-0.27,-0.65,9.04,-0.11,0.06,-0.24
2181,-0.27,-0.65,9.04,-0.09,-0.02,-0.22
2186,-0.46,-1.27,9.31,-0.09,-0.02,-0.22
2191,0.27,-0.42,8.54,-0.09,-0.02,-0.22
2196,1.15,-1.15,9.16,-0.09,-0.02,-0.22
2202,0.61,-1.04,10.11,-0.09,-0.02,-0.22
2206,-0.23,-0.61,9.20,-0.09,-0.02,-0.22
2211,-1.30,-1.11,9.23,-0.09,-0.02,-0.22
2216,-0.15,-0.46,9.50,-0.09,-0.02,-0.22
2221,-1.38,0.04,9.39,-0.09,-0.02,-0.22
2226,0.19,-0.54,9.65,-0.09,-0.02,-0.22
2231,0.19,-0.54,9.65,-0.02,0.03,-0.10
2236,0.50,-0.88,10.11,-0.02,0.03,-0.10
2241,0.34,-1.38,10.19,-0.02,0.03,-0.10
2246,0.23,-2.11,10.19,-0.02,0.03,-0.10
2251,-0.27,-1.34,9.65,-0.02,0.03,-0.10
2256,-1.04,-0.96,9.80,-0.02,0.03,-0.10
2261,-1.19,-1.46,8.96,-0.02,0.03,-0.10
2266,-1.19,-1.46,8.96,0.04,0.09,0.05
2271,-1.19,-1.46,8.96,0.04,0.06,0.05
2276,-2.14,-1.30,7.55,0.04,0.06,0.05
2281,-1.91,-2.11,7.81,0.04,0.06,0.05
2286,-1.46,-1.07,6.93,0.04,0.06,0.05
2291,-2.07,-1.80,8.08,0.04,0.06,0.05
2296,-0.15,-1.11,9.96,0.04,0.06,0.05
2301,-0.15,-1.11,9.96,0.04,-0.13,0.15
2306,1.61,-1.27,12.38,0.04,-0.13,0.15
2311,0.84,-0.80,11.72,0.04,-0.13,0.15
2316,-0.11,-1.57,11.80,0.04,-0.13,0.15
2322,-1.11,-1.68,10.69,0.04,-0.13,0.15
2326,-1.57,-1.34,10.19,0.04,-0.13,0.15
2331,-0.46,-0.88,9.85,0.04,-0.13,0.15
2336,-1.11,0.08,9.50,0.04,-0.13,0.15
2341,-1.30,-0.96,10.00,0.04,-0.13,0.15
2346,-1.23,-0.96,9.77,0.04,-0.13,0.15
2350,-1.23,-0.96,9.77,0.07,0.10,0.20
2356,-1.42,-0.38,7.73,0.07,0.10,0.20
2361,-1.42,-0.38,7.73,0.05,0.06,0.15
2367,-3.22,-0.88,7.62,0.05,0.06,0.15
2371,-3.22,-0.88,7.62,0.06,0.00,0.22
2376,-1.19,0.61,7.36,0.06,0.00,0.22
2381,1.19,0.54,9.42,0.06,0.00,0.22
2386,1.72,-0.57,9.20,0.06,0.00,0.22
2391,-0.65,0.84,9.23,0.06,0.00,0.22
2396,-0.19,-0.42,9.92,0.06,0.00,0.22
2401,-1.04,-0.69,10.27,0.06,0.00,0.22
2406,-1.04,-0.69,10.27,-0.03,-0.01,0.11
2411,-1.04,-0.69,10.27,-0.00,0.06,0.11
2416,-0.15,-1.42,10.53,-0.00,0.06,0.11
2421,0.65,-0.57,10.57,-0.00,0.06,0.11
2426,1.23,-0.11,10.07,-0.00,0.06,0.11
2431,0.04,-0.34,10.30,-0.00,0.06,0.11
2436,0.00,-0.54,9.80,-0.00,0.06,0.11
2441,0.00,-1.23,10.15,-0.00,0.06,0.11
2446,-0.34,-1.34,9.35,-0.00,0.06,0.11
2451,-1.34,-1.00,9.50,-0.00,0.06,0.11
2456,-1.34,-1.00,9.50,-0.02,0.03,-0.06
2461,-1.65,-0.27,10.42,-0.02,0.03,-0.06
2466,-1.04,-0.54,10.39,-0.02,0.03,-0.06
2471,0.61,-1.23,10.23,-0.02,0.03,-0.06
2476,-0.23,-0.04,9.12,-0.02,0.03,-0.06
2481,0.11,0.19,8.93,-0.02,0.03,-0.06
2487,-0.11,1.00,9.35,-0.02,0.03,-0.06
2491,-0.11,1.00,9.35,-0.06,-0.02,-0.19
2496,0.54,1.46,10.49,-0.06,-0.02,-0.19
2501,0.65,1.76,10.73,-0.06,-0.02,-0.19
2506,0.23,1.91,10.41,-0.06,-0.02,-0.19
2512,-0.19,1.07,9.65,-0.06,-0.02,-0.19
2516,-2.99,1.19,7.66,-0.06,-0.02,-0.19
2521,-3.33,0.04,7.28,-0.06,-0.02,-0.19
2526,-1.19,0.92,8.66,-0.06,-0.02,-0.19
2531,-1.19,0.92,8.66,-0.12,0.08,-0.33
2536,-0.42,1.84,8.77,-0.12,0.08,-0.33
2541,-0.42,1.84,8.77,-0.17,-0.05,-0.39
2546,-0.42,1.84,8.77,-0.17,-0.11,-0.42
2551,-0.61,1.95,8.12,-0.17,-0.11,-0.42
2556,-1.65,0.84,8.77,-0.17,-0.11,-0.42
2562,-1.57,1.84,8.70,-0.17,-0.11,-0.42
2566,0.04,0.61,9.12,-0.17,-0.11,-0.42
2571,1.04,0.57,8.23,-0.17,-0.11,-0.42
2576,0.92,1.49,9.20,-0.17,-0.11,-0.42
2582,-1.07,1.76,7.97,-0.17,-0.11,-0.42
2586,-0.34,0.61,8.54,-0.17,-0.11,-0.42
2591,-0.19,0.38,8.84,-0.17,-0.11,-0.42
2596,-0.19,0.38,8.84,-0.13,0.00,-0.34
2601,-0.80,0.77,8.74,-0.13,0.00,-0.34
2606,-0.88,0.15,9.00,-0.13,0.00,-0.34
2611,-0.42,0.11,8.01,-0.13,0.00,-0.34
2616,-0.80,-1.00,9.04,-0.13,0.00,-0.34
2621,-1.76,-1.15,7.51,-0.13,0.00,-0.34
2627,-1.11,-0.77,7.89,-0.13,0.00,-0.34
2631,-1.11,-0.77,7.89,-0.07,-0.12,-0.26
2636,1.11,-0.65,7.78,-0.07,-0.12,-0.26
2641,0.92,-1.19,7.47,-0.07,-0.12,-0.26
2646,-0.92,-0.57,6.59,-0.07,-0.12,-0.26
2651,-0.92,-0.57,6.59,-0.02,-0.10,-0.24
2657,-2.18,-0.50,6.05,-0.02,-0.10,-0.24
2661,-2.18,-0.50,6.05,0.04,-0.02,-0.16
2666,-2.18,-0.50,6.05,-0.02,-0.07,-0.15
2671,-2.18,-0.50,6.05,-0.01,-0.18,-0.14
2676,5.82,-1.38,16.97,-0.01,-0.18,-0.14
2682,7.74,-2.95,18.70,-0.01,-0.18,-0.14
2686,4.60,-4.60,19.39,-0.01,-0.18,-0.14
2691,3.10,-3.91,18.23,-0.01,-0.18,-0.14
2697,3.10,-6.86,19.00,-0.01,-0.18,-0.14
2701,3.10,-6.86,19.00,0.20,0.20,0.00
2706,-1.46,-4.45,13.45,0.20,0.20,0.00
2712,-1.84,-2.84,11.68,0.20,0.20,0.00
2716,-1.84,-2.84,11.68,0.39,0.60,0.18
2721,2.22,-0.38,13.06,0.39,0.60,0.18
2726,0.61,-0.27,11.19,0.39,0.60,0.18
2731,0.61,-0.27,11.19,0.22,0.37,0.08
2736,0.61,-0.27,11.19,0.22,0.30,0.00
2741,-1.15,-2.07,7.85,0.22,0.30,0.00
2747,-3.83,-1.34,3.95,0.22,0.30,0.00
2751,-3.83,-1.34,3.95,0.15,0.20,0.12
2756,-6.82,1.80,0.77,0.15,0.20,0.12
2762,-7.97,2.11,-1.15,0.15,0.20,0.12
2766,-7.97,2.11,-1.15,0.02,0.01,-0.01
2771,-7.97,2.11,-1.15,-0.03,-0.13,-0.09
2776,-1.95,0.88,4.10,-0.03,-0.13,-0.09
2782,0.50,0.57,6.12,-0.03,-0.13,-0.09
2786,0.50,0.57,6.12,-0.13,-0.66,-0.02
2791,0.50,0.57,6.12,-0.14,-0.78,0.01
2797,1.57,-1.72,12.95,-0.14,-0.78,0.01
2801,1.57,-1.72,12.95,-0.08,-0.64,-0.01
2806,1.57,-1.72,12.95,-0.03,-0.48,0.01
2811,0.57,-2.91,15.02,-0.03,-0.48,0.01
2817,2.57,-1.84,15.10,-0.03,-0.48,0.01
2821,2.57,-1.84,15.10,0.16,0.22,0.19
2826,1.34,-1.19,11.76,0.16,0.22,0.19
2831,0.73,-0.92,11.22,0.16,0.22,0.19
2837,0.11,-1.46,10.11,0.16,0.22,0.19
2841,0.11,-1.46,10.11,0.26,0.44,0.27
2846,-1.27,-1.04,9.00,0.26,0.44,0.27
2851,-3.33,-0.50,9.23,0.26,0.44,0.27
2857,-4.29,0.34,7.70,0.26,0.44,0.27
2861,-2.91,-0.11,6.12,0.26,0.44,0.27
2866,-3.87,0.65,4.79,0.26,0.44,0.27
2871,-3.87,0.65,4.79,0.14,0.43,0.15
2876,-3.87,0.65,4.79,0.10,0.29,0.14
2882,-0.46,0.15,0.23,0.10,0.29,0.14
2886,-0.46,0.15,0.23,0.00,-0.08,0.09
2891,-0.46,0.15,0.23,-0.04,-0.10,0.02
2896,-11.34,1.61,9.42,-0.04,-0.10,0.02
2902,-10.77,1.30,12.18,-0.04,-0.10,0.02
2906,-10.77,1.30,12.18,-0.01,0.18,-0.05
2911,-10.77,1.30,12.18,0.02,0.10,-0.02
2917,-0.15,-1.07,13.79,0.02,0.10,-0.02
2921,-0.15,-1.07,13.79,-0.01,-0.31,-0.01
2926,-0.15,-1.07,13.79,-0.03,-0.50,-0.05
2931,-0.15,-1.07,13.79,-0.06,-0.63,-0.08
2937,2.38,0.34,8.27,-0.06,-0.63,-0.08
2941,2.38,0.34,8.27,-0.04,-0.54,0.00
2946,1.30,1.07,11.15,-0.04,-0.54,0.00
2951,3.22,0.11,11.38,-0.04,-0.54,0.00
2957,4.06,-0.34,15.29,-0.04,-0.54,0.00
2961,4.06,-0.34,15.29,-0.05,-0.17,0.07
2966,6.82,-2.68,15.28,-0.05,-0.17,0.07
2971,8.27,-2.80,13.68,-0.05,-0.17,0.07
2977,7.70,-2.57,13.33,-0.05,-0.17,0.07
2981,4.79,-1.76,9.85,-0.05,-0.17,0.07
2987,4.37,-0.65,7.66,-0.05,-0.17,0.07
2991,4.37,-0.65,7.66,0.07,0.13,0.17
2996,4.37,-0.65,7.66,0.06,0.21,0.11
3001,-2.03,-0.11,9.31,0.06,0.21,0.11
3007,-3.18,-1.04,9.04,0.06,0.21,0.11
3011,-3.18,-1.04,9.04,-0.00,0.30,-0.12
3016,-3.71,-2.11,8.23,-0.00,0.30,-0.12
3022,-3.45,-1.76,8.50,-0.00,0.30,-0.12
3026,-3.45,-1.76,8.50,-0.01,0.10,-0.17
3031,-3.45,-1.76,8.50,-0.04,0.00,-0.20
3037,-2.18,-1.07,7.82,-0.04,0.00,-0.20
3041,-2.18,-1.07,7.82,-0.08,-0.17,-0.27
3046,-2.18,-1.07,7.82,-0.07,-0.22,-0.30
3051,-2.18,-1.07,7.82,-0.06,-0.21,-0.30
3057,-3.95,-0.23,10.84,-0.06,-0.21,-0.30
3061,-3.95,-0.23,10.84,-0.02,-0.15,-0.20
3066,-3.95,-0.23,10.84,-0.00,-0.19,-0.15
3071,3.75,-0.61,9.65,-0.00,-0.19,-0.15
3077,3.48,-0.42,9.04,-0.00,-0.19,-0.15
3081,3.48,-0.42,9.04,0.02,-0.31,-0.08
3086,2.45,1.04,8.93,0.02,-0.31,-0.08
3092,2.45,0.88,9.77,0.02,-0.31,-0.08
3096,2.45,0.88,9.77,0.08,-0.03,0.06
3101,2.45,0.88,9.77,0.08,0.05,0.12
3107,2.30,0.65,10.65,0.08,0.05,0.12
3111,2.30,0.65,10.65,0.06,0.11,0.11
3116,2.30,0.65,10.65,0.06,0.16,0.08
3121,-3.48,0.80,9.16,0.06,0.16,0.08
3127,-4.29,-0.46,8.66,0.06,0.16,0.08
3131,-4.29,-0.46,8.66,0.09,0.32,0.15
3136,-4.29,-0.46,8.66,0.09,0.28,0.17
3142,-2.80,0.46,8.16,0.09,0.28,0.17
3146,-2.80,0.46,8.16,0.04,0.08,0.14
3151,-2.80,0.46,8.16,0.02,-0.03,0.12
3156,-0.92,-0.50,6.51,0.02,-0.03,0.12
3162,0.19,-2.03,7.86,0.02,-0.03,0.12
3166,0.19,-2.03,7.86,-0.05,-0.30,0.11
3171,0.19,-2.03,7.86,-0.04,-0.31,0.11
3177,0.19,-1.04,11.84,-0.04,-0.31,0.11
3181,0.19,-1.04,11.84,-0.02,-0.16,0.08
3186,0.19,-1.04,11.84,-0.01,-0.02,0.06
3191,0.19,-1.04,11.84,0.02,0.12,0.04
3197,0.54,-1.80,10.84,0.02,0.12,0.04
3201,0.54,-1.80,10.84,0.04,0.25,0.04
3206,0.54,-1.80,10.84,0.04,0.24,0.04
3212,2.22,-0.80,10.54,0.04,0.24,0.04
3216,2.22,-0.80,10.54,0.02,0.16,-0.00
3221,2.22,-0.80,10.54,0.01,0.12,-0.02
3226,-1.19,-0.30,9.96,0.01,0.12,-0.02
3232,-1.88,-0.30,9.69,0.01,0.12,-0.02
3236,-1.88,-0.30,9.69,0.06,0.15,0.04
3241,-1.88,-0.30,9.69,0.04,0.12,0.05
3247,0.88,0.77,9.65,0.04,0.12,0.05
3251,0.88,0.77,9.65,-0.01,0.00,-0.00
3256,0.88,0.77,9.65,-0.04,-0.04,-0.06
3261,-0.38,-0.69,8.20,-0.04,-0.04,-0.06
3267,-1.19,0.00,9.00,-0.04,-0.04,-0.06
3271,-1.19,0.00,9.00,-0.02,-0.01,-0.02
3276,-0.65,-0.50,10.61,-0.02,-0.01,-0.02
3282,0.65,-0.46,10.69,-0.02,-0.01,-0.02
3286,0.65,-0.46,10.69,-0.04,-0.01,-0.06
3291,0.65,-0.46,10.69,-0.05,-0.03,-0.11
3297,0.92,-0.57,12.38,-0.05,-0.03,-0.11
3301,0.92,-0.57,12.38,-0.07,-0.01,-0.10
3306,0.92,-0.57,12.38,-0.05,0.02,-0.07
3311,0.92,-0.57,12.38,-0.04,0.06,-0.06
3317,-1.19,-0.38,11.15,-0.04,0.06,-0.06
3321,-1.19,-0.38,11.15,0.01,0.17,-0.06
3326,-1.19,-0.38,11.15,0.03,0.21,-0.03
3332,-2.07,-1.07,8.70,0.03,0.21,-0.03
3336,-2.07,-1.07,8.70,0.03,0.17,-0.02
3341,-2.07,-1.07,8.70,0.04,0.12,-0.04
3346,-3.07,-0.08,6.75,0.04,0.12,-0.04
3352,-2.34,0.19,6.44,0.04,0.12,-0.04
3356,-2.34,0.19,6.44,-0.00,-0.06,-0.03
3362,-2.34,0.19,6.44,-0.04,-0.13,-0.04
3367,-1.53,-0.42,7.51,-0.04,-0.13,-0.04
3371,-1.53,-0.42,7.51,-0.06,-0.16,-0.11
3376,-1.53,-0.42,7.51,-0.06,-0.13,-0.13
3381,-1.61,-0.92,7.51,-0.06,-0.13,-0.13
3387,-1.07,-0.84,8.66,-0.06,-0.13,-0.13
3391,-1.07,-0.84,8.66,-0.07,-0.07,-0.14
3396,-1.07,-0.84,8.66,-0.07,-0.06,-0.17
3402,1.91,-1.15,12.64,-0.07,-0.06,-0.17
3406,1.91,-1.15,12.64,-0.03,-0.05,-0.19
3411,1.91,-1.15,12.64,-0.00,0.01,-0.16
3417,-0.46,-1.19,11.60,-0.00,0.01,-0.16
3421,-0.46,-1.19,11.60,0.04,0.19,-0.12
3426,-0.46,-1.19,11.60,0.06,0.26,-0.12
3431,-0.46,-1.19,11.60,0.07,0.29,-0.13
3437,-1.57,0.15,8.58,0.07,0.29,-0.13
3441,-1.57,0.15,8.58,0.08,0.24,-0.13
3446,-1.57,0.15,8.58,0.07,0.19,-0.12
3451,-1.57,0.15,8.58,0.04,0.12,-0.13
3457,-1.68,0.65,8.16,0.04,0.12,-0.13
3461,-1.68,0.65,8.16,-0.00,-0.04,-0.19
3466,-1.68,0.65,8.16,-0.03,-0.11,-0.22
3472,-1.27,-0.27,7.35,-0.03,-0.11,-0.22
3476,-1.27,-0.27,7.35,-0.04,-0.19,-0.21
3481,-1.27,-0.27,7.35,-0.04,-0.22,-0.20
3487,2.14,-0.73,10.88,-0.04,-0.22,-0.20
3491,2.14,-0.73,10.88,-0.04,-0.22,-0.21
3496,2.14,-0.73,10.88,-0.05,-0.17,-0.23
3501,-0.92,0.11,10.95,-0.05,-0.17,-0.23
3507,-2.07,0.00,11.34,-0.05,-0.17,-0.23
3511,-2.07,0.00,11.34,0.04,0.14,-0.21
3516,-2.07,0.00,11.34,0.06,0.20,-0.18
3522,0.42,0.11,11.88,0.06,0.20,-0.18
3526,0.42,0.11,11.88,0.05,0.16,-0.17
3531,0.42,0.11,11.88,0.03,0.09,-0.20
3536,2.30,-0.34,10.84,0.03,0.09,-0.20
3542,2.34,-1.11,10.19,0.03,0.09,-0.20
3546,2.34,-1.11,10.19,0.02,-0.13,-0.14
3551,2.34,-1.11,10.19,0.02,-0.13,-0.08
3557,0.77,-0.57,10.61,0.02,-0.13,-0.08
3561,0.77,-0.57,10.61,0.04,-0.03,-0.08
3566,0.77,-0.57,10.61,0.06,0.04,-0.09
3572,0.77,-0.57,10.61,0.07,0.06,-0.10
3576,0.77,-0.57,10.61,0.08,0.05,-0.07
3581,0.77,-0.57,10.61,0.09,-0.01,-0.03
3586,0.77,-0.57,10.61,0.06,-0.08,-0.02
3592,2.18,0.04,10.19,0.06,-0.08,-0.02
3596,2.18,0.04,10.19,0.03,-0.20,-0.01
3601,2.18,0.04,10.19,0.02,-0.20,-0.02
3606,-0.54,-1.88,11.88,0.02,-0.20,-0.02
3612,-1.42,-1.76,10.84,0.02,-0.20,-0.02
3616,-1.42,-1.76,10.84,0.11,0.09,0.01
3621,-3.22,-1.38,8.96,0.11,0.09,0.01
3627,-3.37,-0.61,8.66,0.11,0.09,0.01
3631,-3.37,-0.61,8.66,0.16,0.18,0.09
3636,-3.37,-0.61,8.66,0.16,0.12,0.09
3642,-0.04,-2.38,9.93,0.16,0.12,0.09
3646,-0.04,-2.38,9.93,0.13,-0.05,0.07
3651,-0.04,-2.38,9.93,0.14,-0.08,0.08
3656,-0.04,-2.38,9.93,0.16,-0.05,0.11
3662,-0.92,-1.76,9.00,0.16,-0.05,0.11
3666,-0.92,-1.76,9.00,0.19,0.03,0.20
3671,-0.92,-1.76,9.00,0.20,0.05,0.21
3677,-1.23,-1.00,7.09,0.20,0.05,0.21
3681,-1.23,-1.00,7.09,0.17,0.03,0.16
3686,-1.23,-1.00,7.09,0.16,-0.02,0.15
3691,-1.23,-1.00,7.09,0.16,-0.08,0.19
3697,-0.27,-1.57,9.04,0.16,-0.08,0.19
3701,-0.27,-1.57,9.04,0.14,-0.11,0.21
3706,-0.27,-1.57,9.04,0.14,-0.07,0.20
3712,-0.69,-1.27,9.27,0.14,-0.07,0.20
3716,-0.69,-1.27,9.27,0.16,0.00,0.21
3721,-0.69,-1.27,9.27,0.15,0.01,0.23
3726,0.38,-0.19,9.23,0.15,0.01,0.23
3732,0.65,-0.77,9.65,0.15,0.01,0.23
3736,0.65,-0.77,9.65,0.16,-0.08,0.25
3741,0.65,-0.77,9.65,0.15,-0.06,0.26
3747,-0.30,0.11,11.26,0.15,-0.06,0.26
3751,-0.30,0.11,11.26,0.15,0.04,0.26
3756,-0.30,0.11,11.26,0.15,0.08,0.26
3761,-2.68,0.57,8.96,0.15,0.08,0.26
3766,-2.49,1.04,9.34,0.15,0.08,0.26
3771,-2.49,1.04,9.34,0.15,0.10,0.26
3776,-2.49,1.04,9.34,0.11,0.02,0.27
3781,1.04,0.73,9.16,0.11,0.02,0.27
3786,1.04,0.73,9.16,0.04,-0.16,0.22
3791,1.04,0.73,9.16,0.00,-0.21,0.18
3796,-0.08,-0.65,9.16,0.00,-0.21,0.18
3802,-0.88,-0.27,9.65,0.00,-0.21,0.18
3806,-0.88,-0.27,9.65,0.00,-0.09,0.18
3811,-0.88,-0.27,9.65,0.01,0.01,0.18
3817,-2.95,-0.50,12.34,0.01,0.01,0.18
3821,-2.95,-0.50,12.34,0.02,0.10,0.12
3826,-2.95,-0.50,12.34,0.01,0.04,0.09
3832,-2.95,-0.50,12.34,0.01,-0.03,0.08
3836,-2.95,-0.50,12.34,0.00,-0.07,0.07
3841,-2.95,-0.50,12.34,-0.00,-0.08,0.07
3846,-2.95,-0.50,12.34,0.00,-0.07,0.08
3852,-0.88,-0.08,8.20,0.00,-0.07,0.08
3856,-0.88,-0.08,8.20,0.00,0.04,0.06
3861,-0.88,-0.08,8.20,0.00,0.10,0.04
3866,-2.61,1.07,11.15,0.00,0.10,0.04
3872,-2.95,1.15,10.04,0.00,0.10,0.04
3876,-2.95,1.15,10.04,-0.06,0.05,-0.02
3881,1.88,0.04,8.89,-0.06,0.05,-0.02
3887,1.76,-1.07,8.12,-0.06,0.05,-0.02
3891,1.76,-1.07,8.12,-0.10,-0.24,-0.11
3896,1.76,-1.07,8.12,-0.11,-0.24,-0.10
3902,0.04,0.77,7.66,-0.11,-0.24,-0.10
3906,0.04,0.77,7.66,-0.08,-0.11,-0.02
3911,0.04,0.77,7.66,-0.06,-0.06,-0.01
3916,0.04,0.77,7.66,-0.06,-0.03,-0.04
3922,1.27,-0.23,11.57,-0.06,-0.03,-0.04
3926,1.27,-0.23,11.57,-0.06,0.04,-0.09
3931,1.27,-0.23,11.57,-0.03,0.07,-0.09
3937,-0.73,0.19,8.46,-0.03,0.07,-0.09
3941,-0.73,0.19,8.46,0.01,0.08,-0.01
3946,-0.73,0.19,8.46,-0.02,0.04,0.02
3951,-0.73,0.19,8.46,-0.04,-0.02,0.01
3957,1.68,0.19,12.38,-0.04,-0.02,0.01
3961,1.68,0.19,12.38,-0.09,-0.06,-0.09
3966,1.68,0.19,12.38,-0.07,-0.02,-0.11
3972,-1.30,-0.80,9.69,-0.07,-0.02,-0.11
3976,-1.30,-0.80,9.69,-0.02,0.15,-0.03
3981,-1.30,-0.80,9.69,0.01,0.21,0.00
3986,-2.38,0.77,6.32,0.01,0.21,0.00
3992,-1.46,-0.23,6.12,0.01,0.21,0.00
3996,-1.46,-0.23,6.12,-0.01,0.08,-0.03
4001,-1.46,-0.23,6.12,-0.03,-0.03,-0.03
4007,0.84,-0.57,10.31,-0.03,-0.03,-0.03
4011,0.84,-0.57,10.31,-0.07,-0.19,-0.01
4016,0.84,-0.57,10.31,-0.06,-0.20,-0.01
4021,0.84,-0.57,10.31,-0.06,-0.16,-0.00
4026,0.84,-0.57,10.31,-0.04,-0.09,0.01
4031,0.84,-0.57,10.31,-0.02,-0.01,0.03
4036,0.84,-0.57,10.31,-0.01,0.06,0.02
4041,0.04,-0.88,9.58,-0.01,0.06,0.02
4046,0.04,-0.88,9.58,0.01,0.11,-0.00
4051,0.04,-0.88,9.58,0.01,0.10,-0.01
4057,0.04,-0.88,9.58,0.00,0.07,0.00
4061,0.04,-0.88,9.58,0.01,0.07,0.00
4066,0.04,-0.88,9.58,0.02,0.11,0.01
4071,0.04,-0.88,9.58,0.03,0.13,0.01
4077,-1.65,0.11,7.16,0.03,0.13,0.01
4081,-1.65,0.11,7.16,0.05,0.08,0.07
4086,-1.65,0.11,7.16,0.01,-0.02,0.07
4092,-1.65,0.11,7.16,-0.02,-0.11,0.05
4096,-1.65,0.11,7.16,-0.05,-0.16,-0.00
4101,-1.65,0.11,7.16,-0.05,-0.14,-0.01
4106,-1.65,0.11,7.16,-0.04,-0.08,-0.01
4112,-2.07,-0.46,9.08,-0.04,-0.08,-0.01
4116,-2.07,-0.46,9.08,-0.02,0.04,0.04
4121,-2.07,-0.46,9.08,-0.03,0.03,0.03
4127,-2.07,-0.46,9.08,-0.04,-0.02,0.01
4131,-2.07,-0.46,9.08,-0.05,-0.05,-0.03
4136,-2.07,-0.46,9.08,-0.05,-0.04,-0.06
4141,-2.07,-0.46,9.08,-0.04,0.02,-0.05
4147,0.19,-1.11,9.42,-0.04,0.02,-0.05
4151,0.19,-1.11,9.42,0.01,0.15,-0.01
4156,0.19,-1.11,9.42,0.02,0.20,0.00
4161,0.19,-1.11,9.42,0.04,0.23,-0.01
4166,0.19,-1.11,9.42,0.05,0.24,-0.01
4171,0.19,-1.11,9.42,0.04,0.22,0.00
4176,0.19,-1.11,9.42,0.04,0.16,0.00
4182,-0.69,-0.15,9.65,0.04,0.16,0.00
4186,-0.69,-0.15,9.65,0.01,-0.07,0.00
4191,-0.69,-0.15,9.65,-0.02,-0.19,0.02
4197,1.04,-0.38,8.04,-0.02,-0.19,0.02
4201,1.04,-0.38,8.04,-0.03,-0.28,0.01
4206,1.04,-0.38,8.04,-0.02,-0.21,0.01
4212,1.04,-0.38,8.04,0.01,-0.09,0.01
4216,1.04,-0.38,8.04,0.03,0.04,0.01
4221,1.04,-0.38,8.04,0.06,0.14,0.04
4226,1.04,-0.38,8.04,0.07,0.18,0.03
4232,1.04,-0.38,8.04,0.07,0.18,0.02
4236,1.04,-0.38,8.04,0.07,0.11,0.00
4241,1.04,-0.38,8.04,0.05,-0.01,0.00
4247,1.04,-0.38,8.04,0.04,-0.14,0.02
4251,1.04,-0.38,8.04,0.02,-0.24,0.06
4256,1.04,-0.38,8.04,-0.01,-0.30,0.07
4261,1.04,-0.38,8.04,-0.01,-0.30,0.06
4267,2.61,-1.72,12.56,-0.01,-0.30,0.06
4271,2.61,-1.72,12.56,0.04,-0.19,0.09
4276,2.61,-1.72,12.56,0.08,-0.05,0.11
4281,2.61,-1.72,12.56,0.10,0.09,0.14
4286,2.61,-1.72,12.56,0.13,0.21,0.16
4291,2.61,-1.72,12.56,0.14,0.26,0.17
4296,2.61,-1.72,12.56,0.12,0.25,0.17
4302,-0.08,-0.65,10.53,0.12,0.25,0.17
4306,-0.08,-0.65,10.53,0.12,0.15,0.14
4311,-0.08,-0.65,10.53,0.11,0.11,0.16
4317,-0.08,-0.65,10.53,0.11,0.09,0.18
4321,-0.08,-0.65,10.53,0.11,0.06,0.22
4326,-0.08,-0.65,10.53,0.11,0.01,0.22
4331,-0.08,-0.65,10.53,0.09,-0.05,0.21
4337,-1.61,0.00,8.54,0.09,-0.05,0.21
4341,-1.61,0.00,8.54,0.04,-0.12,0.18
4346,-1.61,0.00,8.54,0.03,-0.13,0.16
4351,-1.61,0.00,8.54,0.01,-0.14,0.13
4356,-1.61,0.00,8.54,0.01,-0.16,0.11
4361,-1.61,0.00,8.54,-0.00,-0.17,0.11
4366,-1.61,0.00,8.54,-0.00,-0.14,0.11
4372,1.11,-0.54,11.30,-0.00,-0.14,0.11
4376,1.11,-0.54,11.30,0.02,-0.03,0.12
4381,1.11,-0.54,11.30,0.02,0.06,0.12
4386,1.11,-0.54,11.30,0.05,0.15,0.13
4391,1.11,-0.54,11.30,0.05,0.21,0.11
4396,1.11,-0.54,11.30,0.06,0.24,0.10
4401,1.11,-0.54,11.30,0.06,0.23,0.10
4406,-2.72,-0.54,6.59,0.06,0.23,0.10
4411,-2.72,-0.54,6.59,0.07,0.14,0.10
4416,-2.72,-0.54,6.59,0.04,0.06,0.11
4421,-2.72,-0.54,6.59,0.01,-0.05,0.12
4426,-2.72,-0.54,6.59,-0.02,-0.17,0.11
4431,-2.72,-0.54,6.59,-0.07,-0.28,0.08
4436,-2.72,-0.54,6.59,-0.11,-0.32,0.04
4441,-2.72,-0.54,6.59,-0.12,-0.29,-0.00
4446,-2.72,-0.54,6.59,-0.10,-0.20,-0.01
4451,-2.72,-0.54,6.59,-0.07,-0.10,0.01
4456,-2.72,-0.54,6.59,-0.04,0.01,0.04
4461,-2.72,-0.54,6.59,-0.02,0.11,0.05
4466,-2.72,-0.54,6.59,-0.02,0.18,0.05
4471,-2.72,-0.54,6.59,0.01,0.26,0.03
4476,-2.72,-0.54,6.59,0.02,0.33,0.00
4481,-2.72,-0.54,6.59,-0.00,0.34,-0.01
4486,-2.72,-0.54,6.59,0.03,0.28,0.01
4492,-3.45,0.77,5.60,0.03,0.28,0.01
4496,-3.45,0.77,5.60,0.02,0.04,0.06
4501,-3.45,0.77,5.60,-0.03,-0.14,0.06
4506,-3.45,0.77,5.60,-0.08,-0.32,0.05
4511,-3.45,0.77,5.60,-0.14,-0.40,0.00
4516,-3.45,0.77,5.60,-0.14,-0.35,-0.06
4521,-3.45,0.77,5.60,-0.12,-0.21,-0.11
4526,-2.14,-0.92,8.27,-0.12,-0.21,-0.11
4531,-2.14,-0.92,8.27,-0.04,0.08,-0.02
4536,-2.14,-0.92,8.27,-0.03,0.15,0.02
4541,-2.14,-0.92,8.27,-0.05,0.14,-0.01
4546,-2.14,-0.92,8.27,-0.06,0.09,-0.08
4551,-2.14,-0.92,8.27,-0.07,0.04,-0.16
4556,-2.14,-0.92,8.27,-0.08,0.02,-0.19
4562,-1.80,-0.54,5.48,-0.08,0.02,-0.19
4566,-1.80,-0.54,5.48,-0.08,-0.02,-0.09
4571,-1.80,-0.54,5.48,-0.11,-0.04,-0.08
4576,-1.80,-0.54,5.48,-0.14,-0.06,-0.14
4581,-1.80,-0.54,5.48,-0.15,-0.11,-0.22
4586,-1.80,-0.54,5.48,-0.16,-0.14,-0.26
4591,-1.80,-0.54,5.48,-0.15,-0.14,-0.26
4597,-2.87,-1.11,7.13,-0.15,-0.14,-0.26
4601,-2.87,-1.11,7.13,-0.08,-0.01,-0.20
4606,-2.87,-1.11,7.13,-0.06,0.05,-0.16
4611,-2.87,-1.11,7.13,-0.04,0.06,-0.14
4616,-2.87,-1.11,7.13,-0.06,0.01,-0.13
4621,-2.87,-1.11,7.13,-0.09,-0.07,-0.16
4626,-2.87,-1.11,7.13,-0.13,-0.15,-0.18
4632,-1.61,0.96,5.86,-0.13,-0.15,-0.18
4636,-1.61,0.96,5.86,-0.14,-0.20,-0.23
4641,-1.61,0.96,5.86,-0.16,-0.19,-0.21
4646,-1.61,0.96,5.86,-0.14,-0.22,-0.15
4651,-1.61,0.96,5.86,-0.16,-0.28,-0.10
4656,-1.61,0.96,5.86,-0.19,-0.36,-0.10
4661,-1.61,0.96,5.86,-0.19,-0.40,-0.13
4667,2.03,-0.42,15.97,-0.19,-0.40,-0.13
4671,2.03,-0.42,15.97,-0.13,-0.19,-0.20
4676,2.03,-0.42,15.97,-0.07,0.01,-0.16
4682,2.03,-0.42,15.97,0.01,0.17,-0.07
4686,2.03,-0.42,15.97,0.03,0.27,0.03
4691,2.03,-0.42,15.97,0.11,0.31,0.08
4696,2.03,-0.42,15.97,0.02,0.24,0.09
4701,2.03,-0.42,15.97,0.03,0.11,0.06
4706,2.03,-0.42,15.97,-0.01,-0.01,-0.00
4711,2.03,-0.42,15.97,-0.05,-0.06,-0.06
4717,2.03,-0.42,15.97,-0.05,-0.01,-0.09
4721,2.03,-0.42,15.97,-0.03,0.09,-0.07
4726,2.03,-0.42,15.97,0.00,0.23,-0.02
4731,2.03,-0.42,15.97,0.04,0.29,0.05
4737,-1.57,-1.68,7.97,0.04,0.29,0.05
4741,-1.57,-1.68,7.97,0.02,0.02,0.07
4746,-1.57,-1.68,7.97,-0.02,-0.21,0.01
4752,0.77,-0.50,5.32,-0.02,-0.21,0.01
4756,0.77,-0.50,5.32,-0.06,-0.36,-0.07
4761,0.77,-0.50,5.32,-0.05,-0.28,-0.04
4766,0.77,-0.50,5.32,-0.03,-0.16,0.01
4772,0.50,-0.08,7.63,-0.03,-0.16,0.01
4776,0.50,-0.08,7.63,-0.03,-0.03,0.04
4781,0.50,-0.08,7.63,-0.05,-0.03,-0.01
4787,-0.65,-0.65,11.30,-0.05,-0.03,-0.01
4791,-0.65,-0.65,11.30,-0.06,-0.07,-0.13
4796,-0.65,-0.65,11.30,-0.05,-0.05,-0.13
4801,-0.65,-0.65,11.30,-0.03,-0.04,-0.08
4807,2.72,-2.34,11.57,-0.03,-0.04,-0.08
4811,2.72,-2.34,11.57,0.01,-0.06,0.03
4816,2.72,-2.34,11.57,0.01,-0.07,0.04
4822,2.22,-1.57,8.62,0.01,-0.07,0.04
4826,2.22,-1.57,8.62,0.05,0.04,0.03
4831,2.22,-1.57,8.62,0.07,0.17,0.05
4836,2.22,-1.57,8.62,0.10,0.28,0.09
4842,2.26,-1.76,12.03,0.10,0.28,0.09
4846,2.26,-1.76,12.03,0.09,0.23,0.18
4851,2.26,-1.76,12.03,0.07,0.17,0.16
4857,-1.27,-0.42,11.99,0.07,0.17,0.16
4861,-1.27,-0.42,11.99,0.11,0.28,0.08
4866,-1.27,-0.42,11.99,0.13,0.44,0.10
4871,-1.27,-0.42,11.99,0.16,0.61,0.14
4877,-9.00,0.65,11.41,0.16,0.61,0.14
4881,-9.00,0.65,11.41,0.14,0.60,0.18
4886,-9.00,0.65,11.41,0.11,0.38,0.16
4892,0.65,-0.11,6.59,0.11,0.38,0.16
4896,0.65,-0.11,6.59,0.01,-0.22,0.07
4901,0.65,-0.11,6.59,-0.03,-0.46,0.05
4906,0.65,-0.11,6.59,-0.07,-0.59,0.06
4912,-0.69,1.57,9.84,-0.07,-0.59,0.06
4916,-0.69,1.57,9.84,-0.09,-0.34,0.11
4921,-0.69,1.57,9.84,-0.01,-0.07,0.10
4927,-9.00,1.61,13.71,-0.01,-0.07,0.10
4831,2.22,-1.57,8.62,0.07,0.17,0.05
4836,2.22,-1.57,8.62,0.10,0.28,0.09
4842,2.26,-1.76,12.03,0.10,0.28,0.09
4846,2.26,-1.76,12.03,0.09,0.23,0.18
4851,2.26,-1.76,12.03,0.07,0.17,0.16
4857,-1.27,-0.42,11.99,0.07,0.17,0.16
4861,-1.27,-0.42,11.99,0.11,0.28,0.08
4866,-1.27,-0.42,11.99,0.13,0.44,0.10
4871,-1.27,-0.42,11.99,0.16,0.61,0.14
4877,-9.00,0.65,11.41,0.16,0.61,0.14
4881,-9.00,0.65,11.41,0.14,0.60,0.18
4886,-9.00,0.65,11.41,0.11,0.38,0.16
4892,0.65,-0.11,6.59,0.11,0.38,0.16
4896,0.65,-0.11,6.59,0.01,-0.22,0.07
4901,0.65,-0.11,6.59,-0.03,-0.46,0.05
