timestamp,accX,accY,accZ,gyroX,gyroY,gyroZ
Straight
6,-0.84,-0.15,9.04,-0.17,0.03,-0.23
18,-0.84,-0.15,9.04,-0.16,0.00,-0.24
20,-0.84,-0.15,9.04,0.16,0.12,0.37
22,3.56,0.04,10.23,0.16,0.12,0.37
26,3.56,0.04,10.23,0.12,-0.10,0.42
31,1.65,-0.65,11.00,0.12,-0.10,0.42
36,1.65,-0.65,11.00,0.12,-0.20,0.41
41,1.65,-0.65,11.00,0.12,-0.24,0.38
46,2.49,-2.30,13.02,0.12,-0.24,0.38
51,2.49,-2.30,13.02,0.21,-0.16,0.39
56,2.49,-2.30,13.02,0.20,-0.02,0.39
61,-1.95,1.15,10.15,0.20,-0.02,0.39
66,-1.95,1.15,10.15,0.13,0.23,0.32
71,-1.95,1.15,10.15,0.07,0.29,0.25
76,-1.95,1.15,10.15,0.04,0.36,0.17
81,-6.86,1.34,7.93,0.04,0.36,0.17
86,-6.86,1.34,7.93,-0.01,0.36,0.18
90,-6.86,1.34,7.93,-0.00,0.21,0.28
96,-3.79,0.38,6.16,-0.00,0.21,0.28
101,-3.79,0.38,6.16,-0.01,-0.07,0.32
106,-3.79,0.38,6.16,0.02,-0.22,0.32
111,-3.79,0.38,6.16,0.02,-0.31,0.33
116,-3.79,0.38,6.16,0.03,-0.33,0.36
121,-3.79,0.38,6.16,0.06,-0.33,0.40
126,-3.79,0.38,6.16,0.08,-0.32,0.41
132,0.80,-2.18,9.54,0.08,-0.32,0.41
136,0.80,-2.18,9.54,0.07,-0.20,0.35
141,0.80,-2.18,9.54,0.06,-0.12,0.32
147,0.80,-2.18,9.54,0.01,-0.04,0.27
151,0.80,-2.18,9.54,0.01,-0.04,0.24
156,0.80,-2.18,9.54,0.00,-0.06,0.22
161,0.80,-2.18,9.54,0.02,-0.05,0.16
166,-0.80,-0.15,9.93,0.02,-0.05,0.16
171,-0.80,-0.15,9.93,-0.00,0.06,0.09
176,-0.80,-0.15,9.93,-0.04,0.02,0.15
181,-0.80,-0.15,9.93,-0.04,-0.08,0.16
186,-0.80,-0.15,9.93,-0.05,-0.11,0.06
191,-0.80,-0.15,9.93,-0.08,-0.09,-0.10
196,-0.80,-0.15,9.93,-0.04,-0.04,-0.17
201,-0.15,-0.50,12.76,-0.04,-0.04,-0.17
206,-0.15,-0.50,12.76,-0.01,0.13,-0.10
210,-0.15,-0.50,12.76,-0.02,0.20,-0.10
216,0.61,1.19,9.16,-0.02,0.20,-0.10
221,0.61,1.19,9.16,-0.08,0.20,-0.27
226,0.61,1.19,9.16,-0.09,0.14,-0.36
231,0.61,1.19,9.16,-0.11,0.09,-0.41
237,0.04,-0.54,7.97,-0.11,0.09,-0.41
241,0.04,-0.54,7.97,-0.12,0.00,-0.37
246,0.04,-0.54,7.97,-0.09,0.01,-0.36
252,0.11,-0.19,9.61,-0.09,0.01,-0.36
256,0.11,-0.19,9.61,-0.07,0.02,-0.35
261,0.11,-0.19,9.61,-0.05,0.04,-0.36
265,0.11,-0.19,9.61,-0.05,0.07,-0.39
271,0.23,0.54,8.84,-0.05,0.07,-0.39
276,0.23,0.54,8.84,-0.04,0.06,-0.36
280,0.23,0.54,8.84,-0.06,0.09,-0.35
286,-2.45,1.42,8.70,-0.06,0.09,-0.35
291,-2.45,1.42,8.70,-0.07,0.17,-0.32
296,-2.45,1.42,8.70,-0.07,0.21,-0.29
301,-2.45,1.42,8.70,-0.06,0.25,-0.24
307,-4.18,0.65,9.30,-0.06,0.25,-0.24
311,-4.18,0.65,9.30,-0.05,0.18,-0.12
316,-4.18,0.65,9.30,-0.05,0.09,-0.07
321,-1.15,0.15,6.62,-0.05,0.09,-0.07
326,-1.15,0.15,6.62,-0.05,-0.11,0.04
331,-1.15,0.15,6.62,-0.02,-0.23,0.16
336,-1.15,0.15,6.62,0.02,-0.29,0.24
341,-0.42,-2.18,8.92,0.02,-0.29,0.24
346,-0.42,-2.18,8.92,0.07,-0.26,0.34
351,-0.42,-2.18,8.92,0.13,-0.16,0.38
356,-1.04,-0.38,10.19,0.13,-0.16,0.38
361,-1.04,-0.38,10.19,0.12,0.02,0.47
366,-1.04,-0.38,10.19,0.11,0.06,0.49
371,-1.04,-0.38,10.19,0.10,0.03,0.49
376,-1.04,-0.38,10.19,0.10,-0.03,0.49
381,-1.04,-0.38,10.19,0.10,-0.07,0.49
386,-1.04,-0.38,10.19,0.11,-0.07,0.53
392,-1.46,-3.33,8.46,0.11,-0.07,0.53
396,-1.46,-3.33,8.46,0.14,-0.04,0.61
401,-1.46,-3.33,8.46,0.10,-0.00,0.60
406,-1.46,-3.33,8.46,0.10,-0.02,0.58
411,-0.19,-2.84,11.38,0.10,-0.02,0.58
416,-0.19,-2.84,11.38,0.14,-0.14,0.60
421,-0.19,-2.84,11.38,0.15,-0.15,0.57
427,2.22,-2.45,12.79,0.15,-0.15,0.57
431,2.22,-2.45,12.79,0.17,-0.05,0.54
436,2.22,-2.45,12.79,0.17,0.07,0.54
441,-2.72,-2.64,9.20,0.17,0.07,0.54
446,-2.72,-2.64,9.20,0.17,0.25,0.52
450,-2.72,-2.64,9.20,0.17,0.27,0.51
456,-2.72,-2.64,9.20,0.14,0.30,0.47
460,-3.18,-0.27,7.73,0.14,0.30,0.47
467,-3.18,-0.27,7.73,0.11,0.27,0.45
471,-3.18,-0.27,7.73,0.07,0.11,0.47
476,-3.18,-0.27,7.73,0.03,0.03,0.45
481,-3.18,-0.27,7.73,0.03,-0.11,0.47
486,-3.18,-0.27,7.73,0.04,-0.19,0.50
491,-3.18,-0.27,7.73,0.04,-0.25,0.51
496,0.11,-2.30,9.12,0.04,-0.25,0.51
501,0.11,-2.30,9.12,0.05,-0.32,0.52
506,0.11,-2.30,9.12,0.07,-0.28,0.50
511,-0.30,-0.27,10.61,0.07,-0.28,0.50
516,-0.30,-0.27,10.61,0.07,-0.15,0.44
521,-0.30,-0.27,10.61,0.07,-0.07,0.41
526,-0.30,-0.27,10.61,0.04,0.02,0.37
532,-1.11,-0.46,11.19,0.04,0.02,0.37
536,-1.11,-0.46,11.19,-0.01,0.15,0.26
541,-1.11,-0.46,11.19,-0.08,0.16,0.24
547,-1.57,3.60,3.83,-0.08,0.16,0.24
551,-1.57,3.60,3.83,-0.07,0.14,0.12
556,-1.57,3.60,3.83,-0.08,-0.00,0.15
561,-1.57,3.60,3.83,-0.06,-0.14,0.23
566,3.48,0.08,9.89,-0.06,-0.14,0.23
571,3.48,0.08,9.89,-0.08,-0.32,0.21
576,3.48,0.08,9.89,-0.06,-0.34,0.13
581,2.99,-1.23,13.52,-0.06,-0.34,0.13
586,2.99,-1.23,13.52,-0.00,-0.20,0.11
591,2.99,-1.23,13.52,0.02,-0.09,0.15
596,2.99,-1.23,13.52,0.02,0.02,0.12
601,-0.08,0.30,10.50,0.02,0.02,0.12
606,-0.08,0.30,10.50,0.00,0.23,-0.08
612,-0.08,0.30,10.50,-0.04,0.28,-0.11
616,-0.08,0.30,10.50,-0.08,0.27,-0.10
621,-0.08,0.30,10.50,-0.15,0.22,-0.12
626,-0.08,0.30,10.50,-0.17,0.11,-0.19
632,-0.08,0.30,10.50,-0.19,0.01,-0.30
636,-0.08,0.30,10.50,-0.18,-0.01,-0.41
641,-0.08,0.30,10.50,-0.19,0.03,-0.45
646,-0.08,0.30,10.50,-0.12,0.10,-0.40
652,-0.08,0.30,10.50,-0.12,0.22,-0.36
656,-0.08,0.30,10.50,-0.16,0.32,-0.36
661,-0.08,0.30,10.50,-0.16,0.32,-0.33
666,-1.23,4.67,5.10,-0.16,0.32,-0.33
672,0.92,4.02,5.32,-0.16,0.32,-0.33
676,0.92,4.02,5.32,-0.23,-0.00,-0.34
681,0.92,4.02,5.32,-0.28,-0.11,-0.38
686,-3.14,0.46,7.73,-0.28,-0.11,-0.38
691,-3.14,0.46,7.73,-0.28,-0.20,-0.36
696,-3.14,0.46,7.73,-0.28,-0.17,-0.30
701,0.27,-2.41,13.52,-0.28,-0.17,-0.30
706,0.27,-2.41,13.52,-0.15,-0.21,-0.21
711,0.27,-2.41,13.52,-0.10,-0.23,-0.25
716,0.27,-2.41,13.52,-0.11,-0.20,-0.32
721,8.62,0.46,13.45,-0.11,-0.20,-0.32
726,8.62,0.46,13.45,-0.06,-0.18,-0.43
731,8.62,0.46,13.45,-0.12,-0.04,-0.55
737,-1.27,-0.50,10.84,-0.12,-0.04,-0.55
741,-1.27,-0.50,10.84,-0.19,0.37,-0.78
746,-1.27,-0.50,10.84,-0.19,0.52,-0.76
751,-1.27,-0.50,10.84,-0.20,0.58,-0.69
756,-1.27,-0.50,10.84,-0.21,0.56,-0.63
761,-1.27,-0.50,10.84,-0.27,0.47,-0.62
766,-1.27,-0.50,10.84,-0.34,0.31,-0.62
771,-1.27,-0.50,10.84,-0.32,0.12,-0.60
776,-1.27,-0.50,10.84,-0.28,-0.06,-0.53
781,-1.27,-0.50,10.84,-0.20,-0.22,-0.36
786,-1.27,-0.50,10.84,-0.07,-0.32,-0.19
791,-0.96,-2.30,13.79,-0.07,-0.32,-0.19
796,-0.96,-2.30,13.79,0.07,-0.29,0.05
801,-0.96,-2.30,13.79,0.12,-0.21,0.11
806,0.08,-1.72,11.68,0.12,-0.21,0.11
811,0.08,-1.72,11.68,0.16,-0.01,0.12
816,0.08,-1.72,11.68,0.13,0.08,0.09
821,0.08,-1.72,11.68,0.07,0.14,0.02
826,0.08,-1.72,11.68,0.02,0.21,-0.06
831,0.08,-1.72,11.68,-0.04,0.26,-0.16
836,0.08,-1.72,11.68,-0.10,0.28,-0.25
841,-3.22,0.69,8.12,-0.10,0.28,-0.25
846,-3.22,0.69,8.12,-0.16,0.22,-0.41
851,-3.22,0.69,8.12,-0.16,0.17,-0.49
856,-3.26,-0.80,9.58,-0.16,0.17,-0.49
861,-3.26,-0.80,9.58,-0.09,-0.00,-0.54
866,-3.26,-0.80,9.58,-0.08,-0.13,-0.52
871,-3.26,-0.80,9.58,-0.05,-0.22,-0.52
876,0.88,1.49,9.12,-0.05,-0.22,-0.52
881,0.88,1.49,9.12,-0.04,-0.14,-0.60
886,0.88,1.49,9.12,-0.04,-0.02,-0.61
891,0.88,1.49,9.12,-0.07,0.09,-0.60
896,0.88,1.49,9.12,-0.08,0.17,-0.60
901,0.88,1.49,9.12,-0.09,0.19,-0.62
906,0.88,1.49,9.12,-0.11,0.14,-0.62
911,0.88,1.49,9.12,-0.11,0.04,-0.59
916,0.88,1.49,9.12,-0.11,-0.02,-0.56
921,0.88,1.49,9.12,-0.12,-0.07,-0.52
926,2.03,0.34,9.96,-0.12,-0.07,-0.52
931,2.03,0.34,9.96,-0.08,-0.16,-0.41
936,2.03,0.34,9.96,-0.07,-0.13,-0.38
941,2.03,0.34,9.96,-0.07,-0.05,-0.34
946,-2.61,1.57,9.89,-0.07,-0.05,-0.34
951,-2.61,1.57,9.89,-0.04,0.07,-0.24
956,-2.61,1.57,9.89,-0.03,0.09,-0.21
961,-0.69,-0.96,10.73,-0.03,0.09,-0.21
966,-0.69,-0.96,10.73,-0.01,0.04,-0.16
971,-0.69,-0.96,10.73,0.01,0.01,-0.12
976,-0.69,-0.96,10.73,0.04,0.02,-0.04
980,-0.69,-0.96,10.73,0.05,0.02,0.01
986,-0.69,-0.96,10.73,0.06,0.01,0.04
991,-0.69,-0.96,10.73,0.07,-0.04,0.06
996,-2.26,-1.76,8.85,0.07,-0.04,0.06
1001,-2.26,-1.76,8.85,0.05,-0.10,0.07
1005,-2.26,-1.76,8.85,0.04,-0.12,0.08
1011,-2.26,-1.76,8.85,0.04,-0.10,0.08
1016,-2.26,-1.76,8.85,0.05,-0.09,0.09
1021,-2.26,-1.76,8.85,0.05,-0.10,0.11
1025,-2.26,-1.76,8.85,0.06,-0.11,0.12
1031,-2.26,-1.76,8.85,0.07,-0.11,0.12
1036,-2.26,-1.76,8.85,0.08,-0.10,0.11
1041,-2.26,-1.76,8.85,0.09,-0.10,0.12
1046,-2.26,-1.76,8.85,0.11,-0.07,0.15
1051,-1.88,-1.27,9.38,0.11,-0.07,0.15
1056,-1.88,-1.27,9.38,0.14,0.04,0.16
1060,-1.88,-1.27,9.38,0.16,0.07,0.14
1066,-3.07,-1.30,8.16,0.16,0.07,0.14
1071,-3.07,-1.30,8.16,0.17,0.04,0.16
1076,-3.07,-1.30,8.16,0.18,-0.08,0.19
1081,-3.07,-1.30,8.16,0.15,-0.18,0.19
1086,-3.07,-1.30,8.16,0.10,-0.25,0.16
1091,-3.07,-1.30,8.16,0.11,-0.28,0.13
1096,-3.07,-1.30,8.16,0.09,-0.26,0.15
1101,-1.46,-1.07,8.66,0.09,-0.26,0.15
1106,-1.46,-1.07,8.66,0.13,-0.08,0.21
1111,-1.46,-1.07,8.66,0.13,-0.06,0.21
1116,1.46,-0.92,13.95,0.13,-0.06,0.21
1121,1.46,-0.92,13.95,0.11,-0.09,0.20
1126,1.46,-0.92,13.95,0.10,-0.09,0.18
1131,1.46,-0.92,13.95,0.10,-0.06,0.18
1136,1.46,-0.92,13.95,0.13,0.02,0.20
1141,1.46,-0.92,13.95,0.15,0.10,0.24
1146,1.46,-0.92,13.95,0.19,0.10,0.29
1151,1.46,-0.92,13.95,0.17,0.04,0.33
1156,1.46,-0.92,13.95,0.13,-0.03,0.34
1160,1.46,-0.92,13.95,0.12,-0.09,0.33
1166,1.46,-0.92,13.95,0.12,-0.12,0.32
1171,1.46,-0.92,13.95,0.12,-0.06,0.33
1176,1.46,-0.92,13.95,0.14,0.04,0.35
1181,1.46,-0.92,13.95,0.18,0.12,0.39
1186,-1.30,-1.07,8.04,0.18,0.12,0.39
1191,-1.30,-1.07,8.04,0.20,0.15,0.49
1196,-1.30,-1.07,8.04,0.19,0.08,0.49
1201,-1.30,-1.07,8.04,0.15,-0.00,0.45
1205,-1.30,-1.07,8.04,0.12,-0.10,0.43
1211,-1.30,-1.07,8.04,0.11,-0.15,0.44
1216,-1.30,-1.07,8.04,0.11,-0.15,0.48
1221,1.15,-0.88,11.64,0.11,-0.15,0.48
1226,1.15,-0.88,11.64,0.12,-0.13,0.56
1231,1.15,-0.88,11.64,0.09,-0.09,0.54
1236,1.15,-0.88,11.64,0.08,-0.04,0.51
1241,1.15,-0.88,11.64,0.09,-0.01,0.52
1246,1.15,-0.88,11.64,0.12,0.05,0.52
1251,1.15,-0.88,11.64,0.14,0.12,0.54
1256,-3.48,0.65,6.55,0.14,0.12,0.54
1261,-3.48,0.65,6.55,0.16,0.14,0.59
1266,-3.48,0.65,6.55,0.14,0.09,0.62
1271,-3.48,0.65,6.55,0.11,0.05,0.62
1276,-3.48,0.65,6.55,0.09,-0.00,0.62
1280,-3.48,0.65,6.55,0.07,-0.04,0.63
1286,-3.48,0.65,6.55,0.05,-0.07,0.62
1291,-3.48,0.65,6.55,0.06,-0.06,0.63
1295,1.00,-2.14,10.50,0.06,-0.06,0.63
1301,1.00,-2.14,10.50,0.06,-0.05,0.66
1306,1.00,-2.14,10.50,0.08,-0.09,0.69
1311,1.00,-2.14,10.50,0.07,-0.08,0.66
1315,-1.07,0.42,11.57,0.07,-0.08,0.66
1321,-1.07,0.42,11.57,0.09,-0.01,0.63
1326,-2.26,1.11,9.96,0.09,-0.01,0.63
1331,-2.26,1.11,9.96,0.04,0.16,0.57
1336,-2.26,1.11,9.96,0.02,0.21,0.49
1341,-2.26,1.11,9.96,0.01,0.21,0.42
1346,-2.26,1.11,9.96,-0.02,0.16,0.39
1350,-3.45,-2.84,6.44,-0.02,0.16,0.39
1356,-3.45,-2.84,6.44,-0.04,-0.00,0.38
1361,-2.61,-2.30,8.04,-0.04,-0.00,0.38
1366,-2.61,-2.30,8.04,-0.08,-0.16,0.31
1371,-1.07,-1.88,7.97,-0.08,-0.16,0.31
1376,-1.07,-1.88,7.97,-0.11,-0.21,0.17
1380,-1.07,-1.88,7.97,-0.11,-0.20,0.12
1386,-1.07,-1.88,7.97,-0.11,-0.13,0.09
1391,-1.07,-1.88,7.97,-0.09,-0.06,0.08
1396,-1.07,-1.88,7.97,-0.09,0.00,0.06
1401,-1.07,-1.88,7.97,-0.07,0.08,0.04
1406,-1.07,-1.88,7.97,-0.07,0.16,-0.00
1411,-1.07,-1.88,7.97,-0.05,0.22,-0.05
1415,-1.07,-1.88,7.97,-0.04,0.27,-0.08
1421,-1.07,-1.88,7.97,-0.05,0.30,-0.10
1426,-1.07,-1.88,7.97,-0.04,0.33,-0.10
1431,-1.07,-1.88,7.97,-0.06,0.32,-0.11
1436,-1.07,-1.88,7.97,-0.07,0.27,-0.12
1441,-1.07,-1.88,7.97,-0.10,0.19,-0.16
1446,-1.07,-1.88,7.97,-0.13,0.06,-0.19
1450,0.34,2.07,6.71,-0.13,0.06,-0.19
1456,0.34,2.07,6.71,-0.18,-0.21,-0.21
1461,0.34,2.07,6.71,-0.22,-0.27,-0.23
1466,0.34,2.07,6.71,-0.22,-0.29,-0.27
1471,-0.27,1.57,8.42,-0.22,-0.29,-0.27
1475,-0.50,1.68,8.73,-0.22,-0.29,-0.27
1481,-0.50,1.68,8.73,-0.21,-0.12,-0.31
1485,2.99,0.84,10.00,-0.21,-0.12,-0.31
1490,1.23,1.34,9.89,-0.21,-0.12,-0.31
1496,1.23,1.34,9.89,-0.20,-0.07,-0.31
1501,1.23,1.34,9.89,-0.19,0.01,-0.36
1505,-1.11,1.65,10.30,-0.19,0.01,-0.36
1510,-1.11,1.65,10.30,-0.16,0.16,-0.37
1517,-0.19,0.46,12.14,-0.16,0.16,-0.37
1520,0.73,0.15,12.41,-0.16,0.16,-0.37
1525,1.30,0.42,12.03,-0.16,0.16,-0.37
1531,1.30,0.42,12.03,-0.18,0.07,-0.38
1536,1.30,0.42,12.03,-0.19,0.01,-0.40
1541,1.42,-0.77,11.07,-0.19,0.01,-0.40
1545,1.07,-0.65,10.50,-0.19,0.01,-0.40
1551,1.07,-0.65,10.50,-0.16,0.01,-0.33
1556,1.07,-0.65,10.50,-0.15,0.08,-0.33
1560,-1.65,0.73,10.23,-0.15,0.08,-0.33
1566,-1.53,0.19,10.84,-0.15,0.08,-0.33
1571,-1.53,0.19,10.84,-0.14,0.21,-0.38
1576,-1.53,0.19,10.84,-0.15,0.18,-0.37
1581,-0.57,-0.08,10.69,-0.15,0.18,-0.37
1586,2.87,0.00,9.34,-0.15,0.18,-0.37
1591,2.95,-0.19,8.01,-0.15,0.18,-0.37
1596,2.95,-0.19,8.01,-0.15,-0.14,-0.34
1601,2.95,-0.19,8.01,-0.14,-0.15,-0.32
1606,-0.15,-0.08,6.67,-0.14,-0.15,-0.32
1610,-1.46,0.30,6.78,-0.14,-0.15,-0.32
1616,-1.46,0.30,6.78,-0.15,-0.01,-0.29
1621,-1.46,0.30,6.78,-0.12,0.05,-0.29
1626,-0.65,0.23,9.46,-0.12,0.05,-0.29
1631,0.23,-0.38,10.07,-0.12,0.05,-0.29
1636,0.23,-0.38,10.07,-0.11,0.06,-0.29
1641,0.73,-0.88,9.89,-0.11,0.06,-0.29
1645,0.30,-1.57,9.77,-0.11,0.06,-0.29
1651,0.30,-1.57,9.77,-0.09,-0.07,-0.28
1656,0.30,-1.57,9.77,-0.04,-0.02,-0.28
1661,-2.72,-1.04,7.97,-0.04,-0.02,-0.28
1665,-0.80,-0.84,8.08,-0.04,-0.02,-0.28
1671,-0.80,-0.84,8.08,-0.01,0.10,-0.19
1676,-0.80,-0.84,8.08,-0.01,0.05,-0.19
1680,1.68,-1.04,9.88,-0.01,0.05,-0.19
1685,2.07,-1.00,10.65,-0.01,0.05,-0.19
1691,2.07,-1.00,10.65,-0.02,-0.13,-0.22
1696,2.07,-1.00,10.65,0.00,-0.09,-0.20
1701,-2.07,-1.65,9.93,0.00,-0.09,-0.20
1705,-0.77,-0.54,9.73,0.00,-0.09,-0.20
1711,-0.77,-0.54,9.73,0.09,0.22,-0.13
1716,-0.77,-0.54,9.73,0.10,0.24,-0.13
1721,-0.77,-0.54,9.73,0.11,0.24,-0.12
1726,-0.77,-0.54,9.73,0.09,0.18,-0.10
1731,-3.56,1.72,4.64,0.09,0.18,-0.10
1736,-4.41,1.49,7.59,0.09,0.18,-0.10
1741,-4.41,1.49,7.59,0.04,0.07,-0.09
1746,-1.68,0.65,7.39,0.04,0.07,-0.09
1750,-1.72,0.57,9.46,0.04,0.07,-0.09
1756,-1.72,0.57,9.46,-0.00,-0.05,-0.04
1761,-1.72,0.57,9.46,-0.01,-0.08,-0.03
1766,1.19,-0.73,10.27,-0.01,-0.08,-0.03
1770,0.23,-0.27,10.69,-0.01,-0.08,-0.03
1776,0.23,-0.27,10.69,0.02,-0.13,-0.06
1781,0.23,-0.27,10.69,0.04,-0.08,-0.06
1785,0.23,-0.27,10.69,0.06,0.01,-0.04
1791,0.23,-0.27,10.69,0.07,0.12,-0.02
1796,-3.52,0.61,9.92,0.07,0.12,-0.02
1800,-2.72,1.07,13.03,0.07,0.12,-0.02
1806,-2.72,1.07,13.03,0.02,0.14,-0.08
1811,-2.72,1.07,13.03,-0.00,-0.01,-0.10
1816,-2.72,1.07,13.03,-0.00,-0.14,-0.08
1820,2.30,0.00,11.03,-0.00,-0.14,-0.08
1826,2.03,-0.34,12.41,-0.00,-0.14,-0.08
1831,2.03,-0.34,12.41,0.02,-0.11,-0.04
1836,2.03,-0.34,12.41,0.04,0.03,-0.02
1841,-3.79,1.19,7.43,0.04,0.03,-0.02
1846,-4.94,2.57,8.08,0.04,0.03,-0.02
1850,-5.55,2.38,7.86,0.04,0.03,-0.02
1855,-5.55,2.38,7.86,0.01,0.27,-0.02
1861,-5.55,2.38,7.86,-0.04,0.17,-0.05
1866,0.80,0.34,8.12,-0.04,0.17,-0.05
1870,-0.11,0.46,8.54,-0.04,0.17,-0.05
1876,-0.11,0.46,8.54,-0.10,-0.32,-0.07
1881,-0.11,0.46,8.54,-0.07,-0.32,-0.07
1885,-0.38,-0.88,6.44,-0.07,-0.32,-0.07
1890,-1.23,-0.04,6.86,-0.07,-0.32,-0.07
1896,-1.23,-0.04,6.86,-0.08,-0.24,-0.06
1901,0.08,-0.30,9.27,-0.08,-0.24,-0.06
1905,1.57,-0.42,10.42,-0.08,-0.24,-0.06
1911,1.57,-0.42,10.42,-0.08,-0.18,-0.12
1916,1.57,-0.42,10.42,-0.07,-0.21,-0.10
1921,2.57,-1.68,12.61,-0.07,-0.21,-0.10
1925,2.57,-1.19,11.68,-0.07,-0.21,-0.10
1931,2.57,-1.19,11.68,-0.01,-0.07,-0.11
1936,-3.22,-0.11,9.81,-0.01,-0.07,-0.11
1940,-3.22,-0.11,9.81,0.08,0.37,-0.06
1945,-3.18,0.04,9.04,0.08,0.37,-0.06
1951,-3.18,0.04,9.04,0.09,0.40,-0.02
1956,-3.18,0.04,9.04,0.05,0.34,0.00
1961,-0.27,0.88,10.53,0.05,0.34,0.00
1965,0.00,-0.30,10.04,0.05,0.34,0.00
1970,0.65,-0.84,10.61,0.05,0.34,0.00
1976,0.65,-0.84,10.61,-0.05,-0.11,-0.06
1981,0.65,-0.84,10.61,-0.04,-0.15,-0.05
1985,-0.65,0.65,9.50,-0.04,-0.15,-0.05
1990,-0.50,0.34,9.42,-0.04,-0.15,-0.05
1997,-0.50,0.34,9.42,-0.05,-0.02,-0.03
2001,-0.50,0.34,9.42,-0.05,-0.00,-0.03
2005,0.77,-0.69,9.12,-0.05,-0.00,-0.03
2010,-0.46,-0.08,9.30,-0.05,-0.00,-0.03
2016,-0.46,-0.08,9.30,-0.08,0.02,-0.07
2021,-0.46,-0.08,9.30,-0.07,0.09,-0.09
2026,0.57,-1.19,12.07,-0.07,0.09,-0.09
2031,-0.57,-0.69,11.22,-0.07,0.09,-0.09
2036,0.42,-1.30,10.45,-0.07,0.09,-0.09
2040,-0.04,-1.11,9.65,-0.07,0.09,-0.09
2046,0.65,-1.04,9.54,-0.07,0.09,-0.09
2051,-0.73,-1.00,7.73,-0.07,0.09,-0.09
2055,-1.00,-1.27,6.70,-0.07,0.09,-0.09
2060,-0.77,-1.23,6.51,-0.07,0.09,-0.09
2066,-0.42,-1.04,6.85,-0.07,0.09,-0.09
2070,-1.72,-0.69,7.55,-0.07,0.09,-0.09
2076,-1.72,-0.69,7.55,0.04,0.05,0.04
2081,-1.72,-0.69,7.55,0.04,0.06,0.01
2086,-0.30,-0.80,9.65,0.04,0.06,0.01
2090,-0.61,-0.57,11.04,0.04,0.06,0.01
2095,0.23,-0.88,8.36,0.04,0.06,0.01
2100,1.42,-0.34,7.82,0.04,0.06,0.01
2106,1.42,-0.34,7.82,-0.02,-0.19,0.06
2110,2.95,0.08,8.16,-0.02,-0.19,0.06
2116,1.07,0.65,8.01,-0.02,-0.19,0.06
2121,0.92,0.00,8.96,-0.02,-0.19,0.06
2126,-0.34,0.00,9.39,-0.02,-0.19,0.06
2131,-0.57,0.00,9.96,-0.02,-0.19,0.06
2136,-1.00,-0.34,10.30,-0.02,-0.19,0.06
2141,0.42,-0.27,9.81,-0.02,-0.19,0.06
2145,3.10,-0.42,9.89,-0.02,-0.19,0.06
2151,3.10,-0.11,11.04,-0.02,-0.19,0.06
2156,3.10,-0.11,11.04,0.00,-0.07,0.10
2160,0.30,0.04,10.65,0.00,-0.07,0.10
2165,-0.19,-0.38,10.19,0.00,-0.07,0.10
2171,-1.57,-0.65,10.00,0.00,-0.07,0.10
2176,-3.79,-0.46,11.34,0.00,-0.07,0.10
2180,-4.94,0.00,11.61,0.00,-0.07,0.10
2185,-4.45,-0.46,10.65,0.00,-0.07,0.10
2191,-3.60,-1.07,10.27,0.00,-0.07,0.10
2195,-0.27,-1.53,9.69,0.00,-0.07,0.10
2201,-0.73,-1.27,8.20,0.00,-0.07,0.10
2206,-1.19,-1.11,8.12,0.00,-0.07,0.10
2210,-2.80,-0.88,7.09,0.00,-0.07,0.10
2215,-3.64,-1.46,7.05,0.00,-0.07,0.10
2220,-3.98,-1.61,8.12,0.00,-0.07,0.10
2226,-3.98,-1.61,8.12,0.00,0.01,-0.05
2231,-5.86,0.27,8.82,0.00,0.01,-0.05
2236,-5.86,0.27,8.82,0.03,0.12,-0.10
2241,-3.37,-0.54,9.81,0.03,0.12,-0.10
2245,-2.30,-0.77,6.44,0.03,0.12,-0.10
2251,1.27,-1.95,11.15,0.03,0.12,-0.10
2257,3.33,-1.46,11.00,0.03,0.12,-0.10
2261,1.30,-0.77,10.99,0.03,0.12,-0.10
2265,0.57,-1.42,12.02,0.03,0.12,-0.10
2270,0.73,-1.57,12.41,0.03,0.12,-0.10
2276,-0.57,-1.00,12.68,0.03,0.12,-0.10
2281,-2.18,-1.42,10.23,0.03,0.12,-0.10
2285,-2.18,-1.42,10.23,0.09,0.29,-0.09
2290,-3.10,-0.54,9.54,0.09,0.29,-0.09
2296,-3.10,-0.54,9.54,0.12,0.32,-0.10
2301,-2.41,-0.84,8.77,0.12,0.32,-0.10
2305,-2.41,-0.84,8.77,0.09,0.08,-0.09
2311,-1.11,-1.57,8.77,0.09,0.08,-0.09
2315,-3.07,-1.72,8.81,0.09,0.08,-0.09
2320,-2.53,-1.04,8.70,0.09,0.08,-0.09
2326,1.27,-1.61,9.80,0.09,0.08,-0.09
2331,0.88,-1.65,9.20,0.09,0.08,-0.09
2336,0.34,-1.34,8.31,0.09,0.08,-0.09
2341,-0.19,-1.11,9.42,0.09,0.08,-0.09
2346,1.11,-0.69,10.45,0.09,0.08,-0.09
2351,-0.84,-0.92,9.96,0.09,0.08,-0.09
2355,-0.84,-0.92,9.96,0.13,0.04,-0.06
2360,-1.27,-1.11,9.08,0.13,0.04,-0.06
2365,0.27,-0.04,8.81,0.13,0.04,-0.06
2370,0.27,0.11,9.04,0.13,0.04,-0.06
2375,-1.27,-0.19,8.35,0.13,0.04,-0.06
2381,-1.65,0.57,8.39,0.13,0.04,-0.06
2386,-1.61,0.00,7.81,0.13,0.04,-0.06
2390,-1.61,0.00,7.81,0.11,0.10,-0.13
2396,-4.14,-0.38,6.78,0.11,0.10,-0.13
2401,-2.07,-0.23,7.09,0.11,0.10,-0.13
2405,-1.88,-0.30,7.55,0.11,0.10,-0.13
2412,-1.30,-0.69,7.73,0.11,0.10,-0.13
2415,0.42,-0.34,9.23,0.11,0.10,-0.13
2420,1.61,-0.73,11.07,0.11,0.10,-0.13
2427,2.22,-0.61,11.49,0.11,0.10,-0.13
2431,2.61,-1.72,12.06,0.11,0.10,-0.13
2436,2.30,-1.61,12.45,0.11,0.10,-0.13
2440,1.84,-1.23,12.41,0.11,0.10,-0.13
2445,-0.77,-0.92,12.61,0.11,0.10,-0.13
2451,-2.49,-0.61,11.61,0.11,0.10,-0.13
2456,-2.57,-1.07,10.50,0.11,0.10,-0.13
2460,-2.57,-1.07,10.50,0.26,0.34,0.03
2465,-2.57,-1.07,10.50,0.22,0.28,0.06
2471,3.52,-0.69,8.96,0.22,0.28,0.06
2476,3.95,-1.07,8.39,0.22,0.28,0.06
2481,3.95,-0.30,8.70,0.22,0.28,0.06
2485,0.88,-0.92,9.27,0.22,0.28,0.06
2490,1.07,-0.80,9.89,0.22,0.28,0.06
2495,0.04,-0.69,10.42,0.22,0.28,0.06
2501,-0.23,-1.46,10.80,0.22,0.28,0.06
2506,0.54,-0.50,11.19,0.22,0.28,0.06
2510,0.54,-0.50,11.19,0.20,-0.01,0.15
2515,0.04,-0.80,10.54,0.20,-0.01,0.15
2521,-0.15,-1.34,10.35,0.20,-0.01,0.15
2526,-0.38,-1.34,9.80,0.20,-0.01,0.15
2531,0.23,-1.15,8.92,0.20,-0.01,0.15
2536,0.34,-0.80,8.58,0.20,-0.01,0.15
2542,-2.30,-0.04,8.08,0.20,-0.01,0.15
2545,-2.30,-0.04,8.08,0.17,-0.03,0.23
2551,0.04,-1.76,9.42,0.17,-0.03,0.23
2555,0.65,-1.53,9.46,0.17,-0.03,0.23
2560,0.84,-1.80,9.69,0.17,-0.03,0.23
2565,1.57,-2.38,9.93,0.17,-0.03,0.23
2571,0.50,-1.80,9.04,0.17,-0.03,0.23
2576,-0.84,-1.19,8.39,0.17,-0.03,0.23
2580,-0.84,-1.19,8.39,0.22,-0.02,0.38
2585,-0.84,-1.19,8.39,0.20,0.01,0.38
2590,-1.57,-1.38,9.46,0.20,0.01,0.38
2595,-2.38,-0.80,9.61,0.20,0.01,0.38
2601,-2.76,-0.73,10.15,0.20,0.01,0.38
2606,-2.41,-1.38,9.96,0.20,0.01,0.38
2611,-2.84,-0.80,9.69,0.20,0.01,0.38
2615,-2.84,-0.80,9.69,0.20,0.02,0.46
2620,-1.15,-0.73,9.43,0.20,0.02,0.46
2625,-0.77,-1.49,9.96,0.20,0.02,0.46
2631,-2.87,-0.54,9.61,0.20,0.02,0.46
2637,-1.84,-0.27,10.35,0.20,0.02,0.46
2641,-0.61,-0.57,11.11,0.20,0.02,0.46
2645,-1.23,-0.11,10.77,0.20,0.02,0.46
2652,-2.18,0.57,9.65,0.20,0.02,0.46
2655,-0.88,0.27,7.97,0.20,0.02,0.46
2660,-0.92,-0.04,7.89,0.20,0.02,0.46
2665,-0.46,0.57,7.20,0.20,0.02,0.46
2671,0.38,0.11,8.31,0.20,0.02,0.46
2675,-2.26,0.50,9.92,0.20,0.02,0.46
2682,-2.99,1.00,10.77,0.20,0.02,0.46
2685,-2.99,1.00,10.77,0.11,0.11,0.22
2690,-4.29,1.34,12.45,0.11,0.11,0.22
2695,-3.95,0.19,11.80,0.11,0.11,0.22
2701,-1.99,1.23,11.04,0.11,0.11,0.22
2705,-1.99,1.23,11.04,0.10,0.08,0.14
2711,-0.11,1.72,8.35,0.10,0.08,0.14
2717,0.92,1.27,7.43,0.10,0.08,0.14
2720,0.92,1.27,7.43,0.00,-0.10,0.10
2726,0.92,1.27,7.43,-0.03,-0.06,0.06
2732,-1.19,2.18,7.74,-0.03,-0.06,0.06
2736,-1.19,2.18,7.74,-0.07,0.04,0.08
2741,-2.14,0.46,10.34,-0.07,0.04,0.08
2745,-3.22,0.11,10.92,-0.07,0.04,0.08
2752,-2.30,-0.80,10.57,-0.07,0.04,0.08
2755,-2.30,-0.80,10.57,0.01,0.06,0.08
2760,-2.87,0.92,8.96,0.01,0.06,0.08
2765,-4.48,2.26,5.94,0.01,0.06,0.08
2772,-1.11,1.34,8.62,0.01,0.06,0.08
2776,0.65,1.61,8.88,0.01,0.06,0.08
2780,0.08,2.64,8.66,0.01,0.06,0.08
2785,1.34,1.49,10.69,0.01,0.06,0.08
2792,2.18,-0.46,11.42,0.01,0.06,0.08
2796,1.00,-1.07,12.11,0.01,0.06,0.08
2800,2.11,-1.42,11.84,0.01,0.06,0.08
2807,2.41,-1.23,10.88,0.01,0.06,0.08
2811,0.92,-1.27,10.19,0.01,0.06,0.08
2815,-0.92,-0.27,9.23,0.01,0.06,0.08
2821,-1.27,0.84,9.38,0.01,0.06,0.08
2826,-1.27,0.84,9.38,-0.08,0.14,0.03
2831,0.27,1.84,7.21,-0.08,0.14,0.03
2837,-1.65,1.34,6.97,-0.08,0.14,0.03
2840,-1.65,1.34,6.97,-0.17,0.05,-0.03
2846,-1.65,1.34,6.97,-0.18,-0.02,-0.04
2852,1.84,-0.88,9.23,-0.18,-0.02,-0.04
2855,1.84,-0.88,9.23,-0.11,-0.19,0.05
2860,1.84,-0.88,9.23,-0.09,-0.23,0.04
2866,5.05,-0.96,13.07,-0.09,-0.23,0.04
2872,3.03,-1.30,12.60,-0.09,-0.23,0.04
2876,3.03,-1.30,12.60,0.00,-0.13,-0.05
2880,0.69,-0.61,10.07,0.00,-0.13,-0.05
2885,0.50,0.08,9.16,0.00,-0.13,-0.05
2892,-0.42,1.19,8.50,0.00,-0.13,-0.05
2896,-0.42,1.19,8.50,-0.05,0.25,-0.14
2901,-2.68,2.26,7.89,-0.05,0.25,-0.14
2905,-1.88,2.03,8.43,-0.05,0.25,-0.14
2912,-2.95,1.38,8.58,-0.05,0.25,-0.14
2916,-0.61,0.08,10.45,-0.05,0.25,-0.14
2921,1.99,-1.04,9.93,-0.05,0.25,-0.14
2926,1.99,-1.04,9.93,-0.10,-0.12,-0.13
2931,1.99,-1.04,9.93,-0.09,-0.16,-0.14
2937,0.65,-0.46,9.04,-0.09,-0.16,-0.14
2941,0.65,-0.46,9.04,-0.08,-0.15,-0.17
2945,0.65,-0.46,9.04,-0.07,-0.10,-0.13
2951,-1.95,-0.73,8.04,-0.07,-0.10,-0.13
2957,-1.99,-0.61,7.85,-0.07,-0.10,-0.13
2960,-1.99,-0.61,7.85,-0.05,-0.01,0.03
2966,-1.99,-0.61,7.85,-0.05,-0.03,0.02
2972,-0.50,0.27,10.53,-0.05,-0.03,0.02
2975,-0.50,0.27,10.53,-0.01,-0.04,0.04
2980,-0.50,0.27,10.53,-0.01,-0.04,0.11
2985,-0.50,0.27,10.53,0.00,0.02,0.18
2992,-2.07,0.30,8.16,0.00,0.02,0.18
2996,-2.07,0.30,8.16,-0.01,0.04,0.31
3001,-0.88,-0.08,9.12,-0.01,0.04,0.31
3005,-1.00,0.08,9.27,-0.01,0.04,0.31
3012,-1.49,-0.84,10.31,-0.01,0.04,0.31
3016,-1.49,-0.84,10.31,0.01,-0.06,0.40
3020,-2.22,-0.77,10.69,0.01,-0.06,0.40
3027,-2.38,-0.46,10.77,0.01,-0.06,0.40
3031,-2.38,-0.46,10.77,0.03,0.02,0.41
3036,0.65,-0.88,9.00,0.03,0.02,0.41
3041,0.61,-0.57,9.38,0.03,0.02,0.41
3046,0.61,-0.57,9.38,0.01,-0.05,0.40
3051,0.61,-0.57,9.38,0.01,-0.00,0.36
3055,-2.14,-2.53,7.77,0.01,-0.00,0.36
3062,-3.18,-1.19,7.55,0.01,-0.00,0.36
3065,-3.18,-1.19,7.55,-0.04,0.02,0.36
3071,1.15,-2.11,13.59,-0.04,0.02,0.36
3077,0.92,-1.91,13.63,-0.04,0.02,0.36
3081,0.92,-1.91,13.63,0.01,-0.15,0.29
3086,0.92,-1.91,13.63,0.00,-0.13,0.20
3092,1.91,-0.23,10.15,0.00,-0.13,0.20
3096,1.91,-0.23,10.15,-0.02,-0.00,0.06
3100,1.91,-0.23,10.15,-0.07,0.16,0.03
3106,1.91,-0.23,10.15,-0.08,0.28,0.05
3112,-3.03,0.73,4.79,-0.08,0.28,0.05
3115,-3.03,0.73,4.79,-0.13,0.28,0.08
3120,-1.99,0.69,8.35,-0.13,0.28,0.08
3126,-1.15,0.96,9.54,-0.13,0.28,0.08
3132,0.69,0.00,10.42,-0.13,0.28,0.08
3136,0.69,0.00,10.42,-0.08,-0.14,-0.02
3141,-2.64,0.04,11.30,-0.08,-0.14,-0.02
3147,-0.30,-0.96,12.41,-0.08,-0.14,-0.02
3151,-0.30,-0.96,12.41,-0.02,-0.02,0.11
3156,-1.76,0.84,10.23,-0.02,-0.02,0.11
3161,-0.30,0.19,10.39,-0.02,-0.02,0.11
3165,-0.30,0.19,10.39,-0.06,0.04,0.01
3170,-0.30,0.19,10.39,-0.08,0.02,-0.06
3176,-0.73,0.30,7.31,-0.08,0.02,-0.06
3182,-1.65,0.61,6.36,-0.08,0.02,-0.06
3185,-1.65,0.61,6.36,-0.13,0.02,-0.09
3191,-1.34,0.57,8.04,-0.13,0.02,-0.09
3197,-2.87,1.00,8.77,-0.13,0.02,-0.09
3200,-2.87,1.00,8.77,-0.12,0.09,-0.13
3205,-2.87,1.00,8.77,-0.11,0.09,-0.08
3211,-1.65,0.38,10.73,-0.11,0.09,-0.08
3217,-3.41,1.07,6.59,-0.11,0.09,-0.08
3220,-3.41,1.07,6.59,-0.11,0.03,-0.10
3226,-3.41,1.07,6.59,-0.09,-0.05,-0.09
3232,-0.96,-0.69,8.12,-0.09,-0.05,-0.09
3236,-0.96,-0.69,8.12,-0.07,-0.10,-0.01
3241,-0.96,-0.69,8.12,-0.08,-0.11,0.00
3246,-0.96,-0.69,8.12,-0.07,-0.10,-0.01
3252,1.34,-0.65,11.80,-0.07,-0.10,-0.01
3256,1.34,-0.65,11.80,-0.05,-0.03,-0.07
3261,1.34,-0.65,11.80,-0.05,0.04,-0.08
3267,-0.50,-1.27,10.31,-0.05,0.04,-0.08
3270,-0.50,-1.27,10.31,-0.01,0.18,-0.05
3276,-0.50,-1.27,10.31,0.02,0.23,-0.03
3281,-1.27,-0.69,7.66,0.02,0.23,-0.03
3285,-1.27,-0.69,7.66,0.01,0.17,0.03
3290,-1.27,-0.69,7.66,-0.02,0.08,0.02
3296,3.33,0.15,10.15,-0.02,0.08,0.02
3302,1.53,0.38,10.38,-0.02,0.08,0.02
3306,1.53,0.38,10.38,-0.06,-0.21,-0.02
3310,1.53,0.38,10.38,-0.05,-0.19,-0.02
3316,-0.96,0.57,9.77,-0.05,-0.19,-0.02
3322,-1.84,0.42,8.93,-0.05,-0.19,-0.02
3326,-1.84,0.42,8.93,-0.02,0.09,0.01
3331,-1.84,0.42,8.93,-0.04,0.13,0.01
3337,-1.34,1.07,9.16,-0.04,0.13,0.01
3340,-1.34,1.07,9.16,-0.07,0.09,-0.05
3346,-1.34,1.07,9.16,-0.08,0.05,-0.08
3352,0.04,1.61,7.70,-0.08,0.05,-0.08
3355,0.04,1.61,7.70,-0.14,-0.10,-0.08
3360,0.04,1.61,7.70,-0.15,-0.10,-0.09
3366,0.04,1.61,7.70,-0.16,-0.11,-0.07
3372,4.18,-2.26,8.54,-0.16,-0.11,-0.07
3376,4.18,-2.26,8.54,-0.14,-0.24,-0.01
3380,4.18,-2.26,8.54,-0.16,-0.26,-0.01
3385,2.84,-1.30,10.99,-0.16,-0.26,-0.01
3392,3.83,-2.45,12.83,-0.16,-0.26,-0.01
3396,3.83,-2.45,12.83,-0.02,-0.20,0.11
3401,0.84,-0.77,12.98,-0.02,-0.20,0.11
3407,0.96,1.27,14.59,-0.02,-0.20,0.11
3411,0.96,1.27,14.59,0.09,0.17,0.14
3416,0.96,1.27,14.59,0.09,0.23,0.19
3422,-1.72,-1.07,10.11,0.09,0.23,0.19
3426,-1.72,-1.07,10.11,0.05,0.30,0.14
3431,-1.72,-1.07,10.11,0.04,0.28,0.11
3437,-4.33,-0.54,6.71,0.04,0.28,0.11
3441,-4.33,-0.54,6.71,0.01,0.16,0.21
3446,-4.33,-0.54,6.71,-0.04,0.08,0.24
3451,-4.33,-0.54,6.71,-0.14,-0.01,0.21
3457,-0.15,-0.77,4.67,-0.14,-0.01,0.21
3460,-0.15,-0.77,4.67,-0.18,-0.36,0.05
3466,-0.15,-0.77,4.67,-0.17,-0.48,0.08
3472,2.34,-2.18,11.88,-0.17,-0.48,0.08
3475,2.34,-2.18,11.88,-0.09,-0.54,0.27
3480,2.34,-2.18,11.88,-0.05,-0.47,0.30
3486,2.34,-2.18,11.88,-0.01,-0.33,0.27
3492,1.27,-2.30,14.59,-0.01,-0.33,0.27
3496,1.27,-2.30,14.59,0.10,0.01,0.26
3501,1.27,-2.30,14.59,0.14,0.14,0.29
3506,1.27,-2.30,14.59,0.17,0.28,0.29
3512,-2.64,-0.11,8.77,0.17,0.28,0.29
3516,-2.64,-0.11,8.77,0.15,0.44,0.29
3521,-2.64,-0.11,8.77,0.06,0.45,0.28
3527,-2.45,1.30,10.07,0.06,0.45,0.28
3531,-2.45,1.30,10.07,-0.09,0.25,0.16
3536,-2.45,1.30,10.07,-0.13,0.10,0.07
3542,1.30,-0.92,12.57,-0.13,0.10,0.07
3546,1.30,-0.92,12.57,-0.12,-0.16,0.06
3551,1.30,-0.92,12.57,-0.07,-0.20,0.12
3556,1.04,-1.11,10.19,-0.07,-0.20,0.12
3562,0.15,-0.65,9.80,-0.07,-0.20,0.12
3566,0.15,-0.65,9.80,-0.02,-0.07,0.21
3571,0.15,-0.65,9.80,-0.02,0.00,0.18
3577,-1.95,1.23,9.50,-0.02,0.00,0.18
3580,-1.95,1.23,9.50,-0.06,0.17,0.10
3586,-1.95,1.23,9.50,-0.10,0.26,0.08
3591,-3.91,0.73,8.89,-0.10,0.26,0.08
3597,-1.65,-0.46,11.64,-0.10,0.26,0.08
3601,-1.65,-0.46,11.64,-0.17,0.11,0.00
3606,-1.65,-0.46,11.64,-0.18,-0.04,-0.02
3612,2.07,-1.04,10.45,-0.18,-0.04,-0.02
3616,2.07,-1.04,10.45,-0.15,-0.16,-0.05
3620,2.07,-1.04,10.45,-0.11,-0.04,-0.05
3626,2.07,-1.04,10.45,-0.09,0.17,-0.04
3632,-3.10,2.22,10.34,-0.09,0.17,-0.04
3636,-3.10,2.22,10.34,-0.11,0.38,-0.01
3641,-3.10,2.22,10.34,-0.17,0.30,-0.02
3647,5.29,0.96,7.77,-0.17,0.30,-0.02
3651,5.29,0.96,7.77,-0.24,-0.04,-0.05
3656,5.29,0.96,7.77,-0.24,-0.05,-0.08
3661,-1.57,1.91,8.62,-0.24,-0.05,-0.08
3667,-1.99,1.42,8.12,-0.24,-0.05,-0.08
3671,-1.99,1.42,8.12,-0.20,0.29,-0.02
3676,-1.99,1.42,8.12,-0.17,0.40,-0.03
3682,-6.05,0.96,8.58,-0.17,0.40,-0.03
3686,-6.05,0.96,8.58,-0.21,0.38,-0.07
3691,-6.05,0.96,8.58,-0.23,0.25,-0.12
3697,-1.95,0.96,5.64,-0.23,0.25,-0.12
3701,-1.95,0.96,5.64,-0.25,-0.10,-0.19
3706,-1.95,0.96,5.64,-0.27,-0.22,-0.16
3711,-1.95,0.96,5.64,-0.29,-0.29,-0.12
3717,2.57,0.65,7.32,-0.29,-0.29,-0.12
3721,2.57,0.65,7.32,-0.36,-0.31,-0.15
3726,2.57,0.65,7.32,-0.35,-0.31,-0.18
3732,-1.42,-0.57,11.00,-0.35,-0.31,-0.18
3736,-1.42,-0.57,11.00,-0.22,-0.00,-0.24
3741,-1.42,-0.57,11.00,-0.16,0.19,-0.18
3746,-1.42,-0.57,11.00,-0.15,0.36,-0.13
3752,-1.76,-0.42,11.92,-0.15,0.36,-0.13
3755,-1.76,-0.42,11.92,-0.18,0.50,-0.22
3761,-1.76,-0.42,11.92,-0.20,0.40,-0.29
3767,-1.76,-0.42,11.92,-0.22,0.29,-0.33
3771,-1.76,-0.42,11.92,-0.24,0.17,-0.32
3776,-1.76,-0.42,11.92,-0.24,0.07,-0.31
3781,1.27,-0.38,10.00,-0.24,0.07,-0.31
3787,0.77,0.04,9.96,-0.24,0.07,-0.31
3790,0.77,0.04,9.96,-0.24,0.00,-0.28
3796,0.77,0.04,9.96,-0.24,0.04,-0.27
3802,-1.88,-1.57,10.23,-0.24,0.04,-0.27
3806,-1.88,-1.57,10.23,-0.22,0.17,-0.30
3811,-1.88,-1.57,10.23,-0.20,0.19,-0.29
3816,-3.18,0.80,10.27,-0.20,0.19,-0.29
3822,0.42,0.42,11.26,-0.20,0.19,-0.29
3826,0.42,0.42,11.26,-0.22,0.09,-0.26
3831,0.42,0.42,11.26,-0.25,-0.04,-0.27
3838,2.57,-0.15,8.74,-0.25,-0.04,-0.27
3841,2.57,-0.15,8.74,-0.27,-0.14,-0.34
3846,2.57,-0.15,8.74,-0.24,-0.11,-0.32
3851,-1.15,-0.11,9.12,-0.24,-0.11,-0.32
3857,0.19,0.15,9.27,-0.24,-0.11,-0.32
3860,0.19,0.15,9.27,-0.22,0.08,-0.27
3866,0.19,0.15,9.27,-0.22,0.07,-0.29
3872,-0.30,-0.27,10.46,-0.22,0.07,-0.29
3876,-0.30,-0.27,10.46,-0.22,0.04,-0.33
3881,-0.30,-0.27,10.46,-0.22,0.04,-0.34
3887,-0.30,-0.27,10.46,-0.21,0.02,-0.36
3891,-0.30,-0.27,10.46,-0.20,0.02,-0.37
3896,-0.30,-0.27,10.46,-0.18,0.06,-0.39
3901,-0.30,-0.27,10.46,-0.19,0.08,-0.38
3907,-1.07,-1.23,7.97,-0.19,0.08,-0.38
3911,-1.07,-1.23,7.97,-0.21,0.01,-0.37
3916,-1.07,-1.23,7.97,-0.22,-0.04,-0.40
3920,-0.88,0.11,7.43,-0.22,-0.04,-0.40
3927,-0.77,0.27,7.78,-0.22,-0.04,-0.40
3932,-0.77,0.27,7.78,-0.24,-0.04,-0.40
3936,-0.77,0.27,7.78,-0.23,-0.04,-0.40
3942,-0.77,0.73,10.50,-0.23,-0.04,-0.40
3946,-0.77,0.73,10.50,-0.21,0.02,-0.40
3951,-0.77,0.73,10.50,-0.20,0.04,-0.39
3957,-0.80,0.42,9.58,-0.20,0.04,-0.39
3960,-0.80,0.42,9.58,-0.17,0.09,-0.40
3966,-0.80,0.42,9.58,-0.17,0.11,-0.40
3971,-0.80,0.42,9.58,-0.18,0.12,-0.38
3976,-3.10,1.46,5.48,-0.18,0.12,-0.38
3981,-3.10,1.46,5.48,-0.21,0.17,-0.42
3986,-3.10,1.46,5.48,-0.22,0.18,-0.46
3992,-2.57,0.04,8.58,-0.22,0.18,-0.46
3996,-2.57,0.04,8.58,-0.20,0.11,-0.47
4001,-2.57,0.04,8.58,-0.18,0.08,-0.45
4006,-2.57,0.04,8.58,-0.17,0.03,-0.43
4012,-2.22,-0.61,9.92,-0.17,0.03,-0.43
4016,-2.22,-0.61,9.92,-0.16,-0.01,-0.45
4021,-2.22,-0.61,9.92,-0.14,0.01,-0.44
4027,1.72,-1.49,9.61,-0.14,0.01,-0.44
4031,1.72,-1.49,9.61,-0.13,-0.04,-0.36
4036,1.72,-1.49,9.61,-0.13,-0.04,-0.36
4041,1.72,-1.49,9.61,-0.10,0.04,-0.40
4046,-1.11,-0.42,9.73,-0.10,0.04,-0.40
4051,-1.11,-0.42,9.73,-0.05,0.24,-0.36
4056,-1.11,-0.42,9.73,-0.03,0.37,-0.35
4062,-3.64,-0.54,8.01,-0.03,0.37,-0.35
4066,-3.64,-0.54,8.01,-0.05,0.30,-0.34
4071,-3.64,-0.54,8.01,-0.08,0.12,-0.36
4077,2.26,-1.99,8.70,-0.08,0.12,-0.36
4080,2.26,-1.99,8.70,-0.12,-0.27,-0.39
4086,2.26,-1.99,8.70,-0.12,-0.37,-0.38
4091,2.26,-1.99,8.70,-0.09,-0.35,-0.37
4096,1.07,-1.88,10.77,-0.09,-0.35,-0.37
4101,1.07,-1.88,10.77,-0.04,-0.16,-0.33
4106,1.07,-1.88,10.77,0.01,-0.00,-0.32
4112,1.07,-1.88,10.77,0.04,0.13,-0.32
4116,1.07,-1.88,10.77,0.05,0.18,-0.30
4121,1.07,-1.88,10.77,0.04,0.17,-0.31
4126,1.07,-1.88,10.77,0.01,0.14,-0.36
4132,-1.53,-1.80,8.16,0.01,0.14,-0.36
4136,-1.53,-1.80,8.16,0.01,0.13,-0.38
4140,-1.53,-1.80,8.16,0.01,0.05,-0.32
4145,-1.53,-1.80,8.16,0.00,-0.01,-0.28
4150,-0.77,-1.46,7.66,0.00,-0.01,-0.28
4156,-0.77,-1.46,7.66,0.01,-0.06,-0.28
4162,-0.77,-1.46,7.66,0.02,-0.10,-0.27
4167,-0.80,-1.34,9.23,0.02,-0.10,-0.27
4171,-0.80,-1.34,9.23,0.04,-0.12,-0.23
4176,-0.80,-1.34,9.23,0.06,-0.15,-0.19
4182,-0.80,-1.34,9.23,0.07,-0.21,-0.15
4186,-0.80,-1.34,9.23,0.07,-0.25,-0.12
4191,-0.80,-1.34,9.23,0.08,-0.24,-0.11
4196,-0.80,-1.34,9.23,0.08,-0.21,-0.10
4201,1.57,-1.49,9.46,0.08,-0.21,-0.10
4206,1.57,-1.49,9.46,0.11,-0.07,-0.11
4211,1.57,-1.49,9.46,0.11,0.02,-0.12
4216,1.57,-1.49,9.46,0.14,0.08,-0.09
4221,1.57,-1.49,9.46,0.16,0.12,-0.07
4226,1.57,-1.49,9.46,0.16,0.14,-0.07
4231,1.57,-1.49,9.46,0.13,0.14,-0.10
4236,1.57,-1.49,9.46,0.13,0.10,-0.15
4241,1.57,-1.49,9.46,0.12,0.05,-0.17
4246,1.57,-1.49,9.46,0.13,0.03,-0.15
4252,-2.68,-1.30,8.32,0.13,0.03,-0.15
4256,-2.68,-1.30,8.32,0.12,0.03,-0.12
4261,-2.68,-1.30,8.32,0.11,-0.01,-0.14
4267,-2.68,-1.30,8.32,0.10,-0.07,-0.15
4271,-2.68,-1.30,8.32,0.10,-0.08,-0.17
4276,-2.68,-1.30,8.32,0.11,-0.08,-0.16
4281,-2.68,-1.30,8.32,0.12,-0.06,-0.13
4287,-2.68,-1.30,8.32,0.12,-0.01,-0.13
4291,-2.68,-1.30,8.32,0.14,-0.00,-0.15
4296,-2.68,-1.30,8.32,0.15,-0.00,-0.17
4302,-2.68,-1.30,8.32,0.16,0.01,-0.18
4306,-2.68,-1.30,8.32,0.17,0.04,-0.19
4311,-2.68,-1.30,8.32,0.16,0.06,-0.18
4316,-2.68,-1.30,8.32,0.16,0.10,-0.19
4322,-0.73,0.38,7.63,0.16,0.10,-0.19
4326,-0.73,0.38,7.63,0.10,0.14,-0.23
4331,-0.73,0.38,7.63,0.06,0.11,-0.22
4336,-0.73,0.38,7.63,0.03,0.02,-0.23
4341,-0.73,0.38,7.63,0.01,-0.07,-0.24
4346,-0.73,0.38,7.63,0.01,-0.10,-0.27
4351,-0.73,0.38,7.63,0.03,-0.04,-0.29
4357,0.08,-1.19,10.84,0.03,-0.04,-0.29
4361,0.08,-1.19,10.84,0.11,0.11,-0.19
4366,0.08,-1.19,10.84,0.14,0.20,-0.16
4372,0.08,-1.19,10.84,0.16,0.24,-0.16
4376,0.08,-1.19,10.84,0.13,0.18,-0.14
4381,0.08,-1.19,10.84,0.11,0.00,-0.10
4386,0.08,-1.19,10.84,0.06,-0.14,-0.14
4392,-1.72,1.23,9.65,0.06,-0.14,-0.14
4396,-1.72,1.23,9.65,0.07,-0.13,-0.22
4401,-1.72,1.23,9.65,0.08,-0.03,-0.19
4407,-1.72,1.23,9.65,0.08,0.00,-0.14
4411,-1.72,1.23,9.65,0.04,-0.07,-0.14
4416,-1.72,1.23,9.65,0.03,-0.13,-0.18
4421,-1.72,1.23,9.65,0.05,-0.12,-0.23
4426,-1.72,1.23,9.65,0.07,-0.10,-0.21
4431,-1.72,1.23,9.65,0.07,-0.02,-0.19
4436,-1.72,1.23,9.65,0.08,0.06,-0.21
4441,-1.72,1.23,9.65,0.08,0.13,-0.24
4446,-1.72,1.23,9.65,0.07,0.16,-0.24
4451,-1.72,1.23,9.65,0.06,0.13,-0.21
4456,-1.72,1.23,9.65,0.05,0.07,-0.23
4461,-1.72,1.23,9.65,0.04,0.04,-0.29
4466,-1.72,1.23,9.65,0.05,0.03,-0.30
4471,-1.72,1.23,9.65,0.08,0.03,-0.28
4476,-1.72,1.23,9.65,0.11,0.05,-0.24
4481,-1.72,1.23,9.65,0.12,0.04,-0.21
4486,-1.72,1.23,9.65,0.12,0.02,-0.20
4491,-1.72,1.23,9.65,0.12,-0.01,-0.20
4496,-1.72,1.23,9.65,0.11,-0.03,-0.22
4501,-1.72,1.23,9.65,0.11,-0.01,-0.24
4506,-1.72,1.23,9.65,0.12,0.04,-0.25
4511,-2.80,-0.23,9.08,0.12,0.04,-0.25
4516,-2.80,-0.23,9.08,0.13,0.12,-0.24
4521,-2.80,-0.23,9.08,0.14,0.14,-0.24
4526,-2.80,-0.23,9.08,0.11,0.13,-0.24
4531,-2.80,-0.23,9.08,0.09,0.06,-0.24
4536,-2.80,-0.23,9.08,0.08,-0.03,-0.26
4541,-2.80,-0.23,9.08,0.08,-0.12,-0.26
4547,0.46,0.04,9.08,0.08,-0.12,-0.26
4551,0.46,0.04,9.08,0.08,-0.17,-0.22
4556,0.46,0.04,9.08,0.09,-0.12,-0.19
4561,0.46,0.04,9.08,0.10,-0.06,-0.18
4566,-1.57,-0.38,9.42,0.10,-0.06,-0.18
4571,-1.57,-0.38,9.42,0.11,0.03,-0.18
4576,-1.57,-0.38,9.42,0.11,0.01,-0.17
4581,0.00,0.30,10.73,0.11,0.01,-0.17
4586,0.00,0.30,10.73,0.11,-0.04,-0.16
4591,0.00,0.30,10.73,0.11,-0.08,-0.17
4596,0.00,0.30,10.73,0.11,-0.09,-0.19
4601,0.00,0.30,10.73,0.14,-0.04,-0.20
4606,0.00,0.30,10.73,0.13,0.03,-0.18
4611,0.00,0.30,10.73,0.12,0.07,-0.15
4617,-1.84,0.11,9.00,0.12,0.07,-0.15
4621,-1.84,0.11,9.00,0.09,0.10,-0.20
4626,-1.84,0.11,9.00,0.06,0.07,-0.21
4631,-1.84,0.11,9.00,0.06,0.01,-0.21
4636,-1.84,0.11,9.00,0.05,-0.03,-0.20
4641,-1.84,0.11,9.00,0.06,-0.07,-0.20
4646,-1.84,0.11,9.00,0.07,-0.10,-0.21
4652,2.91,-0.69,9.00,0.07,-0.10,-0.21
4656,2.91,-0.69,9.00,0.06,-0.20,-0.21
4661,2.91,-0.69,9.00,0.07,-0.20,-0.23
4666,2.91,-0.69,9.00,0.11,-0.12,-0.23
4671,2.91,-0.69,9.00,0.12,-0.03,-0.21
4676,2.91,-0.69,9.00,0.12,0.04,-0.19
4681,2.91,-0.69,9.00,0.14,0.09,-0.20
4687,0.50,-1.30,10.46,0.14,0.09,-0.20
4691,0.50,-1.30,10.46,0.12,0.07,-0.19
4696,0.50,-1.30,10.46,0.13,0.04,-0.18
4701,0.50,-1.30,10.46,0.12,0.02,-0.17
4706,0.50,-1.30,10.46,0.13,-0.02,-0.16
4711,0.50,-1.30,10.46,0.13,-0.05,-0.13
4716,0.50,-1.30,10.46,0.16,-0.05,-0.11
4722,-0.80,-2.22,9.84,0.16,-0.05,-0.11
4726,-0.80,-2.22,9.84,0.17,0.03,-0.06
4731,-0.80,-2.22,9.84,0.16,0.08,-0.03
4737,-0.80,-2.22,9.84,0.17,0.08,-0.00
4741,-0.80,-2.22,9.84,0.19,0.10,0.02
4746,-0.80,-2.22,9.84,0.19,0.09,0.06
4751,-0.80,-2.22,9.84,0.19,0.05,0.09
4756,-0.80,-2.22,9.84,0.19,0.01,0.09
4761,-0.80,-2.22,9.84,0.21,0.00,0.08
4766,-0.80,-2.22,9.84,0.20,-0.02,0.11
4772,-0.80,-2.22,9.84,0.21,-0.05,0.16
4776,-0.80,-2.22,9.84,0.21,-0.10,0.20
4781,-0.80,-2.22,9.84,0.23,-0.12,0.23
4786,-0.80,-2.22,9.84,0.24,-0.11,0.25
4791,-0.80,-2.22,9.84,0.26,-0.09,0.26
4796,-0.80,-2.22,9.84,0.26,-0.08,0.27
4801,-0.80,-2.22,9.84,0.28,-0.09,0.27
4807,4.06,-1.49,13.06,0.28,-0.09,0.27
4811,4.06,-1.49,13.06,0.28,-0.23,0.34
4816,4.06,-1.49,13.06,0.24,-0.27,0.36
4820,4.06,-1.49,13.06,0.25,-0.21,0.32
4827,-0.84,-5.67,10.80,0.25,-0.21,0.32
4831,-0.84,-5.67,10.80,0.28,0.01,0.25
4836,-0.84,-5.67,10.80,0.33,0.08,0.30
4842,-2.49,-1.88,8.20,0.33,0.08,0.30
4846,-2.49,-1.88,8.20,0.35,0.16,0.38
4851,-2.49,-1.88,8.20,0.31,0.11,0.36
4856,-2.49,-1.88,8.20,0.28,0.07,0.27
4861,-0.54,-0.27,10.03,0.28,0.07,0.27
4866,-0.54,-0.27,10.03,0.26,0.04,0.17
4871,-0.54,-0.27,10.03,0.30,0.07,0.22
4877,-1.42,0.73,8.54,0.30,0.07,0.22
4881,-1.42,0.73,8.54,0.26,0.08,0.31
4886,-1.42,0.73,8.54,0.21,0.06,0.29
4890,-1.42,0.73,8.54,0.17,0.00,0.22
4896,-0.42,0.73,8.58,0.17,0.00,0.22
4901,-0.42,0.73,8.58,0.14,-0.11,0.20
4905,-0.42,0.73,8.58,0.14,-0.12,0.20
4911,-1.46,1.00,9.58,0.14,-0.12,0.20
4916,-1.46,1.00,9.58,0.12,-0.06,0.16
4921,-1.46,1.00,9.58,0.13,-0.02,0.14
4926,-1.46,1.00,9.58,0.11,0.02,0.12
4831,-0.84,-5.67,10.80,0.28,0.01,0.25
4836,-0.84,-5.67,10.80,0.33,0.08,0.30
4842,-2.49,-1.88,8.20,0.33,0.08,0.30
4846,-2.49,-1.88,8.20,0.35,0.16,0.38
4851,-2.49,-1.88,8.20,0.31,0.11,0.36
4856,-2.49,-1.88,8.20,0.28,0.07,0.27
4861,-0.54,-0.27,10.03,0.28,0.07,0.27
4866,-0.54,-0.27,10.03,0.26,0.04,0.17
4871,-0.54,-0.27,10.03,0.30,0.07,0.22
4877,-1.42,0.73,8.54,0.30,0.07,0.22
4881,-1.42,0.73,8.54,0.26,0.08,0.31
4886,-1.42,0.73,8.54,0.21,0.06,0.29
4890,-1.42,0.73,8.54,0.17,0.00,0.22
4896,-0.42,0.73,8.58,0.17,0.00,0.22
4901,-0.42,0.73,8.58,0.14,-0.11,0.20
