timestamp,accX,accY,accZ,gyroX,gyroY,gyroZ
Left
6,0.57,-2.30,8.66,0.18,-0.12,0.05
18,0.57,-2.30,8.66,0.24,-0.05,0.13
21,0.57,-2.30,8.66,0.11,0.05,0.02
22,-1.11,-0.80,9.61,0.11,0.05,0.02
25,-1.11,-0.80,9.61,0.08,-0.03,-0.01
30,0.00,-1.04,10.41,0.08,-0.03,-0.01
36,0.00,-1.04,10.41,0.08,-0.08,-0.00
41,-0.57,-0.96,10.07,0.08,-0.08,-0.00
46,-0.57,-0.96,10.07,0.07,-0.09,0.03
50,-0.57,-0.96,10.07,0.07,-0.08,0.02
56,1.80,-1.76,11.50,0.07,-0.08,0.02
61,1.80,-1.76,11.50,0.06,-0.05,0.03
65,1.80,-1.76,11.50,0.07,-0.01,0.07
71,1.80,-1.76,11.50,0.10,0.03,0.09
76,1.80,-1.76,11.50,0.11,0.07,0.09
81,1.80,-1.76,11.50,0.12,0.08,0.08
86,1.80,-1.76,11.50,0.15,0.08,0.10
91,-2.07,-1.34,8.78,0.15,0.08,0.10
96,-2.07,-1.34,8.78,0.20,0.07,0.14
100,-2.07,-1.34,8.78,0.18,0.06,0.11
106,-1.84,1.38,7.55,0.18,0.06,0.11
111,-1.84,1.38,7.55,0.10,-0.02,-0.01
116,-1.84,1.38,7.55,0.05,-0.10,-0.05
121,-1.84,1.38,7.55,0.02,-0.15,-0.07
126,-0.88,-0.65,9.12,0.02,-0.15,-0.07
131,-0.88,-0.65,9.12,0.02,-0.13,-0.07
136,-0.88,-0.65,9.12,0.02,-0.07,-0.08
141,-1.95,0.27,8.77,0.02,-0.07,-0.08
146,-1.95,0.27,8.77,0.05,0.06,-0.13
151,-1.95,0.27,8.77,0.06,0.06,-0.14
156,-1.95,0.27,8.77,0.06,0.04,-0.13
161,-0.46,-1.38,10.49,0.06,0.04,-0.13
166,-0.46,-1.38,10.49,0.10,0.02,-0.06
170,-0.46,-1.38,10.49,0.11,0.04,-0.05
176,-1.72,0.65,10.91,0.11,0.04,-0.05
181,-1.72,0.65,10.91,0.13,0.15,-0.03
186,-1.72,0.65,10.91,0.13,0.19,-0.05
191,-1.72,0.65,10.91,0.12,0.17,-0.09
196,-1.91,-0.96,8.27,0.12,0.17,-0.09
201,-1.91,-0.96,8.27,0.11,-0.02,-0.12
205,-1.91,-0.96,8.27,0.12,-0.09,-0.10
211,-0.15,-0.84,7.73,0.12,-0.09,-0.10
216,-0.15,-0.84,7.73,0.09,-0.18,-0.13
220,-0.15,-0.84,7.73,0.08,-0.15,-0.15
226,-0.15,-0.84,7.73,0.06,-0.09,-0.19
231,-0.57,0.23,9.92,0.06,-0.09,-0.19
236,-0.57,0.23,9.92,0.06,0.01,-0.24
240,-0.57,0.23,9.92,0.09,0.04,-0.22
246,-2.03,-1.61,9.96,0.09,0.04,-0.22
251,-2.03,-1.61,9.96,0.12,0.03,-0.17
255,-2.03,-1.61,9.96,0.14,-0.04,-0.17
262,-2.03,-1.61,9.96,0.17,-0.08,-0.14
266,-2.03,-1.61,9.96,0.18,-0.08,-0.10
271,-2.03,-1.61,9.96,0.18,-0.04,-0.08
275,-2.03,-1.61,9.96,0.18,-0.02,-0.07
281,-1.49,-0.88,9.08,0.18,-0.02,-0.07
286,-1.49,-0.88,9.08,0.20,0.07,-0.07
290,-1.49,-0.88,9.08,0.23,0.10,-0.06
296,-1.49,-0.88,9.08,0.22,0.09,-0.05
301,0.00,-1.46,8.16,0.22,0.09,-0.05
306,0.00,-1.46,8.16,0.24,-0.08,-0.02
310,0.00,-1.46,8.16,0.22,-0.10,0.02
316,-0.50,-0.73,10.77,0.22,-0.10,0.02
321,-0.50,-0.73,10.77,0.20,-0.10,-0.01
325,-0.50,-0.73,10.77,0.20,-0.08,0.01
331,-0.69,-0.61,11.92,0.20,-0.08,0.01
336,-0.69,-0.61,11.92,0.24,0.02,0.13
341,-0.69,-0.61,11.92,0.24,0.05,0.15
346,-0.69,-0.61,11.92,0.27,0.02,0.16
351,0.46,-2.18,8.43,0.27,0.02,0.16
356,0.46,-2.18,8.43,0.31,-0.11,0.23
360,0.46,-2.18,8.43,0.32,-0.11,0.29
366,-1.19,-1.27,6.97,0.32,-0.11,0.29
370,-1.19,-1.27,6.97,0.33,-0.09,0.26
375,-1.19,-1.27,6.97,0.32,-0.10,0.23
381,-1.19,-1.27,6.97,0.31,-0.12,0.23
386,0.08,-1.23,10.27,0.31,-0.12,0.23
391,0.08,-1.23,10.27,0.26,-0.16,0.24
395,0.08,-1.23,10.27,0.23,-0.18,0.24
401,2.53,-1.42,12.48,0.23,-0.18,0.24
406,2.53,-1.42,12.48,0.22,-0.09,0.30
411,2.53,-1.42,12.48,0.25,-0.01,0.34
416,2.53,-1.42,12.48,0.29,0.07,0.36
421,-1.34,-1.42,8.16,0.29,0.07,0.36
426,-1.34,-1.42,8.16,0.38,0.16,0.39
430,-1.34,-1.42,8.16,0.40,0.13,0.40
436,-0.15,-2.38,8.08,0.40,0.13,0.40
441,-0.15,-2.38,8.08,0.39,-0.07,0.44
445,-0.15,-2.38,8.08,0.37,-0.14,0.44
451,-0.15,-2.38,8.08,0.33,-0.16,0.43
456,-0.50,-0.38,9.23,0.33,-0.16,0.43
461,-0.50,-0.38,9.23,0.30,-0.13,0.38
466,-0.50,-0.38,9.23,0.30,-0.10,0.35
471,-0.46,-0.30,8.82,0.30,-0.10,0.35
476,-0.46,-0.30,8.82,0.29,-0.09,0.29
480,-0.46,-0.30,8.82,0.30,-0.07,0.29
486,-0.46,-0.30,8.82,0.28,-0.08,0.29
490,-0.46,-0.30,8.82,0.28,-0.09,0.30
496,-0.46,-0.30,8.82,0.28,-0.08,0.30
501,-0.46,-0.30,8.82,0.28,-0.05,0.31
506,-0.38,-0.08,9.12,0.28,-0.05,0.31
511,-0.38,-0.08,9.12,0.28,0.01,0.29
515,-0.38,-0.08,9.12,0.28,0.04,0.28
521,-0.38,-0.08,9.12,0.27,0.04,0.24
526,-0.38,-0.08,9.12,0.25,0.01,0.21
531,-0.38,-0.08,9.12,0.24,-0.03,0.20
536,-0.38,-0.08,9.12,0.23,-0.07,0.19
541,-0.38,-0.08,9.12,0.21,-0.08,0.20
546,-0.38,-0.08,9.12,0.21,-0.06,0.19
550,-0.38,-0.08,9.12,0.21,-0.04,0.15
556,-0.69,0.50,9.12,0.21,-0.04,0.15
561,-0.69,0.50,9.12,0.20,-0.03,0.10
565,-0.69,0.50,9.12,0.20,-0.02,0.11
571,-0.69,0.50,9.12,0.18,-0.01,0.09
576,-0.54,0.11,10.49,0.18,-0.01,0.09
581,-0.54,0.11,10.49,0.18,-0.01,0.09
585,-0.54,0.11,10.49,0.18,0.01,0.10
591,-2.72,0.23,9.69,0.18,0.01,0.10
596,-2.72,0.23,9.69,0.20,0.07,0.09
601,-2.72,0.23,9.69,0.23,0.08,0.06
606,-2.72,0.23,9.69,0.22,0.07,0.04
611,-3.26,0.30,7.17,0.22,0.07,0.04
616,-3.26,0.30,7.17,0.17,-0.02,-0.01
621,-3.26,0.30,7.17,0.19,-0.11,-0.02
626,-2.18,0.54,9.58,0.19,-0.11,-0.02
631,-2.18,0.54,9.58,0.14,-0.17,-0.00
635,-2.18,0.54,9.58,0.13,-0.15,-0.03
641,-2.18,0.54,9.58,0.14,-0.10,-0.05
646,-3.56,0.77,8.78,0.14,-0.10,-0.05
651,-3.56,0.77,8.78,0.15,0.02,-0.07
655,-3.56,0.77,8.78,0.15,-0.01,-0.09
661,-3.56,0.77,8.78,0.16,-0.07,-0.09
666,-3.56,0.77,8.78,0.18,-0.10,-0.04
670,-3.56,0.77,8.78,0.19,-0.12,0.03
676,-3.56,0.77,8.78,0.20,-0.09,0.07
681,-0.73,1.30,11.84,0.20,-0.09,0.07
686,-0.73,1.30,11.84,0.21,0.05,0.11
691,-0.73,1.30,11.84,0.21,0.12,0.12
696,-2.41,0.54,8.50,0.21,0.12,0.12
701,-2.41,0.54,8.50,0.26,0.13,0.14
705,-2.41,0.54,8.50,0.28,0.06,0.17
711,-0.80,-0.11,7.89,0.28,0.06,0.17
716,-0.80,-0.11,7.89,0.28,-0.15,0.28
720,-0.80,-0.11,7.89,0.26,-0.21,0.33
726,-0.80,-0.11,7.89,0.23,-0.23,0.31
731,0.38,1.42,10.57,0.23,-0.23,0.31
736,0.38,1.42,10.57,0.17,-0.20,0.26
740,0.38,1.42,10.57,0.18,-0.13,0.27
746,0.08,-1.76,10.84,0.18,-0.13,0.27
750,0.08,-1.76,10.84,0.23,-0.03,0.37
756,0.08,-1.76,10.84,0.25,0.00,0.42
761,0.08,-1.76,10.84,0.28,0.02,0.45
766,-0.34,-1.65,9.04,0.28,0.02,0.45
771,-0.34,-1.65,9.04,0.32,-0.00,0.46
775,-0.34,-1.65,9.04,0.31,-0.05,0.50
781,-0.34,-1.65,9.04,0.32,-0.05,0.55
786,-0.34,-1.65,9.04,0.31,-0.04,0.55
790,-0.34,-1.65,9.04,0.32,-0.05,0.52
795,-0.34,-1.65,9.04,0.33,-0.07,0.51
800,-0.34,-1.65,9.04,0.35,-0.09,0.54
805,-0.30,-2.72,9.50,0.35,-0.09,0.54
810,-0.30,-2.72,9.50,0.30,-0.11,0.55
817,-0.30,-2.72,9.50,0.29,-0.11,0.52
821,-0.30,-2.72,9.50,0.30,-0.10,0.51
825,-0.30,-2.72,9.50,0.33,-0.08,0.54
831,-0.30,-2.72,9.50,0.32,-0.05,0.58
836,-0.30,-2.72,9.50,0.33,-0.02,0.61
841,-0.30,-2.72,9.50,0.33,0.01,0.61
845,-0.30,-2.72,9.50,0.34,0.04,0.62
851,1.30,-2.22,9.93,0.34,0.04,0.62
856,1.30,-2.22,9.93,0.35,-0.01,0.69
860,1.30,-2.22,9.93,0.36,-0.03,0.74
866,1.30,-2.22,9.93,0.38,-0.05,0.78
870,1.30,-2.22,9.93,0.39,-0.04,0.80
876,1.30,-2.22,9.93,0.38,-0.05,0.79
881,1.30,-2.22,9.93,0.37,-0.06,0.77
886,0.34,-1.07,10.77,0.37,-0.06,0.77
891,0.34,-1.07,10.77,0.32,-0.11,0.78
895,0.34,-1.07,10.77,0.30,-0.13,0.81
901,0.34,-1.07,10.77,0.30,-0.10,0.86
906,0.34,-1.07,10.77,0.31,-0.04,0.88
911,0.34,-1.07,10.77,0.33,0.04,0.91
916,0.34,-1.07,10.77,0.36,0.11,0.92
921,0.34,-1.07,10.77,0.39,0.15,0.92
926,0.34,-1.07,10.77,0.40,0.15,0.93
931,0.34,-1.07,10.77,0.40,0.11,0.95
936,0.34,-1.07,10.77,0.38,0.07,0.95
941,-1.27,-1.23,9.04,0.38,0.07,0.95
946,-1.27,-1.23,9.04,0.30,-0.07,0.94
951,-1.27,-1.23,9.04,0.27,-0.12,0.94
956,-0.15,-0.11,8.74,0.27,-0.12,0.94
960,-0.15,-0.11,8.74,0.25,-0.14,0.93
966,-0.15,-0.11,8.74,0.25,-0.12,0.93
971,-0.77,0.84,7.66,0.25,-0.12,0.93
975,-0.77,0.84,7.66,0.27,-0.04,0.88
980,-0.77,0.84,7.66,0.27,-0.01,0.89
986,-0.77,0.84,7.66,0.27,0.04,0.90
991,-0.23,0.50,10.19,0.27,0.04,0.90
995,-0.23,0.50,10.19,0.23,0.04,0.90
1001,-0.23,0.50,10.19,0.23,0.00,0.91
1006,-1.11,0.61,12.57,0.23,0.00,0.91
1011,-1.11,0.61,12.57,0.17,0.04,0.96
1016,-1.11,0.61,12.57,0.17,0.06,0.91
1020,-1.11,0.61,12.57,0.17,0.05,0.88
1025,-1.49,0.57,10.69,0.17,0.05,0.88
1031,-1.49,0.57,10.69,0.18,0.09,0.88
1037,-1.49,0.57,10.69,0.19,0.11,0.89
1041,-1.49,0.57,10.69,0.18,0.09,0.91
1045,0.88,-1.46,11.11,0.18,0.09,0.91
1050,0.88,-1.46,11.11,0.15,0.07,0.85
1055,0.88,-1.46,11.11,0.13,0.06,0.82
1061,0.88,-1.46,11.11,0.11,0.08,0.81
1065,0.88,-1.46,11.11,0.09,0.07,0.77
1071,0.88,-1.46,11.11,0.08,0.04,0.72
1076,-1.76,-0.08,9.27,0.08,0.04,0.72
1080,-1.76,-0.08,9.27,0.07,0.07,0.68
1086,-1.76,-0.08,9.27,0.08,0.09,0.65
1091,-1.76,-0.08,9.27,0.08,0.14,0.59
1095,-1.76,-0.08,9.27,0.06,0.18,0.52
1101,-1.76,-0.08,9.27,0.02,0.14,0.46
1106,-1.76,-0.08,9.27,-0.01,0.07,0.44
1111,-1.80,-0.34,9.20,-0.01,0.07,0.44
1115,-1.80,-0.34,9.20,-0.04,0.00,0.44
1121,-1.80,-0.34,9.20,-0.05,-0.02,0.40
1126,-1.80,-0.34,9.20,-0.05,0.02,0.38
1131,-1.80,-0.34,9.20,-0.02,0.08,0.35
1136,-1.80,-0.34,9.20,-0.01,0.10,0.33
1141,-1.80,-0.34,9.20,0.01,0.11,0.33
1146,-0.30,-1.72,9.93,0.01,0.11,0.33
1150,-0.30,-1.72,9.93,0.01,0.05,0.36
1155,-0.30,-1.72,9.93,0.02,0.01,0.39
1161,-0.30,-1.72,9.93,0.03,0.04,0.42
1165,-0.30,-1.72,9.93,0.03,0.07,0.44
1170,-0.30,-1.72,9.93,0.05,0.11,0.45
1175,-0.30,-1.72,9.93,0.05,0.17,0.47
1181,-0.30,-1.72,9.93,0.07,0.21,0.46
1185,-0.30,-1.72,9.93,0.07,0.20,0.44
1190,-0.30,-1.72,9.93,0.08,0.17,0.42
1195,-0.30,-1.72,9.93,0.08,0.10,0.44
1201,-0.80,-1.38,7.78,0.08,0.10,0.44
1206,-0.80,-1.38,7.78,0.08,-0.05,0.47
1211,-0.80,-1.38,7.78,0.04,-0.11,0.46
1215,-0.80,-1.38,7.78,0.01,-0.14,0.44
1220,-0.80,-1.38,7.78,-0.00,-0.12,0.40
1225,-0.80,-1.38,7.78,0.00,-0.07,0.38
1231,0.61,-1.04,9.50,0.00,-0.07,0.38
1236,0.61,-1.04,9.50,0.04,0.05,0.40
1240,0.04,-2.14,8.93,0.04,0.05,0.40
1246,0.04,-2.14,8.93,0.10,0.16,0.48
1251,0.04,-2.14,8.93,0.13,0.17,0.49
1255,0.04,-2.14,8.93,0.13,0.16,0.52
1261,0.04,-2.14,8.93,0.13,0.11,0.54
1266,0.04,-2.14,8.93,0.13,0.09,0.55
1270,-0.42,-0.84,10.77,0.13,0.09,0.55
1276,-0.42,-0.84,10.77,0.15,0.06,0.60
1281,-0.42,-0.84,10.77,0.14,0.06,0.60
1285,-0.42,-0.84,10.77,0.13,0.06,0.59
1291,-0.42,-0.84,10.77,0.12,0.03,0.57
1295,-0.42,-0.84,10.77,0.12,0.00,0.58
1301,-0.42,-0.84,10.77,0.12,-0.01,0.60
1305,-0.42,-0.84,10.77,0.11,-0.01,0.61
1311,-0.42,-0.84,10.77,0.12,0.00,0.64
1315,-0.42,-0.84,10.77,0.11,0.02,0.65
1321,1.72,0.69,11.42,0.11,0.02,0.65
1325,1.72,0.69,11.42,0.10,0.08,0.69
1331,1.72,0.69,11.42,0.10,0.10,0.70
1336,1.72,0.69,11.42,0.11,0.11,0.71
1341,0.96,1.00,8.08,0.11,0.11,0.71
1345,0.92,1.04,7.70,0.11,0.11,0.71
1351,0.92,1.04,7.70,0.15,0.07,0.82
1356,0.92,1.04,7.70,0.14,0.04,0.83
1360,0.92,1.04,7.70,0.08,0.02,0.77
1365,-0.54,2.41,9.27,0.08,0.02,0.77
1370,-0.54,2.41,9.27,0.04,0.01,0.76
1375,-0.54,2.41,9.27,0.01,-0.00,0.75
1380,-0.54,2.41,9.27,-0.01,0.00,0.75
1386,-0.54,2.41,9.27,-0.02,0.04,0.74
1391,-0.54,2.41,9.27,-0.02,0.10,0.71
1395,-1.00,0.88,9.92,-0.02,0.10,0.71
1400,-1.00,0.88,9.92,0.03,0.21,0.68
1406,-2.76,0.46,9.27,0.03,0.21,0.68
1412,-2.76,0.46,9.27,0.05,0.27,0.61
1415,-1.38,-0.92,9.30,0.05,0.27,0.61
1421,-1.91,-0.19,9.80,0.05,0.27,0.61
1426,-1.91,-0.19,9.80,0.01,0.18,0.46
1431,-1.91,-0.19,9.80,-0.00,0.16,0.43
1435,-1.91,-0.19,9.80,-0.01,0.13,0.38
1441,-1.91,-0.19,9.80,-0.02,0.12,0.31
1446,-1.91,-0.19,9.80,-0.05,0.12,0.23
1450,-2.18,1.27,7.43,-0.05,0.12,0.23
1456,-2.18,1.27,7.43,-0.08,0.10,0.07
1461,-2.18,1.27,7.43,-0.10,0.12,0.00
1465,-2.18,1.27,7.43,-0.12,0.14,-0.04
1471,-2.18,1.27,7.43,-0.12,0.15,-0.07
1476,-2.18,1.27,7.43,-0.13,0.15,-0.11
1481,-1.49,1.84,10.96,-0.13,0.15,-0.11
1485,0.00,1.57,10.35,-0.13,0.15,-0.11
1491,0.00,1.57,10.35,-0.12,0.20,-0.09
1496,-1.80,2.87,10.11,-0.12,0.20,-0.09
1500,-1.34,2.18,10.11,-0.12,0.20,-0.09
1506,-1.34,2.18,10.11,-0.08,0.29,-0.08
1511,-1.34,2.18,10.11,-0.06,0.28,-0.07
1515,-2.11,3.29,9.34,-0.06,0.28,-0.07
1521,-2.11,3.29,9.34,-0.05,0.27,-0.01
1526,-2.11,3.29,9.34,-0.07,0.24,-0.01
1530,-0.46,2.11,9.16,-0.07,0.24,-0.01
1535,-0.42,1.49,9.46,-0.07,0.24,-0.01
1541,-0.42,1.49,9.46,-0.09,0.08,0.02
1546,-0.42,1.49,9.46,-0.11,0.05,0.05
1550,-0.11,1.15,8.70,-0.11,0.05,0.05
1555,0.00,0.50,8.96,-0.11,0.05,0.05
1561,0.00,0.50,8.96,-0.08,0.05,0.09
1566,0.00,0.50,8.96,-0.04,0.09,0.11
1570,-3.98,1.99,8.96,-0.04,0.09,0.11
1575,-1.88,0.96,7.23,-0.04,0.09,0.11
1581,-0.57,0.54,9.00,-0.04,0.09,0.11
1586,-0.57,0.54,9.00,-0.04,0.09,0.09
1591,-0.27,-1.72,8.50,-0.04,0.09,0.09
1595,-0.38,0.34,8.35,-0.04,0.09,0.09
1600,-0.23,0.69,8.39,-0.04,0.09,0.09
1605,-0.23,0.69,8.39,-0.05,-0.09,0.14
1611,-0.23,0.69,8.39,-0.05,-0.05,0.13
1616,-0.23,0.69,8.39,-0.03,-0.02,0.13
1621,1.61,-2.76,10.03,-0.03,-0.02,0.13
1626,0.96,-3.03,10.69,-0.03,-0.02,0.13
1630,0.96,-3.03,10.69,0.03,0.01,0.25
1636,0.96,-3.03,10.69,0.08,0.04,0.33
1640,0.96,-3.03,10.69,0.10,0.05,0.38
1646,0.96,-3.03,10.69,0.12,0.09,0.43
1651,0.96,-3.03,10.69,0.16,0.12,0.50
1655,-0.54,-0.15,8.46,0.16,0.12,0.50
1661,0.69,-1.42,9.77,0.16,0.12,0.50
1666,0.69,-1.42,9.77,0.19,0.14,0.57
1671,0.46,-2.38,8.82,0.19,0.14,0.57
1675,1.38,-2.11,9.12,0.19,0.14,0.57
1681,1.38,-2.11,9.12,0.21,-0.08,0.78
1686,1.38,-2.11,9.12,0.19,-0.13,0.83
1690,0.46,-0.73,10.77,0.19,-0.13,0.83
1695,0.34,-0.34,10.61,0.19,-0.13,0.83
1701,0.34,-0.34,10.61,0.15,-0.06,0.79
1706,0.34,-0.34,10.61,0.17,-0.03,0.80
1711,0.57,-1.30,10.15,0.17,-0.03,0.80
1715,0.38,-1.42,10.19,0.17,-0.03,0.80
1721,0.38,-1.42,10.19,0.21,0.00,0.93
1725,0.38,-1.42,10.19,0.21,0.02,0.98
1731,0.38,-1.42,10.19,0.21,0.04,1.00
1736,0.38,-1.42,10.19,0.22,0.04,1.01
1741,0.00,-0.54,10.19,0.22,0.04,1.01
1745,-0.08,-0.42,9.43,0.22,0.04,1.01
1751,-0.08,-0.42,9.43,0.24,0.10,1.07
1756,-1.38,-0.04,8.31,0.24,0.10,1.07
1760,-1.15,-0.34,8.54,0.24,0.10,1.07
1766,-1.15,-0.34,8.54,0.19,0.11,0.98
1771,-1.15,-0.34,8.54,0.17,0.08,0.95
1775,0.08,-1.49,10.27,0.17,0.08,0.95
1780,0.08,-1.49,10.27,0.09,-0.01,0.89
1785,0.04,-0.77,10.15,0.09,-0.01,0.89
1790,-0.46,-0.27,10.99,0.09,-0.01,0.89
1796,-0.46,-0.27,10.99,0.09,0.02,0.86
1801,-0.46,-0.27,10.99,0.08,0.11,0.79
1805,-1.65,0.46,9.96,0.08,0.11,0.79
1810,-0.19,0.11,9.88,0.08,0.11,0.79
1815,-0.19,0.11,9.88,0.10,0.18,0.74
1821,-0.19,0.11,9.88,0.11,0.17,0.75
1825,-1.38,0.50,8.28,0.11,0.17,0.75
1830,-0.92,1.11,7.55,0.11,0.17,0.75
1836,-0.92,1.11,7.55,0.10,0.14,0.71
1841,-0.92,1.11,7.55,0.08,0.12,0.68
1845,-0.19,2.14,11.03,0.08,0.12,0.68
1850,0.30,1.15,11.45,0.08,0.12,0.68
1856,0.30,1.15,11.45,-0.02,0.04,0.58
1860,-0.46,1.46,11.84,-0.02,0.04,0.58
1865,-1.27,1.46,11.50,-0.02,0.04,0.58
1871,-1.27,1.46,11.50,-0.04,0.19,0.53
1876,-1.27,1.46,11.50,-0.03,0.24,0.50
1880,-3.22,1.23,8.73,-0.03,0.24,0.50
1886,-2.76,0.34,8.96,-0.03,0.24,0.50
1891,-2.76,0.34,8.96,0.01,0.26,0.45
1895,-2.87,-1.11,9.39,0.01,0.26,0.45
1900,-2.34,-0.61,10.11,0.01,0.26,0.45
1906,-2.53,-0.23,8.50,0.01,0.26,0.45
1910,-3.64,1.27,8.36,0.01,0.26,0.45
1915,-2.49,1.04,8.27,0.01,0.26,0.45
1920,-3.07,0.38,7.82,0.01,0.26,0.45
1925,-3.07,0.38,7.82,-0.03,0.07,0.23
1930,-3.07,0.38,7.82,-0.05,0.04,0.19
1935,-3.07,0.38,7.82,-0.06,0.02,0.17
1941,-3.07,0.38,7.82,-0.06,-0.01,0.17
1946,-1.30,-0.73,9.88,-0.06,-0.01,0.17
1950,-1.30,-0.73,9.88,-0.02,0.11,0.19
1955,-0.80,-0.15,10.73,-0.02,0.11,0.19
1961,-0.30,-0.80,10.53,-0.02,0.11,0.19
1965,-0.73,-1.34,10.53,-0.02,0.11,0.19
1970,-0.54,-0.04,10.99,-0.02,0.11,0.19
1976,-0.54,-0.04,10.99,0.05,0.18,0.32
1980,-0.30,-0.38,8.88,0.05,0.18,0.32
1985,-1.49,-0.77,8.85,0.05,0.18,0.32
1991,-1.15,-0.19,8.81,0.05,0.18,0.32
1995,-0.08,-1.30,8.54,0.05,0.18,0.32
2000,1.00,-1.23,9.16,0.05,0.18,0.32
2005,0.84,-1.42,8.85,0.05,0.18,0.32
2011,0.84,-1.42,8.85,0.13,-0.01,0.56
2015,2.61,-0.88,10.77,0.13,-0.01,0.56
2020,2.34,-0.34,10.88,0.13,-0.01,0.56
2026,2.49,-1.07,10.95,0.13,-0.01,0.56
2030,0.23,-0.38,9.54,0.13,-0.01,0.56
2035,-0.69,0.30,9.77,0.13,-0.01,0.56
2040,-0.88,0.96,9.54,0.13,-0.01,0.56
2046,-0.88,0.96,9.54,0.20,0.21,0.77
2050,0.00,-1.72,8.89,0.20,0.21,0.77
2055,-0.27,-2.49,8.16,0.20,0.21,0.77
2061,0.69,-2.61,9.69,0.20,0.21,0.77
2065,-0.11,-1.88,8.78,0.20,0.21,0.77
2070,-0.38,-1.15,9.08,0.20,0.21,0.77
2075,-0.84,-1.07,8.73,0.20,0.21,0.77
2081,0.38,-1.91,10.15,0.20,0.21,0.77
2085,-0.08,-2.26,10.11,0.20,0.21,0.77
2090,0.34,-2.95,11.53,0.20,0.21,0.77
2095,1.88,-3.37,12.48,0.20,0.21,0.77
2100,1.88,-3.37,12.48,0.18,0.07,0.87
2105,1.88,-3.37,12.48,0.23,0.16,0.97
2110,0.61,-1.19,11.41,0.23,0.16,0.97
2117,0.61,-1.19,11.41,0.24,0.21,0.98
2121,-0.77,-0.46,9.73,0.24,0.21,0.98
2125,-0.77,-0.46,9.73,0.25,0.23,0.96
2131,0.00,-1.27,9.65,0.25,0.23,0.96
2136,-0.57,-1.04,9.77,0.25,0.23,0.96
2140,-0.57,-1.04,9.77,0.23,0.09,1.00
2145,-0.15,-0.73,11.41,0.23,0.09,1.00
2150,-0.15,-0.73,11.41,0.19,0.07,0.98
2156,-0.15,-0.73,11.41,0.16,0.06,0.93
2162,-4.09,1.72,4.02,0.16,0.06,0.93
2165,-5.79,2.03,1.61,0.16,0.06,0.93
2170,-5.56,2.26,-0.08,0.16,0.06,0.93
2175,-8.81,2.18,-1.99,0.16,0.06,0.93
2181,-7.05,1.34,0.65,0.16,0.06,0.93
2185,1.95,-2.26,10.77,0.16,0.06,0.93
2190,6.02,-2.91,16.05,0.16,0.06,0.93
2195,9.27,-2.14,20.53,0.16,0.06,0.93
2201,10.57,-2.72,23.52,0.16,0.06,0.93
2206,6.44,1.38,21.53,0.16,0.06,0.93
2210,6.44,1.38,21.53,-0.08,0.01,0.60
2215,6.44,1.38,21.53,0.02,0.35,0.61
2220,-4.02,0.61,9.35,0.02,0.35,0.61
2225,-5.82,0.92,6.93,0.02,0.35,0.61
2231,-3.14,-2.76,5.74,0.02,0.35,0.61
2235,-2.26,-2.30,5.06,0.02,0.35,0.61
2240,-3.87,-0.04,6.09,0.02,0.35,0.61
2245,-2.11,2.22,8.81,0.02,0.35,0.61
2251,-1.80,3.14,7.89,0.02,0.35,0.61
2255,-1.95,6.13,9.23,0.02,0.35,0.61
2260,-2.57,6.47,9.42,0.02,0.35,0.61
2267,-1.38,4.45,9.38,0.02,0.35,0.61
2270,1.80,0.23,8.62,0.02,0.35,0.61
2275,0.54,0.08,8.89,0.02,0.35,0.61
2280,-0.34,-0.73,9.65,0.02,0.35,0.61
2286,0.61,-0.84,10.45,0.02,0.35,0.61
2291,-0.84,0.77,9.77,0.02,0.35,0.61
2295,-0.84,0.77,9.77,0.01,-0.07,0.46
2300,0.73,2.34,12.61,0.01,-0.07,0.46
2305,0.77,2.38,12.45,0.01,-0.07,0.46
2310,0.19,2.18,11.76,0.01,-0.07,0.46
2317,0.54,2.11,11.68,0.01,-0.07,0.46
2320,-0.34,1.99,9.69,0.01,-0.07,0.46
2325,-1.49,2.76,9.73,0.01,-0.07,0.46
2330,-1.61,3.33,8.20,0.01,-0.07,0.46
2335,-1.42,2.72,7.62,0.01,-0.07,0.46
2341,-1.61,2.22,8.88,0.01,-0.07,0.46
2346,-2.49,0.46,9.54,0.01,-0.07,0.46
2350,-2.49,0.46,9.54,-0.04,0.07,0.63
2355,-0.92,-1.11,10.04,-0.04,0.07,0.63
2361,-0.92,-1.11,10.04,-0.04,0.05,0.70
2366,-1.72,0.15,10.39,-0.04,0.05,0.70
2370,0.77,-0.69,7.82,-0.04,0.05,0.70
2375,0.88,-0.54,8.08,-0.04,0.05,0.70
2380,0.77,-1.04,7.74,-0.04,0.05,0.70
2387,0.77,-1.04,7.74,0.03,0.12,0.79
2391,4.48,-2.18,8.50,0.03,0.12,0.79
2395,3.07,-1.88,7.77,0.03,0.12,0.79
2400,-0.27,-0.08,9.08,0.03,0.12,0.79
2406,-4.83,0.88,9.46,0.03,0.12,0.79
2410,-10.54,2.84,11.91,0.03,0.12,0.79
2415,-11.49,1.95,11.72,0.03,0.12,0.79
2420,-8.58,-0.77,12.07,0.03,0.12,0.79
2426,-4.86,-3.41,11.98,0.03,0.12,0.79
2432,3.52,-5.67,9.96,0.03,0.12,0.79
2435,3.52,-5.67,9.96,-0.09,-0.15,0.68
2440,7.01,0.19,7.97,-0.09,-0.15,0.68
2445,6.24,2.68,7.85,-0.09,-0.15,0.68
2450,3.68,4.02,8.08,-0.09,-0.15,0.68
2455,1.99,3.52,9.38,-0.09,-0.15,0.68
2461,1.68,4.41,12.18,-0.09,-0.15,0.68
2466,1.80,-0.34,13.71,-0.09,-0.15,0.68
2470,1.80,-0.34,13.71,-0.01,0.56,0.84
2475,1.80,-0.34,13.71,0.04,0.62,0.94
2480,1.07,-0.96,11.26,0.04,0.62,0.94
2485,0.15,1.11,9.50,0.04,0.62,0.94
2491,-0.69,3.48,8.04,0.04,0.62,0.94
2495,1.11,5.90,7.32,0.04,0.62,0.94
2501,0.96,4.14,7.51,0.04,0.62,0.94
2505,0.96,4.14,7.51,-0.20,0.18,0.73
2510,0.27,0.23,10.15,-0.20,0.18,0.73
2515,0.61,-0.61,10.00,-0.20,0.18,0.73
2520,0.30,-0.84,11.30,-0.20,0.18,0.73
2526,-1.19,-2.03,9.96,-0.20,0.18,0.73
2530,-0.23,-0.34,9.81,-0.20,0.18,0.73
2535,0.34,-0.54,9.54,-0.20,0.18,0.73
2542,1.42,-0.34,10.00,-0.20,0.18,0.73
2545,1.61,-0.92,10.38,-0.20,0.18,0.73
2550,1.68,-0.38,10.77,-0.20,0.18,0.73
2557,1.11,0.04,9.96,-0.20,0.18,0.73
2560,-0.46,0.23,10.04,-0.20,0.18,0.73
2565,-1.88,1.46,9.50,-0.20,0.18,0.73
2570,-2.80,0.54,9.69,-0.20,0.18,0.73
2575,-2.26,1.49,9.23,-0.20,0.18,0.73
2582,-1.88,0.65,8.78,-0.20,0.18,0.73
2586,-1.30,-0.11,9.00,-0.20,0.18,0.73
2590,-1.30,-0.11,9.00,-0.21,0.23,0.57
2596,-1.30,-0.11,9.00,-0.23,0.17,0.55
2602,-1.23,-0.08,8.89,-0.23,0.17,0.55
2605,-1.23,-0.08,8.89,-0.26,0.08,0.50
2610,-1.23,-0.08,8.89,-0.26,0.11,0.47
2617,-2.22,2.07,10.91,-0.26,0.11,0.47
2622,-0.80,1.00,10.38,-0.26,0.11,0.47
2625,-0.80,1.00,10.38,-0.24,0.27,0.41
2630,-1.84,0.50,10.11,-0.24,0.27,0.41
2635,-0.27,-0.30,9.00,-0.24,0.27,0.41
2640,-0.19,-0.88,9.93,-0.24,0.27,0.41
2647,-0.19,-0.88,9.93,-0.25,0.30,0.32
2652,-3.33,0.27,9.65,-0.25,0.30,0.32
2657,-1.49,0.11,8.36,-0.25,0.30,0.32
2660,-1.49,0.11,8.36,-0.23,0.20,0.21
2665,-2.38,1.34,9.58,-0.23,0.20,0.21
2670,-0.19,0.27,9.04,-0.23,0.20,0.21
2675,-0.73,-0.46,8.35,-0.23,0.20,0.21
2681,-2.49,-0.50,9.50,-0.23,0.20,0.21
2685,-0.46,-0.42,10.19,-0.23,0.20,0.21
2692,0.15,-0.57,9.43,-0.23,0.20,0.21
2695,0.15,-0.57,9.43,-0.26,0.18,-0.11
2700,-2.68,1.72,9.61,-0.26,0.18,-0.11
2705,-0.69,1.04,9.96,-0.26,0.18,-0.11
2711,-1.49,1.30,9.04,-0.26,0.18,-0.11
2715,-1.49,1.30,9.04,-0.22,0.26,-0.19
2720,-2.26,0.42,6.66,-0.22,0.26,-0.19
2727,-0.96,0.73,6.71,-0.22,0.26,-0.19
2730,-0.96,0.73,6.71,-0.21,0.13,-0.24
2735,-0.96,0.73,6.71,-0.18,0.05,-0.23
2742,2.14,1.42,8.08,-0.18,0.05,-0.23
2745,2.14,1.42,8.08,-0.20,-0.06,-0.16
2750,1.65,2.41,12.68,-0.20,-0.06,-0.16
2755,2.41,2.26,12.18,-0.20,-0.06,-0.16
2762,2.22,1.99,11.57,-0.20,-0.06,-0.16
2765,2.22,1.99,11.57,-0.19,0.17,-0.04
2770,-0.15,1.27,9.81,-0.19,0.17,-0.04
2777,0.57,0.30,7.51,-0.19,0.17,-0.04
2780,0.57,0.30,7.51,-0.07,0.25,0.13
2786,0.34,-0.38,8.58,-0.07,0.25,0.13
2791,0.77,-0.92,8.66,-0.07,0.25,0.13
2795,0.77,-0.92,8.66,-0.04,-0.01,0.31
2800,0.77,-0.92,8.66,-0.03,-0.07,0.36
2805,0.11,-0.92,10.45,-0.03,-0.07,0.36
2812,-0.11,-0.42,9.93,-0.03,-0.07,0.36
2815,-0.11,-0.42,9.93,-0.02,-0.04,0.38
2821,1.30,-1.19,9.61,-0.02,-0.04,0.38
2827,1.04,-1.80,9.12,-0.02,-0.04,0.38
2830,1.04,-1.80,9.12,0.04,-0.03,0.50
2835,1.04,-1.80,9.12,0.04,0.00,0.54
2840,0.08,-1.57,9.39,0.04,0.00,0.54
2847,-0.11,-1.46,9.54,0.04,0.00,0.54
2850,-0.11,-1.46,9.54,0.07,0.04,0.55
2856,-0.11,-1.46,9.54,0.07,0.04,0.59
2862,0.84,-3.03,10.54,0.07,0.04,0.59
2865,0.84,-3.03,10.54,0.08,0.02,0.65
2870,0.84,-3.03,10.54,0.09,0.05,0.67
2875,-1.07,-1.30,9.89,0.09,0.05,0.67
2882,-0.80,-1.80,10.19,0.09,0.05,0.67
2885,-0.80,-1.80,10.19,0.13,0.16,0.69
2890,-1.99,-1.19,9.54,0.13,0.16,0.69
2897,-1.15,-1.42,9.93,0.13,0.16,0.69
2900,-1.15,-1.42,9.93,0.12,0.13,0.65
2906,-1.15,-1.42,9.93,0.11,0.08,0.66
2912,1.00,-2.57,10.77,0.11,0.08,0.66
2915,1.00,-2.57,10.77,0.10,0.04,0.72
2920,1.00,-2.57,10.77,0.12,0.07,0.72
2925,-1.72,0.46,6.63,0.12,0.07,0.72
2931,-3.37,1.30,5.21,0.12,0.07,0.72
2935,-3.37,1.30,5.21,0.15,0.08,0.60
2942,-3.48,1.07,5.98,0.15,0.08,0.60
2947,-3.64,0.57,7.24,0.15,0.08,0.60
2950,-3.64,0.57,7.24,0.06,-0.01,0.42
2955,-3.64,0.57,7.24,-0.02,-0.08,0.40
2960,8.31,-3.33,21.26,-0.02,-0.08,0.40
2967,9.12,-1.95,25.47,-0.02,-0.08,0.40
2970,9.12,-1.95,25.47,-0.14,-0.08,0.51
2976,9.12,-1.95,25.47,-0.09,0.09,0.63
2982,5.98,0.19,20.57,-0.09,0.09,0.63
2985,5.98,0.19,20.57,0.11,0.66,0.90
2990,5.98,0.19,20.57,0.28,0.95,1.00
2996,5.98,0.19,20.57,0.46,1.16,1.07
3002,-2.99,-1.80,7.17,0.46,1.16,1.07
3005,-2.99,-1.80,7.17,0.59,1.16,1.12
3010,-2.84,2.07,6.32,0.59,1.16,1.12
3015,-1.61,3.75,6.67,0.59,1.16,1.12
3022,-1.80,3.98,9.00,0.59,1.16,1.12
3026,-1.80,3.98,9.00,-0.01,0.27,0.82
3030,-1.30,5.17,7.77,-0.01,0.27,0.82
3037,-2.76,4.98,8.04,-0.01,0.27,0.82
3040,-2.76,4.98,8.04,-0.34,0.08,0.33
3046,-3.83,1.72,6.02,-0.34,0.08,0.33
3051,-3.64,0.80,6.20,-0.34,0.08,0.33
3055,-3.64,0.80,6.20,-0.22,0.13,0.14
3060,-3.64,0.80,6.20,-0.19,0.18,0.19
3066,-5.21,1.04,8.01,-0.19,0.18,0.19
3072,-5.21,1.04,8.01,-0.13,0.15,0.23
3076,-5.21,1.04,8.01,-0.13,0.20,0.30
3080,-5.21,1.04,8.01,-0.13,0.24,0.35
3087,-0.27,2.95,11.11,-0.13,0.24,0.35
3090,-0.27,2.95,11.11,-0.15,0.41,0.36
3096,-0.27,2.95,11.11,-0.16,0.54,0.30
3102,-1.76,2.22,9.12,-0.16,0.54,0.30
3105,-1.76,2.22,9.12,-0.16,0.64,0.17
3110,-1.76,2.22,9.12,-0.14,0.67,0.18
3116,-1.76,2.22,9.12,-0.12,0.63,0.22
3122,0.57,1.30,8.92,-0.12,0.63,0.22
3125,0.57,1.30,8.92,-0.14,0.43,0.30
3130,-1.07,2.91,8.28,-0.14,0.43,0.30
3135,-1.15,3.71,7.05,-0.14,0.43,0.30
3142,-1.91,3.33,6.29,-0.14,0.43,0.30
3146,-1.91,3.33,6.29,-0.23,0.40,0.17
3151,-1.91,3.33,6.29,-0.21,0.41,0.17
3157,-1.65,0.15,3.87,-0.21,0.41,0.17
3160,-1.65,0.15,3.87,-0.17,0.30,0.30
3166,-4.37,1.42,8.66,-0.17,0.30,0.30
3171,-6.05,2.72,9.46,-0.17,0.30,0.30
3175,-6.05,2.72,9.46,-0.25,0.23,0.21
3180,-6.05,2.72,9.46,-0.30,0.24,0.10
3186,-0.19,-1.53,14.14,-0.30,0.24,0.10
3192,4.48,-3.33,14.75,-0.30,0.24,0.10
3196,4.48,-3.33,14.75,-0.35,-0.13,0.20
3201,4.48,-3.33,14.75,-0.32,-0.23,0.35
3207,7.85,-0.15,11.57,-0.32,-0.23,0.35
3210,7.85,-0.15,11.57,-0.23,-0.16,0.59
3215,7.85,-0.15,11.57,-0.17,0.00,0.67
3221,3.33,-0.08,11.57,-0.17,0.00,0.67
3227,2.95,-1.95,12.14,-0.17,0.00,0.67
3230,2.95,-1.95,12.14,-0.06,0.33,0.82
3236,2.95,-1.95,12.14,-0.04,0.32,0.87
3242,1.49,-2.84,12.34,-0.04,0.32,0.87
3245,1.49,-2.84,12.34,-0.02,0.20,0.96
3250,1.49,-2.84,12.34,-0.04,0.10,0.95
3256,1.49,-2.84,12.34,-0.10,-0.01,0.88
3262,3.07,-0.27,5.67,-0.10,-0.01,0.88
3266,3.07,-0.27,5.67,-0.16,-0.17,0.70
3271,3.07,-0.27,5.67,-0.19,-0.21,0.63
3277,0.96,-2.57,8.70,-0.19,-0.21,0.63
3281,0.96,-2.57,8.70,-0.19,-0.21,0.56
3286,0.96,-2.57,8.70,-0.18,-0.19,0.58
3292,0.11,-2.41,12.26,-0.18,-0.19,0.58
3296,0.11,-2.41,12.26,-0.18,-0.07,0.63
3300,0.11,-2.41,12.26,-0.17,0.01,0.60
3306,-0.88,-0.88,11.38,-0.17,0.01,0.60
3312,0.15,-0.46,10.84,-0.17,0.01,0.60
3316,0.15,-0.46,10.84,-0.16,0.21,0.51
3321,0.15,-0.46,10.84,-0.14,0.27,0.56
3327,0.08,-0.38,12.34,-0.14,0.27,0.56
3330,0.08,-0.38,12.34,-0.12,0.32,0.70
3336,0.08,-0.38,12.34,-0.10,0.38,0.78
3341,-1.15,1.76,12.52,-0.10,0.38,0.78
3347,-2.30,2.57,10.07,-0.10,0.38,0.78
3350,-2.30,2.57,10.07,-0.07,0.52,0.91
3356,-2.30,2.57,10.07,-0.08,0.55,0.87
3362,-4.02,3.60,4.17,-0.08,0.55,0.87
3366,-4.02,3.60,4.17,-0.12,0.42,0.73
3370,-4.02,3.60,4.17,-0.16,0.32,0.68
3376,-4.02,3.60,4.17,-0.22,0.23,0.62
3382,-6.40,3.91,1.38,-0.22,0.23,0.62
3386,-6.40,3.91,1.38,-0.38,0.03,0.32
3390,-6.40,3.91,1.38,-0.45,0.01,0.10
3395,-6.40,3.91,1.38,-0.49,-0.04,-0.07
3400,-1.42,1.15,7.78,-0.49,-0.04,-0.07
3405,-1.42,1.15,7.78,-0.51,-0.12,-0.24
3412,2.22,-4.29,10.65,-0.51,-0.12,-0.24
3417,3.87,-0.30,13.21,-0.51,-0.12,-0.24
3421,3.87,-0.30,13.21,-0.61,-0.16,-0.28
3426,3.87,-0.30,13.21,-0.55,-0.07,-0.26
3432,1.76,0.04,13.83,-0.55,-0.07,-0.26
3436,1.76,0.04,13.83,-0.44,0.23,-0.15
3441,1.76,0.04,13.83,-0.39,0.39,-0.10
3447,-1.76,-0.19,8.82,-0.39,0.39,-0.10
3450,-1.76,-0.19,8.82,-0.21,0.57,-0.02
3455,-1.76,-0.19,8.82,-0.16,0.58,0.02
3461,-1.76,-0.19,8.82,-0.16,0.48,0.04
3467,-1.11,-0.04,7.09,-0.16,0.48,0.04
3470,-1.11,-0.04,7.09,-0.25,0.16,0.00
3476,-1.11,-0.04,7.09,-0.31,-0.01,-0.06
3482,4.02,2.07,7.05,-0.31,-0.01,-0.06
3486,4.02,2.07,7.05,-0.48,-0.27,-0.18
3491,4.02,2.07,7.05,-0.50,-0.28,-0.19
3496,4.02,2.07,7.05,-0.52,-0.25,-0.16
3502,6.82,0.04,15.62,-0.52,-0.25,-0.16
3506,6.82,0.04,15.62,-0.48,-0.06,0.00
3510,6.82,0.04,15.62,-0.42,0.14,0.08
3516,6.82,0.04,15.62,-0.33,0.31,0.15
3522,-0.38,-1.15,11.11,-0.33,0.31,0.15
3526,-0.38,-1.15,11.11,-0.14,0.51,0.27
3531,-0.38,-1.15,11.11,-0.09,0.51,0.31
3537,-2.18,0.00,7.16,-0.09,0.51,0.31
3540,-2.18,0.00,7.16,-0.09,0.24,0.35
3546,-2.18,0.00,7.16,-0.17,0.05,0.35
3552,-2.45,2.76,6.21,-0.17,0.05,0.35
3556,-2.45,2.76,6.21,-0.28,-0.17,0.30
3561,-2.45,2.76,6.21,-0.28,-0.21,0.23
3566,-3.52,1.99,5.17,-0.28,-0.21,0.23
3572,-3.48,0.84,5.67,-0.28,-0.21,0.23
3576,-3.48,0.84,5.67,-0.36,-0.29,0.05
3581,-3.48,0.84,5.67,-0.39,-0.33,0.05
3587,2.72,0.11,9.50,-0.39,-0.33,0.05
3590,2.72,0.11,9.50,-0.44,-0.44,0.04
3596,2.72,0.11,9.50,-0.45,-0.44,0.01
3601,4.21,-0.23,9.77,-0.45,-0.44,0.01
3607,3.26,-0.42,10.39,-0.45,-0.44,0.01
3610,3.26,-0.42,10.39,-0.37,-0.12,0.01
3616,3.26,-0.42,10.39,-0.31,0.05,0.04
3622,0.38,-1.04,10.49,-0.31,0.05,0.04
3626,0.38,-1.04,10.49,-0.24,0.28,0.08
3631,0.38,-1.04,10.49,-0.23,0.32,0.07
3636,0.38,-1.04,10.49,-0.21,0.32,0.05
3642,-1.15,-0.65,7.81,-0.21,0.32,0.05
3646,-1.15,-0.65,7.81,-0.21,0.25,-0.02
3650,-1.15,-0.65,7.81,-0.20,0.23,-0.05
3657,-4.02,-0.84,8.81,-0.20,0.23,-0.05
3660,-4.02,-0.84,8.81,-0.21,0.19,-0.15
3666,-4.02,-0.84,8.81,-0.21,0.16,-0.20
3672,-3.41,-2.64,9.35,-0.21,0.16,-0.20
3676,-3.41,-2.64,9.35,-0.19,0.06,-0.28
3681,-3.41,-2.64,9.35,-0.19,0.02,-0.31
3686,-3.41,-2.64,9.35,-0.17,-0.05,-0.32
3692,0.50,-1.61,6.82,-0.17,-0.05,-0.32
3696,0.50,-1.61,6.82,-0.22,-0.26,-0.34
3701,0.50,-1.61,6.82,-0.24,-0.35,-0.33
3707,3.48,-0.46,13.45,-0.24,-0.35,-0.33
3710,3.48,-0.46,13.45,-0.20,-0.19,-0.24
3716,3.48,-0.46,13.45,-0.14,0.09,-0.21
3721,3.48,-0.46,13.45,-0.07,0.39,-0.23
3727,-7.70,0.61,12.49,-0.07,0.39,-0.23
3731,-7.70,0.61,12.49,0.06,0.66,-0.25
3736,-7.70,0.61,12.49,0.10,0.55,-0.21
3742,2.80,-1.91,10.38,0.10,0.55,-0.21
3746,2.80,-1.91,10.38,0.08,0.03,-0.03
3751,2.80,-1.91,10.38,0.02,-0.24,0.04
3756,2.80,-1.91,10.38,-0.04,-0.37,0.07
3762,2.41,3.37,11.41,-0.04,-0.37,0.07
3765,2.41,3.37,11.41,-0.14,-0.30,-0.01
3770,2.41,3.37,11.41,-0.16,-0.16,-0.05
3777,2.41,3.37,11.41,-0.15,-0.04,-0.04
3781,2.41,3.37,11.41,-0.12,0.00,0.02
3786,2.41,3.37,11.41,-0.10,0.01,0.08
3791,-0.30,-1.19,10.88,-0.10,0.01,0.08
3797,0.96,-0.57,7.59,-0.10,0.01,0.08
3800,0.96,-0.57,7.59,0.01,0.17,0.11
3806,0.96,-0.57,7.59,0.01,0.24,0.12
3812,-4.06,2.07,4.55,0.01,0.24,0.12
3816,-4.06,2.07,4.55,-0.05,0.24,0.08
3821,-4.06,2.07,4.55,-0.09,0.20,0.04
3827,-6.47,-1.42,8.01,-0.09,0.20,0.04
3830,-6.47,-1.42,8.01,-0.09,0.07,0.04
3836,-6.47,-1.42,8.01,-0.08,-0.03,0.11
3841,-6.47,-1.42,8.01,-0.06,-0.14,0.19
3847,-0.23,-2.41,7.09,-0.06,-0.14,0.19
3851,-0.23,-2.41,7.09,-0.06,-0.33,0.27
3856,-0.23,-2.41,7.09,-0.05,-0.34,0.26
3862,-2.18,-0.11,6.62,-0.05,-0.34,0.26
3866,-2.18,-0.11,6.62,0.03,-0.16,0.24
3871,-2.18,-0.11,6.62,0.02,-0.02,0.27
3876,-2.18,-0.11,6.62,0.04,0.07,0.32
3882,-4.21,0.00,8.88,0.04,0.07,0.32
3886,-4.21,0.00,8.88,0.04,0.15,0.37
3890,-4.21,0.00,8.88,0.02,0.12,0.37
3895,-4.21,0.00,8.88,0.02,0.09,0.37
3902,2.87,0.69,14.25,0.02,0.09,0.37
3906,2.87,0.69,14.25,-0.01,0.03,0.40
3911,5.29,0.46,14.25,-0.01,0.03,0.40
3917,-0.19,-0.46,11.61,-0.01,0.03,0.40
3921,-0.19,-0.46,11.61,-0.07,0.21,0.40
3926,-0.19,-0.46,11.61,-0.05,0.40,0.34
3932,-5.02,-2.14,9.61,-0.05,0.40,0.34
3936,-5.02,-2.14,9.61,0.05,0.56,0.36
3941,-5.02,-2.14,9.61,0.03,0.42,0.41
3946,-5.02,-2.14,9.61,0.04,0.18,0.46
3951,0.65,-1.68,7.51,0.04,0.18,0.46
3956,0.65,-1.68,7.51,-0.07,-0.23,0.43
3961,0.65,-1.68,7.51,-0.13,-0.31,0.38
3966,3.03,-0.11,10.00,-0.13,-0.31,0.38
3971,3.03,-0.11,10.00,-0.17,-0.27,0.32
3976,3.03,-0.11,10.00,-0.14,-0.18,0.35
3981,3.03,-0.11,10.00,-0.11,-0.09,0.40
3987,-3.37,-0.69,9.46,-0.11,-0.09,0.40
3991,-3.37,-0.69,9.46,-0.06,0.03,0.45
3996,-3.37,-0.69,9.46,-0.03,-0.00,0.41
4002,3.37,-1.95,11.22,-0.03,-0.00,0.41
4006,3.37,-1.95,11.22,-0.03,-0.20,0.38
4011,3.37,-1.95,11.22,-0.04,-0.24,0.43
4016,3.37,-1.95,11.22,-0.06,-0.21,0.47
4021,3.64,0.69,10.69,-0.06,-0.21,0.47
4026,3.64,0.69,10.69,-0.14,-0.16,0.41
4031,3.64,0.69,10.69,-0.12,-0.15,0.38
4037,0.50,-1.42,9.77,-0.12,-0.15,0.38
4041,0.50,-1.42,9.77,-0.05,-0.01,0.41
4046,0.50,-1.42,9.77,0.00,0.03,0.41
4050,0.50,-1.42,9.77,0.01,0.03,0.41
4056,0.50,-1.07,7.31,0.01,0.03,0.41
4061,0.50,-1.07,7.31,-0.00,-0.04,0.40
4066,0.50,-1.07,7.31,-0.02,-0.10,0.41
4071,4.37,0.57,15.75,-0.02,-0.10,0.41
4076,4.37,0.57,15.75,-0.11,-0.11,0.49
4081,4.37,0.57,15.75,-0.13,-0.02,0.54
4086,4.37,0.57,15.75,-0.13,0.13,0.58
4091,4.37,0.57,15.75,-0.10,0.26,0.59
4096,4.37,0.57,15.75,-0.09,0.31,0.58
4101,4.37,0.57,15.75,-0.05,0.30,0.59
4106,-1.46,-0.23,5.02,-0.05,0.30,0.59
4110,-1.46,-0.23,5.02,-0.05,0.18,0.73
4115,-1.46,-0.23,5.02,-0.04,0.13,0.77
4120,-1.46,-0.23,5.02,-0.11,0.13,0.71
4126,-6.86,1.49,7.70,-0.11,0.13,0.71
4131,-6.86,1.49,7.70,-0.19,0.11,0.46
4136,-6.86,1.49,7.70,-0.21,0.10,0.36
4142,-3.29,0.11,9.54,-0.21,0.10,0.36
4146,-3.29,0.11,9.54,-0.30,0.00,0.31
4151,-3.29,0.11,9.54,-0.34,-0.06,0.30
4157,-3.29,0.11,9.54,-0.36,-0.11,0.24
4161,-3.29,0.11,9.54,-0.36,-0.15,0.16
4166,-3.29,0.11,9.54,-0.33,-0.16,0.12
4171,-3.29,0.11,9.54,-0.31,-0.09,0.12
4176,-3.98,-1.19,10.45,-0.31,-0.09,0.12
4181,-3.98,-1.19,10.45,-0.26,0.16,0.09
4186,-3.98,-1.19,10.45,-0.21,0.24,0.05
4192,-3.98,-1.19,10.45,-0.18,0.30,-0.00
4196,-3.98,-1.19,10.45,-0.18,0.32,-0.03
4201,-3.98,-1.19,10.45,-0.18,0.27,-0.05
4206,-3.98,-1.19,10.45,-0.20,0.21,-0.09
4211,-3.98,-1.19,10.45,-0.22,0.16,-0.17
4216,-3.98,-1.19,10.45,-0.25,0.07,-0.24
4221,-3.98,-1.19,10.45,-0.28,-0.05,-0.28
4226,2.22,-0.46,11.30,-0.28,-0.05,-0.28
4231,2.22,-0.46,11.30,-0.30,-0.08,-0.25
4236,2.22,-0.46,11.30,-0.25,0.02,-0.21
4241,2.22,-0.46,11.30,-0.21,0.18,-0.19
4246,2.22,-0.46,11.30,-0.18,0.36,-0.21
4251,2.22,-0.46,11.30,-0.16,0.41,-0.24
4256,2.22,-0.46,11.30,-0.18,0.38,-0.26
4262,0.04,0.73,9.92,-0.18,0.38,-0.26
4266,0.04,0.73,9.92,-0.25,0.11,-0.22
4271,0.04,0.73,9.92,-0.25,-0.04,-0.15
4277,0.04,0.73,9.92,-0.28,-0.13,-0.09
4281,0.04,0.73,9.92,-0.27,-0.16,-0.05
4286,0.04,0.73,9.92,-0.26,-0.11,-0.05
4291,0.04,0.73,9.92,-0.23,-0.01,-0.05
4297,0.04,0.73,9.92,-0.20,0.05,-0.03
4301,0.04,0.73,9.92,-0.17,0.08,0.02
4306,0.04,0.73,9.92,-0.16,0.04,0.05
4312,0.04,0.73,9.92,-0.13,-0.06,0.07
4316,0.04,0.73,9.92,-0.12,-0.13,0.11
4321,0.04,0.73,9.92,-0.11,-0.15,0.14
4326,0.04,0.73,9.92,-0.12,-0.13,0.16
4332,1.11,-1.07,10.53,-0.12,-0.13,0.16
4336,1.11,-1.07,10.53,-0.13,-0.01,0.13
4341,1.11,-1.07,10.53,-0.13,0.03,0.11
4346,1.11,-1.07,10.53,-0.11,0.06,0.10
4351,1.11,-1.07,10.53,-0.09,0.08,0.12
4356,1.11,-1.07,10.53,-0.09,0.07,0.13
4361,1.11,-1.07,10.53,-0.07,0.04,0.14
4366,0.92,-2.34,9.54,-0.07,0.04,0.14
4371,0.92,-2.34,9.54,-0.08,-0.01,0.14
4376,0.92,-2.34,9.54,-0.08,-0.06,0.16
4381,0.92,-2.34,9.54,-0.07,-0.10,0.20
4386,0.92,-2.34,9.54,-0.06,-0.11,0.22
4391,0.92,-2.34,9.54,-0.06,-0.10,0.23
4396,0.92,-2.34,9.54,-0.05,-0.07,0.23
4401,0.23,-1.27,10.80,-0.05,-0.07,0.23
4406,0.23,-1.27,10.80,-0.05,-0.04,0.25
4411,0.23,-1.27,10.80,-0.05,-0.02,0.28
4416,0.23,-1.27,10.80,-0.05,0.02,0.30
4421,0.23,-1.27,10.80,-0.05,0.05,0.30
4426,0.23,-1.27,10.80,-0.03,0.10,0.30
4430,0.23,-1.27,10.80,-0.06,0.12,0.29
4436,-1.11,-0.08,8.39,-0.06,0.12,0.29
4441,-1.11,-0.08,8.39,-0.10,0.04,0.28
4446,-1.11,-0.08,8.39,-0.12,0.01,0.26
4451,-1.11,-0.08,8.39,-0.12,-0.01,0.24
4456,-1.11,-0.08,8.39,-0.12,-0.01,0.24
4461,-1.11,-0.08,8.39,-0.10,0.02,0.24
4466,-1.11,-0.08,8.39,-0.10,0.05,0.24
4471,-1.11,-0.08,8.39,-0.12,0.03,0.23
4476,-1.11,-0.08,8.39,-0.12,-0.02,0.21
4481,-1.11,-0.08,8.39,-0.14,-0.02,0.17
4487,-3.18,1.15,7.39,-0.14,-0.02,0.17
4491,-3.18,1.15,7.39,-0.13,0.13,0.09
4496,-3.18,1.15,7.39,-0.17,0.21,0.05
4501,-3.18,1.15,7.39,-0.17,0.22,0.03
4506,-3.18,1.15,7.39,-0.19,0.18,0.01
4511,-3.18,1.15,7.39,-0.23,0.09,-0.02
4516,-3.18,1.15,7.39,-0.27,-0.04,-0.06
4522,0.84,1.53,11.00,-0.27,-0.04,-0.06
4526,0.84,1.53,11.00,-0.31,-0.23,-0.15
4531,0.84,1.53,11.00,-0.31,-0.22,-0.18
4536,0.84,1.53,11.00,-0.30,-0.18,-0.19
4541,0.84,1.53,11.00,-0.30,-0.06,-0.19
4546,0.84,1.53,11.00,-0.29,0.07,-0.18
4551,0.84,1.53,11.00,-0.30,0.19,-0.18
4557,-5.13,3.83,9.46,-0.30,0.19,-0.18
4561,-5.13,3.83,9.46,-0.30,0.32,-0.27
4566,-5.13,3.83,9.46,-0.31,0.26,-0.31
4571,-5.13,3.83,9.46,-0.32,0.17,-0.32
4576,-5.13,3.83,9.46,-0.34,0.08,-0.33
4581,-5.13,3.83,9.46,-0.34,0.01,-0.34
4585,-5.13,3.83,9.46,-0.37,-0.05,-0.34
4591,1.76,1.99,10.65,-0.37,-0.05,-0.34
4596,1.76,1.99,10.65,-0.38,-0.09,-0.42
4601,1.76,1.99,10.65,-0.42,-0.04,-0.46
4606,1.76,1.99,10.65,-0.42,0.01,-0.50
4611,1.76,1.99,10.65,-0.45,0.06,-0.54
4616,1.76,1.99,10.65,-0.45,0.11,-0.59
4620,1.76,1.99,10.65,-0.46,0.13,-0.64
4626,-0.42,1.68,6.93,-0.46,0.13,-0.64
4631,-0.42,1.68,6.93,-0.45,0.04,-0.71
4636,-0.42,1.68,6.93,-0.44,0.01,-0.73
4641,-0.42,1.68,6.93,-0.45,-0.05,-0.75
4646,-0.42,1.68,6.93,-0.47,-0.10,-0.77
4651,-0.42,1.68,6.93,-0.49,-0.15,-0.82
4655,-0.42,1.68,6.93,-0.49,-0.20,-0.85
4662,2.53,-0.77,10.23,-0.49,-0.20,-0.85
4666,2.53,-0.77,10.23,-0.44,-0.22,-0.81
4671,2.53,-0.77,10.23,-0.43,-0.16,-0.77
4677,2.53,-0.77,10.23,-0.37,-0.05,-0.73
4681,2.53,-0.77,10.23,-0.37,0.09,-0.72
4686,2.53,-0.77,10.23,-0.31,0.17,-0.73
4690,2.53,-0.77,10.23,-0.25,0.19,-0.71
4695,1.11,-0.54,9.81,-0.25,0.19,-0.71
4701,1.11,-0.54,9.81,-0.24,0.19,-0.64
4707,1.11,-0.54,9.81,-0.23,0.16,-0.56
4711,1.11,-0.54,9.81,-0.24,0.10,-0.53
4716,1.11,-0.54,9.81,-0.25,0.08,-0.55
4721,1.11,-0.54,9.81,-0.22,0.02,-0.50
4725,1.11,-0.54,9.81,-0.20,-0.03,-0.39
4731,1.46,-1.07,8.62,-0.20,-0.03,-0.39
4736,1.46,-1.07,8.62,-0.17,-0.03,-0.21
4741,1.46,-1.07,8.62,-0.15,0.02,-0.22
4746,1.46,-1.07,8.62,-0.13,0.08,-0.23
4751,1.46,-1.07,8.62,-0.12,0.12,-0.20
4756,1.46,-1.07,8.62,-0.10,0.14,-0.13
4760,1.46,-1.07,8.62,-0.08,0.15,-0.04
4766,-1.57,-2.11,10.57,-0.08,0.15,-0.04
4771,-1.57,-2.11,10.57,-0.01,0.16,0.06
4775,-1.57,-2.11,10.57,0.01,0.17,0.07
4781,0.69,-1.49,7.47,0.01,0.17,0.07
4786,0.69,-1.49,7.47,0.04,0.00,0.10
4791,0.69,-1.49,7.47,0.04,-0.12,0.13
4795,0.69,-1.49,7.47,0.04,-0.19,0.18
4801,-2.68,-2.07,11.53,0.04,-0.19,0.18
4806,-2.68,-2.07,11.53,0.07,-0.10,0.19
4810,-2.68,-2.07,11.53,0.09,0.01,0.17
4816,-2.91,-2.95,10.57,0.09,0.01,0.17
4821,-2.91,-2.95,10.57,0.10,0.16,0.21
4826,-2.91,-2.95,10.57,0.07,0.14,0.23
4830,-2.91,-2.95,10.57,0.07,0.12,0.22
4837,-1.34,-1.91,5.40,0.07,0.12,0.22
4841,-1.34,-1.91,5.40,0.03,0.01,0.12
4845,-1.34,-1.91,5.40,0.02,-0.14,0.12
4851,1.38,-3.18,7.93,0.02,-0.14,0.12
4856,1.38,-3.18,7.93,0.00,-0.29,0.15
4861,1.38,-3.18,7.93,0.02,-0.23,0.15
4866,1.38,-3.18,7.93,0.08,-0.09,0.12
4871,-2.72,-1.07,9.35,0.08,-0.09,0.12
4876,-2.72,-1.07,9.35,0.10,0.22,0.04
4880,-2.72,-1.07,9.35,0.11,0.27,-0.01
4886,-0.11,-1.07,7.97,0.11,0.27,-0.01
4891,-0.11,-1.07,7.97,0.06,0.12,-0.04
4896,-0.11,-1.07,7.97,0.03,0.01,-0.04
4901,-0.11,-1.07,7.97,-0.00,-0.05,-0.07
4906,0.84,-0.08,9.39,-0.00,-0.05,-0.07
4911,0.84,-0.08,9.39,-0.01,-0.08,-0.13
4915,0.84,-0.08,9.39,-0.02,0.00,-0.14
4921,-3.14,0.88,9.16,-0.02,0.00,-0.14
4926,-3.14,0.88,9.16,-0.01,0.13,-0.20
4830,-2.91,-2.95,10.57,0.07,0.12,0.22
4837,-1.34,-1.91,5.40,0.07,0.12,0.22
4841,-1.34,-1.91,5.40,0.03,0.01,0.12
4845,-1.34,-1.91,5.40,0.02,-0.14,0.12
4851,1.38,-3.18,7.93,0.02,-0.14,0.12
4856,1.38,-3.18,7.93,0.00,-0.29,0.15
4861,1.38,-3.18,7.93,0.02,-0.23,0.15
4866,1.38,-3.18,7.93,0.08,-0.09,0.12
4871,-2.72,-1.07,9.35,0.08,-0.09,0.12
4876,-2.72,-1.07,9.35,0.10,0.22,0.04
4880,-2.72,-1.07,9.35,0.11,0.27,-0.01
4886,-0.11,-1.07,7.97,0.11,0.27,-0.01
4891,-0.11,-1.07,7.97,0.06,0.12,-0.04
4896,-0.11,-1.07,7.97,0.03,0.01,-0.04
4901,-0.11,-1.07,7.97,-0.00,-0.05,-0.07
