timestamp,accX,accY,accZ,gyroX,gyroY,gyroZ
Left
6,-3.64,-0.19,7.05,-0.09,-0.10,0.03
18,-3.18,-0.50,5.56,-0.09,-0.10,0.03
20,-3.18,-0.50,5.56,-0.17,-0.10,-0.50
22,1.91,0.38,12.48,-0.17,-0.10,-0.50
26,1.91,0.38,12.48,-0.21,-0.14,-0.49
31,2.41,0.08,16.51,-0.21,-0.14,-0.49
36,2.41,0.08,16.51,-0.25,-0.12,-0.47
41,2.41,0.08,16.51,-0.26,-0.09,-0.44
47,2.41,0.08,16.51,-0.24,-0.02,-0.38
51,2.41,0.08,16.51,-0.17,0.11,-0.30
57,2.41,0.08,16.51,-0.10,0.25,-0.22
61,2.41,0.08,16.51,-0.01,0.35,-0.18
66,2.41,0.08,16.51,0.05,0.39,-0.16
71,2.41,0.08,16.51,0.13,0.39,-0.13
77,2.41,0.08,16.51,0.19,0.34,-0.10
82,2.41,0.08,16.51,0.15,0.23,-0.10
86,-5.44,0.88,7.97,0.15,0.23,-0.10
91,-5.44,0.88,7.97,0.00,-0.06,-0.22
97,-1.80,0.84,9.61,0.00,-0.06,-0.22
102,-1.80,0.84,9.61,-0.18,-0.34,-0.39
106,1.76,-0.65,10.57,-0.18,-0.34,-0.39
112,1.76,-0.65,10.57,-0.24,-0.52,-0.41
117,1.76,-0.65,10.57,-0.23,-0.46,-0.37
121,6.47,-1.84,10.88,-0.23,-0.46,-0.37
126,6.47,-1.84,10.88,-0.13,-0.35,-0.30
132,4.33,-2.18,11.07,-0.13,-0.35,-0.30
136,4.33,-2.18,11.07,-0.06,-0.20,-0.15
141,4.33,-2.18,11.07,0.03,-0.05,-0.04
147,4.33,-2.18,11.07,0.03,0.13,0.00
151,4.33,-2.18,11.07,0.09,0.28,0.00
156,4.33,-2.18,11.07,0.11,0.38,-0.02
161,4.33,-2.18,11.07,0.14,0.42,-0.05
167,4.33,-2.18,11.07,0.14,0.39,-0.07
171,4.33,-2.18,11.07,0.12,0.27,-0.08
176,4.33,-2.18,11.07,0.11,0.08,-0.10
182,4.33,-2.18,11.07,0.06,-0.12,-0.12
187,4.33,-2.18,11.07,0.03,-0.25,-0.16
191,0.65,0.34,8.66,0.03,-0.25,-0.16
196,0.04,0.80,9.58,0.03,-0.25,-0.16
201,0.04,0.80,9.58,-0.05,-0.23,-0.27
207,0.04,0.80,9.58,-0.07,-0.13,-0.28
212,0.04,0.80,9.58,-0.09,-0.03,-0.29
217,-0.19,-0.46,12.48,-0.09,-0.03,-0.29
221,0.88,-1.27,11.46,-0.09,-0.03,-0.29
226,0.34,-0.77,9.88,-0.09,-0.03,-0.29
232,0.34,-0.77,9.88,0.03,0.30,-0.19
237,0.34,-0.77,9.88,0.05,0.28,-0.16
241,-2.11,-1.00,7.21,0.05,0.28,-0.16
246,-2.57,-0.65,8.01,0.05,0.28,-0.16
252,-2.57,-0.65,8.01,0.12,0.13,-0.14
256,-1.76,0.19,9.16,0.12,0.13,-0.14
261,-2.61,-0.08,8.92,0.12,0.13,-0.14
267,-2.61,-0.08,8.92,0.05,-0.06,-0.22
272,-2.61,-0.08,8.92,0.04,-0.08,-0.22
276,0.04,0.50,9.16,0.04,-0.08,-0.22
281,0.61,-0.77,12.79,0.04,-0.08,-0.22
287,0.61,-0.77,12.79,-0.02,-0.03,-0.27
292,0.61,-0.77,12.79,-0.04,0.01,-0.27
296,-2.34,0.30,8.54,-0.04,0.01,-0.27
301,-2.72,0.27,6.74,-0.04,0.01,-0.27
307,-2.72,0.27,6.74,0.08,0.24,-0.24
312,-2.72,0.27,6.74,0.10,0.26,-0.27
317,-5.32,-0.04,4.37,0.10,0.26,-0.27
321,-3.68,1.19,4.41,0.10,0.26,-0.27
326,-3.68,1.19,4.41,0.12,0.12,-0.37
332,-3.68,1.19,4.41,0.06,-0.01,-0.42
337,-2.76,0.80,8.42,0.06,-0.01,-0.42
341,0.46,0.30,11.11,0.06,-0.01,-0.42
346,1.88,0.11,12.64,0.06,-0.01,-0.42
352,1.88,0.11,12.64,-0.14,-0.32,-0.60
357,1.88,0.11,12.64,-0.14,-0.31,-0.59
361,-0.42,0.11,10.61,-0.14,-0.31,-0.59
366,-0.04,-0.04,6.51,-0.14,-0.31,-0.59
372,-0.04,-0.04,6.51,0.02,0.07,-0.45
377,-0.04,-0.04,6.51,0.10,0.11,-0.46
381,2.22,-1.72,7.47,0.10,0.11,-0.46
386,1.27,-0.88,8.54,0.10,0.11,-0.46
392,1.27,-0.88,8.54,0.13,-0.01,-0.38
396,1.34,2.07,13.03,0.13,-0.01,-0.38
401,0.23,1.65,13.25,0.13,-0.01,-0.38
406,0.73,1.15,13.41,0.13,-0.01,-0.38
412,0.73,1.15,13.41,0.00,0.19,-0.51
416,1.34,-1.23,9.69,0.00,0.19,-0.51
421,-0.23,-1.38,8.62,0.00,0.19,-0.51
427,-0.23,-1.38,8.62,0.03,0.12,-0.54
432,-0.23,-1.38,8.62,0.05,0.07,-0.55
436,-1.34,-0.54,6.97,0.05,0.07,-0.55
441,-1.27,-0.34,7.74,0.05,0.07,-0.55
446,-1.27,-0.34,7.74,0.09,-0.13,-0.59
451,-1.27,-0.34,7.74,0.04,-0.16,-0.58
457,-1.27,-0.34,7.74,-0.02,-0.18,-0.55
462,-1.27,-0.34,7.74,-0.02,-0.12,-0.50
466,4.41,-0.69,14.06,-0.02,-0.12,-0.50
471,4.02,-1.68,12.61,-0.02,-0.12,-0.50
477,4.02,-1.68,12.61,0.04,0.12,-0.36
482,4.02,-1.68,12.61,0.11,0.19,-0.34
486,-4.60,-1.99,5.56,0.11,0.19,-0.34
491,-5.48,-2.14,5.55,0.11,0.19,-0.34
496,-5.48,-2.14,5.55,0.37,0.25,-0.26
501,-5.48,-2.14,5.55,0.37,0.17,-0.30
507,-5.48,-2.14,5.55,0.32,0.07,-0.33
512,-5.48,-2.14,5.55,0.23,-0.06,-0.36
516,1.76,-0.42,10.77,0.23,-0.06,-0.36
521,1.27,-0.42,11.19,0.23,-0.06,-0.36
527,1.27,-0.42,11.19,0.05,-0.32,-0.42
532,1.27,-0.42,11.19,0.08,-0.25,-0.39
536,-0.77,-1.11,7.97,0.08,-0.25,-0.39
541,-1.00,-1.46,8.42,0.08,-0.25,-0.39
547,-1.00,-1.46,8.42,0.21,-0.07,-0.40
551,-1.23,-1.49,8.82,0.21,-0.07,-0.40
556,-1.42,-1.84,9.20,0.21,-0.07,-0.40
561,-1.42,-1.84,9.20,0.31,-0.04,-0.19
567,-1.42,-1.84,9.20,0.33,-0.04,-0.17
572,-1.42,-1.84,9.20,0.31,-0.03,-0.15
577,-0.88,-1.27,9.61,0.31,-0.03,-0.15
581,-2.49,-2.30,8.54,0.31,-0.03,-0.15
586,-2.91,-2.87,7.97,0.31,-0.03,-0.15
591,-2.91,-2.87,7.97,0.37,0.06,-0.12
597,-2.91,-2.87,7.97,0.38,0.00,-0.10
602,-2.91,-2.87,7.97,0.38,-0.12,-0.07
606,-2.91,-2.87,7.97,0.39,-0.27,0.04
611,0.57,-2.03,9.69,0.39,-0.27,0.04
616,0.57,-2.03,9.69,0.37,-0.27,0.06
621,0.57,-2.03,9.69,0.37,-0.26,0.08
626,0.57,-2.03,9.69,0.34,-0.19,0.11
632,0.57,-2.03,9.69,0.40,-0.04,0.19
636,-1.99,-2.41,10.80,0.40,-0.04,0.19
641,-2.03,-1.68,9.92,0.40,-0.04,0.19
647,-2.03,-1.68,9.92,0.56,0.37,0.28
652,-2.03,-1.68,9.92,0.58,0.37,0.29
656,-1.91,-2.30,6.55,0.58,0.37,0.29
661,-2.11,-2.57,6.63,0.58,0.37,0.29
667,-1.07,-1.65,7.09,0.58,0.37,0.29
671,1.49,-2.14,7.89,0.58,0.37,0.29
676,-1.19,-1.84,8.08,0.58,0.37,0.29
681,-1.19,-1.84,8.08,0.45,-0.22,0.37
687,-1.19,-1.84,8.08,0.45,-0.18,0.39
691,-4.71,-1.15,9.88,0.45,-0.18,0.39
696,-5.40,-1.23,10.61,0.45,-0.18,0.39
701,-1.27,-2.22,12.26,0.45,-0.18,0.39
707,-1.27,-2.22,12.26,0.52,0.03,0.40
711,-1.27,-2.45,9.16,0.52,0.03,0.40
716,5.25,-0.54,12.83,0.52,0.03,0.40
722,5.25,-0.54,12.83,0.53,-0.11,0.65
726,0.92,-2.38,11.11,0.53,-0.11,0.65
731,-3.10,-3.10,8.16,0.53,-0.11,0.65
737,-4.41,-3.95,7.20,0.53,-0.11,0.65
741,-3.26,-3.56,7.59,0.53,-0.11,0.65
746,-6.74,-2.38,8.01,0.53,-0.11,0.65
751,-8.43,-0.77,8.66,0.53,-0.11,0.65
756,-8.43,-0.77,8.66,0.79,0.28,0.99
762,-8.43,-0.77,8.66,0.71,0.19,1.04
766,-1.42,-1.11,7.74,0.71,0.19,1.04
772,-1.34,-1.72,8.54,0.71,0.19,1.04
776,1.84,-2.64,7.31,0.71,0.19,1.04
781,5.44,-2.68,9.38,0.71,0.19,1.04
786,5.40,-3.71,8.73,0.71,0.19,1.04
792,5.40,-3.71,8.73,0.44,-0.64,1.04
796,1.00,-2.53,10.00,0.44,-0.64,1.04
801,-1.27,-2.11,10.57,0.44,-0.64,1.04
807,-1.19,-3.10,11.38,0.44,-0.64,1.04
811,-0.77,-3.75,11.49,0.44,-0.64,1.04
816,-0.04,-3.56,11.54,0.44,-0.64,1.04
821,1.46,-4.56,11.22,0.44,-0.64,1.04
826,2.87,-3.48,10.46,0.44,-0.64,1.04
831,2.87,-3.48,10.46,0.58,-0.03,1.15
836,2.87,-3.48,10.46,0.56,-0.10,1.17
842,2.87,-3.48,10.46,0.55,-0.12,1.15
847,2.87,-3.48,10.46,0.57,-0.10,1.12
851,2.87,-3.48,10.46,0.55,-0.01,1.03
856,-3.07,1.27,8.16,0.55,-0.01,1.03
861,-2.11,0.57,10.54,0.55,-0.01,1.03
866,0.61,-0.73,11.49,0.55,-0.01,1.03
871,0.88,-0.84,11.60,0.55,-0.01,1.03
877,0.88,-0.84,11.60,0.37,-0.12,0.96
881,1.38,-0.42,9.81,0.37,-0.12,0.96
886,2.72,0.34,9.38,0.37,-0.12,0.96
892,1.61,0.88,8.36,0.37,-0.12,0.96
896,-0.96,0.27,7.27,0.37,-0.12,0.96
901,-1.68,-0.69,7.23,0.37,-0.12,0.96
907,-1.68,-0.69,7.23,0.31,-0.04,0.72
912,-1.68,-0.69,7.23,0.34,-0.02,0.68
916,-0.65,-1.42,10.49,0.34,-0.02,0.68
921,-1.15,-0.92,10.77,0.34,-0.02,0.68
927,-0.77,0.11,11.72,0.34,-0.02,0.68
932,0.30,0.30,12.14,0.34,-0.02,0.68
936,0.30,0.30,12.14,0.15,-0.12,0.44
941,5.48,-0.54,20.53,0.15,-0.12,0.44
947,6.21,-1.27,20.11,0.15,-0.12,0.44
951,5.63,-0.61,17.43,0.15,-0.12,0.44
956,3.91,-1.27,14.59,0.15,-0.12,0.44
961,4.86,-3.03,15.63,0.15,-0.12,0.44
967,4.86,-3.03,15.63,0.29,0.24,0.78
972,-2.26,0.23,7.39,0.29,0.24,0.78
976,-6.86,2.14,3.22,0.29,0.24,0.78
981,-7.16,0.65,3.03,0.29,0.24,0.78
986,-7.97,2.41,2.07,0.29,0.24,0.78
991,-8.08,1.23,2.53,0.29,0.24,0.78
997,-7.55,1.23,2.53,0.29,0.24,0.78
1002,-4.98,1.88,3.07,0.29,0.24,0.78
1006,-4.98,1.88,3.07,0.15,-0.25,0.35
1011,-0.57,1.57,4.90,0.15,-0.25,0.35
1016,-0.57,1.49,6.36,0.15,-0.25,0.35
1021,-1.80,1.38,8.04,0.15,-0.25,0.35
1026,-0.61,-0.46,8.28,0.15,-0.25,0.35
1032,1.27,-1.07,9.69,0.15,-0.25,0.35
1037,0.54,-4.52,14.55,0.15,-0.25,0.35
1041,0.54,-4.52,14.55,0.23,-0.10,0.14
1046,1.53,-2.57,14.29,0.23,-0.10,0.14
1051,1.88,-3.83,14.59,0.23,-0.10,0.14
1056,2.14,-3.22,12.18,0.23,-0.10,0.14
1061,2.87,-3.18,14.13,0.23,-0.10,0.14
1067,2.14,-2.61,12.02,0.23,-0.10,0.14
1072,1.27,-1.46,12.02,0.23,-0.10,0.14
1076,1.27,-1.46,12.02,0.40,0.10,0.61
1081,1.27,-1.46,12.02,0.39,0.16,0.61
1086,-1.42,-0.88,10.49,0.39,0.16,0.61
1091,-1.07,-1.46,9.61,0.39,0.16,0.61
1097,-0.88,-1.88,8.89,0.39,0.16,0.61
1101,-2.91,-2.41,8.04,0.39,0.16,0.61
1106,-1.61,-1.57,7.51,0.39,0.16,0.61
1111,-1.61,-1.57,7.51,0.37,0.25,0.52
1116,-1.61,-1.57,7.51,0.35,0.15,0.49
1122,-0.38,-2.84,7.16,0.35,0.15,0.49
1127,-0.46,-2.61,8.89,0.35,0.15,0.49
1131,-1.00,-1.80,10.00,0.35,0.15,0.49
1136,-0.84,-2.11,10.57,0.35,0.15,0.49
1141,-0.27,-0.96,10.95,0.35,0.15,0.49
1146,-0.80,-1.11,10.45,0.35,0.15,0.49
1152,-0.73,-1.30,10.80,0.35,0.15,0.49
1157,-1.88,0.04,10.49,0.35,0.15,0.49
1161,-1.88,0.04,10.49,0.44,0.10,0.74
1166,-0.73,-0.34,9.35,0.44,0.10,0.74
1171,0.77,-0.15,9.61,0.44,0.10,0.74
1176,0.84,1.19,10.30,0.44,0.10,0.74
1181,-0.84,2.76,10.54,0.44,0.10,0.74
1187,0.19,3.26,10.77,0.44,0.10,0.74
1192,3.52,2.68,9.12,0.44,0.10,0.74
1196,3.52,2.68,9.12,0.34,-0.03,0.98
1201,3.52,2.68,9.12,0.37,0.04,1.05
1206,-1.91,6.47,9.69,0.37,0.04,1.05
1211,-3.18,4.79,8.89,0.37,0.04,1.05
1216,-3.64,2.49,8.39,0.37,0.04,1.05
1221,-3.07,1.46,8.70,0.37,0.04,1.05
1227,-3.07,1.46,8.70,0.28,0.28,0.98
1232,-5.09,-0.46,9.50,0.28,0.28,0.98
1236,-10.53,1.00,8.85,0.28,0.28,0.98
1241,-7.47,0.30,9.96,0.28,0.28,0.98
1246,-4.98,-0.61,9.84,0.28,0.28,0.98
1251,-3.79,-0.46,9.23,0.28,0.28,0.98
1257,-4.67,-0.73,10.11,0.28,0.28,0.98
1262,1.04,-0.65,10.23,0.28,0.28,0.98
1266,1.04,-0.65,10.23,0.04,-0.55,0.40
1271,5.36,-3.48,8.54,0.04,-0.55,0.40
1276,6.74,-2.61,8.70,0.04,-0.55,0.40
1281,6.36,-2.91,10.07,0.04,-0.55,0.40
1286,3.71,-1.38,11.15,0.04,-0.55,0.40
1292,1.84,-0.34,11.22,0.04,-0.55,0.40
1297,0.88,-1.00,10.39,0.04,-0.55,0.40
1301,0.88,-1.00,10.39,0.29,0.48,0.38
1306,1.88,-0.30,8.62,0.29,0.48,0.38
1311,2.61,0.65,8.31,0.29,0.48,0.38
1316,2.95,1.04,7.89,0.29,0.48,0.38
1321,2.22,2.45,7.35,0.29,0.48,0.38
1327,1.23,3.14,7.89,0.29,0.48,0.38
1332,-0.88,5.09,9.20,0.29,0.48,0.38
1336,-0.88,5.09,9.20,0.19,0.15,0.63
1341,-0.88,5.09,9.20,0.17,0.15,0.64
1346,-2.11,1.04,10.00,0.17,0.15,0.64
1351,-1.65,0.92,10.80,0.17,0.15,0.64
1357,-1.00,0.19,9.93,0.17,0.15,0.64
1361,-1.04,1.23,8.89,0.17,0.15,0.64
1366,0.65,1.04,9.00,0.17,0.15,0.64
1371,0.65,1.04,9.00,0.20,-0.07,0.99
1376,2.76,-0.38,9.93,0.20,-0.07,0.99
1382,2.76,-0.38,9.93,0.17,-0.09,1.03
1387,4.02,-0.88,9.85,0.17,-0.09,1.03
1391,4.37,-0.92,10.27,0.17,-0.09,1.03
1396,3.87,-1.00,9.85,0.17,-0.09,1.03
1401,2.87,-0.42,10.03,0.17,-0.09,1.03
1407,1.04,-0.15,9.27,0.17,-0.09,1.03
1411,0.61,-0.23,9.81,0.17,-0.09,1.03
1416,0.96,-1.38,10.23,0.17,-0.09,1.03
1422,0.80,-2.14,11.19,0.17,-0.09,1.03
1426,0.46,-2.99,11.84,0.17,-0.09,1.03
1431,0.92,-3.22,11.64,0.17,-0.09,1.03
1437,0.42,-2.95,11.54,0.17,-0.09,1.03
1441,0.42,-2.95,11.54,0.15,0.02,1.19
1447,-0.46,-1.88,11.53,0.15,0.02,1.19
1452,0.23,-3.41,11.34,0.15,0.02,1.19
1456,0.23,-3.41,11.34,0.17,0.04,1.13
1462,0.23,-3.41,11.34,0.19,0.04,1.10
1467,0.00,-2.61,10.65,0.19,0.04,1.10
1471,0.00,-2.61,10.65,0.15,0.04,1.01
1476,0.00,-2.61,10.65,0.15,0.03,0.93
1481,1.15,-3.22,9.65,0.15,0.03,0.93
1487,1.84,-3.33,9.61,0.15,0.03,0.93
1491,1.84,-3.33,9.61,0.17,0.04,0.85
1496,-1.04,-0.08,8.62,0.17,0.04,0.85
1501,-1.19,-0.65,8.74,0.17,0.04,0.85
1507,-0.80,0.23,8.74,0.17,0.04,0.85
1512,-0.80,0.23,8.74,0.12,0.17,0.61
1516,-0.80,0.65,8.66,0.12,0.17,0.61
1522,-0.23,1.38,9.65,0.12,0.17,0.61
1526,-0.23,1.38,9.65,0.08,0.12,0.66
1531,1.07,2.34,9.39,0.08,0.12,0.66
1536,0.77,2.95,9.61,0.08,0.12,0.66
1541,0.23,4.18,10.34,0.08,0.12,0.66
1546,0.23,4.18,10.34,0.05,0.20,0.74
1551,0.08,2.34,9.65,0.05,0.20,0.74
1556,0.08,2.34,9.65,0.02,0.23,0.73
1563,0.08,2.34,9.65,0.04,0.24,0.73
1568,-1.38,2.99,8.66,0.04,0.24,0.73
1571,-1.38,2.99,8.66,0.04,0.25,0.81
1576,-1.38,2.99,8.66,0.04,0.25,0.82
1582,-1.38,2.99,8.66,0.02,0.25,0.82
1587,-1.76,4.29,8.74,0.02,0.25,0.82
1591,-1.76,4.29,8.74,-0.05,0.22,0.75
1596,-1.76,4.29,8.74,-0.10,0.22,0.68
1601,-1.76,4.29,8.74,-0.13,0.20,0.61
1607,-1.65,1.95,8.96,-0.13,0.20,0.61
1611,-1.65,1.95,8.96,-0.15,0.13,0.56
1616,0.46,1.19,8.28,-0.15,0.13,0.56
1621,0.15,1.07,9.27,-0.15,0.13,0.56
1627,-0.96,1.80,9.69,-0.15,0.13,0.56
1632,-0.96,1.80,9.69,-0.21,0.08,0.45
1636,0.57,-0.04,11.68,-0.21,0.08,0.45
1641,-0.42,-0.92,11.30,-0.21,0.08,0.45
1647,-0.04,-0.15,10.45,-0.21,0.08,0.45
1652,0.19,0.42,9.65,-0.21,0.08,0.45
1657,-0.69,0.11,9.31,-0.21,0.08,0.45
1661,-0.69,0.11,9.31,-0.11,0.32,0.40
1666,-0.69,0.11,9.31,-0.08,0.34,0.39
1671,-2.99,0.42,7.43,-0.08,0.34,0.39
1677,-4.29,1.49,7.16,-0.08,0.34,0.39
1681,-4.29,1.49,7.16,-0.12,0.30,0.30
1686,-2.45,0.23,8.16,-0.12,0.30,0.30
1692,-2.80,-0.38,7.86,-0.12,0.30,0.30
1696,-2.80,-0.38,7.86,-0.17,0.07,0.21
1701,-2.80,-0.38,7.86,-0.18,-0.00,0.19
1706,-1.23,0.42,10.34,-0.18,-0.00,0.19
1712,0.34,-0.30,11.11,-0.18,-0.00,0.19
1716,0.34,-0.30,11.11,-0.20,-0.07,0.13
1722,0.34,-0.30,11.11,-0.20,-0.02,0.13
1727,2.64,-1.65,15.10,-0.20,-0.02,0.13
1731,2.64,-1.65,15.10,-0.15,0.13,0.22
1736,2.64,-1.65,15.10,-0.11,0.26,0.27
1741,0.15,-1.19,16.47,-0.11,0.26,0.27
1747,-0.38,-0.54,14.98,-0.11,0.26,0.27
1751,-0.38,-0.54,14.98,0.05,0.59,0.37
1756,-1.27,-1.23,10.07,0.05,0.59,0.37
1762,-3.10,-0.08,8.08,0.05,0.59,0.37
1766,-3.10,-0.08,8.08,0.13,0.58,0.46
1772,-4.71,-0.46,1.91,0.13,0.58,0.46
1777,-5.32,-0.38,1.99,0.13,0.58,0.46
1781,-5.32,-0.38,1.99,0.09,0.17,0.34
1786,-5.32,-0.38,1.99,0.05,-0.02,0.27
1792,-1.04,0.88,4.59,0.05,-0.02,0.27
1797,-0.61,0.42,5.74,0.05,-0.02,0.27
1801,-0.61,0.42,5.74,-0.11,-0.42,0.21
1807,2.41,0.15,9.69,-0.11,-0.42,0.21
1812,0.73,-0.30,10.46,-0.11,-0.42,0.21
1816,0.73,-0.30,10.46,-0.12,-0.34,0.27
1821,0.73,-0.30,10.46,-0.07,-0.19,0.26
1827,-2.91,-2.34,10.00,-0.07,-0.19,0.26
1832,-2.80,-2.64,10.27,-0.07,-0.19,0.26
1836,-2.80,-2.64,10.27,0.14,0.23,0.38
1842,-2.80,-2.64,10.27,0.19,0.26,0.46
1847,1.72,-3.45,9.20,0.19,0.26,0.46
1851,1.72,-3.45,9.20,0.23,0.17,0.62
1856,1.72,-3.45,9.20,0.25,0.15,0.67
1862,1.72,-3.45,9.20,0.25,0.16,0.68
1867,-1.00,-0.42,10.00,0.25,0.16,0.68
1871,-1.00,-0.42,10.00,0.24,0.24,0.66
1876,-1.53,-0.88,10.80,0.24,0.24,0.66
1881,-0.88,-1.34,10.61,0.24,0.24,0.66
1887,-1.19,-1.27,10.11,0.24,0.24,0.66
1892,-1.19,-1.27,10.11,0.24,0.24,0.65
1896,-0.77,-0.46,9.88,0.24,0.24,0.65
1902,1.23,-0.73,10.00,0.24,0.24,0.65
1906,1.23,-0.73,10.00,0.16,-0.02,0.60
1911,3.26,-0.61,10.27,0.16,-0.02,0.60
1917,2.99,-0.69,10.69,0.16,-0.02,0.60
1921,2.99,-0.69,10.69,0.14,-0.10,0.63
1926,2.99,-0.69,10.69,0.17,-0.03,0.65
1931,2.30,0.34,9.27,0.17,-0.03,0.65
1936,2.30,0.34,9.27,0.19,0.04,0.65
1943,2.30,0.34,9.27,0.20,0.11,0.69
1947,1.65,1.23,9.96,0.20,0.11,0.69
1952,0.88,1.88,9.80,0.20,0.11,0.69
1956,0.88,1.88,9.80,0.15,0.13,0.70
1962,0.88,1.88,9.80,0.13,0.12,0.72
1967,-0.69,1.95,8.89,0.13,0.12,0.72
1971,-0.69,1.95,8.89,0.11,0.12,0.70
1976,-0.69,1.95,8.89,0.12,0.14,0.67
1982,-0.69,1.95,8.89,0.09,0.14,0.64
1987,1.42,1.30,9.93,0.09,0.14,0.64
1992,1.42,1.30,9.93,0.04,0.00,0.62
1996,1.42,1.30,9.93,0.04,-0.05,0.67
2001,1.42,1.30,9.93,0.02,-0.05,0.70
2007,2.91,0.73,10.84,0.02,-0.05,0.70
2012,2.91,0.73,10.84,0.08,0.01,0.72
2017,-3.56,1.99,10.61,0.08,0.01,0.72
2022,-3.48,1.19,9.77,0.08,0.01,0.72
2027,-3.48,1.19,9.77,0.12,0.29,0.68
2032,-3.48,1.19,9.77,0.11,0.25,0.62
2037,-1.53,-0.92,9.88,0.11,0.25,0.62
2041,-1.53,-0.92,9.88,0.06,0.02,0.61
2046,-1.53,-0.92,9.88,0.04,-0.14,0.63
2052,1.95,-1.38,9.96,0.04,-0.14,0.63
2057,2.99,-0.57,10.88,0.04,-0.14,0.63
2061,2.99,-0.57,10.88,0.01,-0.21,0.58
2066,2.99,-0.57,10.88,0.03,-0.13,0.55
2072,-0.88,-0.54,11.11,0.03,-0.13,0.55
2076,-0.88,-0.54,11.11,0.08,0.13,0.56
2082,-0.88,-0.54,11.11,0.11,0.22,0.57
2088,-3.18,-0.92,9.69,0.11,0.22,0.57
2091,-3.18,-0.92,9.69,0.17,0.35,0.56
2096,-3.18,-0.92,9.69,0.20,0.31,0.54
2101,-3.18,-0.92,9.69,0.19,0.24,0.55
2107,-0.30,0.77,9.89,0.19,0.24,0.55
2113,-0.30,0.77,9.89,0.13,0.09,0.56
2116,-0.30,0.77,9.89,0.08,0.04,0.54
2122,-0.15,1.46,9.92,0.08,0.04,0.54
2127,0.34,1.61,9.96,0.08,0.04,0.54
2132,0.34,1.61,9.96,0.07,0.12,0.52
2137,0.34,1.61,9.96,0.08,0.20,0.54
2142,-0.30,1.15,8.89,0.08,0.20,0.54
2147,-0.30,1.15,8.89,0.11,0.28,0.58
2152,-0.30,1.15,8.89,0.11,0.31,0.58
2157,-2.14,1.99,10.27,0.11,0.31,0.58
2162,-2.14,1.99,10.27,0.09,0.30,0.61
2166,-2.14,1.99,10.27,0.06,0.26,0.59
2172,-2.45,2.84,10.19,0.06,0.26,0.59
2177,-2.76,2.22,9.77,0.06,0.26,0.59
2182,-2.76,2.22,9.77,0.03,0.22,0.58
2187,-2.76,2.22,9.77,0.01,0.22,0.56
2193,-2.61,2.80,7.93,0.01,0.22,0.56
2196,-2.61,2.80,7.93,-0.00,0.22,0.52
2202,-2.61,2.80,7.93,-0.01,0.22,0.48
2207,-2.95,1.95,7.01,-0.01,0.22,0.48
2212,-2.80,2.41,8.23,-0.01,0.22,0.48
2216,-2.80,2.41,8.23,-0.08,0.17,0.38
2221,-2.80,2.41,8.23,-0.12,0.13,0.37
2226,0.00,0.88,11.26,-0.12,0.13,0.37
2231,0.00,0.88,11.26,-0.15,0.09,0.36
2237,0.00,0.88,11.26,-0.13,0.09,0.38
2242,0.00,0.88,11.26,-0.13,0.13,0.40
2247,0.65,-0.08,10.69,-0.13,0.13,0.40
2252,0.65,-0.08,10.69,-0.04,0.27,0.41
2256,0.65,-0.08,10.69,-0.01,0.32,0.47
2261,0.65,-0.08,10.69,0.00,0.35,0.53
2267,1.99,-0.04,10.23,0.00,0.35,0.53
2272,1.99,-0.04,10.23,0.00,0.28,0.60
2276,1.99,-0.04,10.23,-0.01,0.24,0.62
2282,1.34,0.00,9.61,-0.01,0.24,0.62
2286,1.34,0.00,9.61,-0.02,0.18,0.64
2292,1.34,0.00,9.61,-0.01,0.16,0.63
2297,-0.34,1.76,7.93,-0.01,0.16,0.63
2302,-0.34,1.76,7.93,-0.01,0.13,0.61
2307,-0.34,1.76,7.93,-0.03,0.07,0.60
2313,2.64,0.27,9.61,-0.03,0.07,0.60
2316,2.64,0.27,9.61,-0.07,-0.01,0.61
2322,2.64,0.27,9.61,-0.08,-0.02,0.61
2327,2.64,0.27,9.61,-0.09,0.02,0.61
2332,1.72,0.30,11.57,-0.09,0.02,0.61
2336,1.72,0.30,11.57,-0.08,0.15,0.59
2342,1.72,0.30,11.57,-0.06,0.20,0.59
2348,1.76,-2.41,11.34,-0.06,0.20,0.59
2352,1.76,-2.41,11.34,-0.02,0.25,0.63
2357,1.76,-2.41,11.34,-0.00,0.27,0.65
2361,1.76,-2.41,11.34,0.01,0.28,0.64
2367,-0.57,-1.04,9.43,0.01,0.28,0.64
2371,-0.57,-1.04,9.43,0.01,0.26,0.61
2376,-0.57,-1.04,9.43,-0.02,0.24,0.57
2381,-0.57,-1.04,9.43,-0.01,0.19,0.56
2387,-0.11,-0.84,9.35,-0.01,0.19,0.56
2392,-0.11,-0.84,9.35,-0.04,0.11,0.56
2396,-0.11,-0.84,9.35,-0.04,0.09,0.56
2403,-1.04,1.00,8.89,-0.04,0.09,0.56
2406,-1.04,1.00,8.89,-0.05,0.14,0.54
2412,-1.04,1.00,8.89,-0.04,0.18,0.52
2417,-1.65,1.38,8.46,-0.04,0.18,0.52
2422,-1.65,1.38,8.46,-0.03,0.22,0.52
2427,-1.65,1.38,8.46,-0.03,0.22,0.53
2432,-0.46,1.95,9.43,-0.03,0.22,0.53
2437,-1.46,2.26,10.27,-0.03,0.22,0.53
2441,-1.46,2.26,10.27,-0.08,0.19,0.56
2447,-1.46,2.26,10.27,-0.09,0.18,0.57
2452,-1.11,2.22,10.50,-0.09,0.18,0.57
2456,-1.11,2.22,10.50,-0.12,0.22,0.58
2461,-1.11,2.22,10.50,-0.11,0.25,0.57
2467,-1.15,0.88,10.00,-0.11,0.25,0.57
2473,-1.57,-0.30,10.65,-0.11,0.25,0.57
2476,-1.57,-0.30,10.65,-0.10,0.21,0.56
2482,-1.57,-0.30,10.65,-0.09,0.19,0.59
2487,-0.50,0.84,10.99,-0.09,0.19,0.59
2491,-0.50,0.84,10.99,-0.08,0.22,0.61
2496,-0.50,0.84,10.99,-0.08,0.26,0.57
2501,-0.50,0.84,10.99,-0.10,0.29,0.52
2508,-2.49,-0.27,9.69,-0.10,0.29,0.52
2511,-2.49,-0.27,9.69,-0.10,0.31,0.46
2517,-1.34,-0.65,8.62,-0.10,0.31,0.46
2522,-1.34,-0.65,8.62,-0.09,0.22,0.47
2527,-1.34,-0.65,8.62,-0.10,0.16,0.45
2532,-1.34,-0.65,8.62,-0.12,0.11,0.41
2537,-1.00,-0.84,10.35,-0.12,0.11,0.41
2541,-1.00,-0.84,10.35,-0.16,0.08,0.32
2546,-1.76,-0.88,9.65,-0.16,0.08,0.32
2552,-1.76,-0.88,9.65,-0.15,0.12,0.30
2557,-1.76,-2.38,10.73,-0.15,0.12,0.30
2562,-1.76,-2.38,10.73,-0.09,0.23,0.30
2567,-1.76,-2.38,10.73,-0.04,0.22,0.31
2572,-2.76,-1.34,9.46,-0.04,0.22,0.31
2576,-2.76,-1.34,9.46,-0.04,0.20,0.30
2582,-2.76,-1.34,9.46,-0.02,0.18,0.29
2586,-2.76,-1.34,9.46,-0.02,0.13,0.29
2592,-1.76,-2.03,8.96,-0.02,0.13,0.29
2596,-1.76,-2.03,8.96,0.02,0.11,0.36
2601,-1.76,-2.03,8.96,0.02,0.11,0.37
2607,0.46,-0.50,8.85,0.02,0.11,0.37
2612,0.46,-0.50,8.85,0.01,0.09,0.38
2617,0.46,-0.50,8.85,0.02,0.08,0.41
2621,0.46,-0.50,8.85,0.03,0.08,0.44
2627,0.77,0.00,10.38,0.03,0.08,0.44
2632,0.77,0.00,10.38,0.04,0.12,0.51
2637,0.77,0.00,10.38,0.04,0.13,0.54
2642,-0.38,-0.27,10.61,0.04,0.13,0.54
2647,-0.38,-0.27,10.61,0.08,0.18,0.63
2652,-0.38,-0.27,10.61,0.09,0.20,0.65
2656,0.11,-1.19,8.01,0.09,0.20,0.65
2662,-1.76,-0.88,7.17,0.09,0.20,0.65
2666,-1.76,-0.88,7.17,0.15,0.15,0.71
2672,-1.76,-0.88,7.17,0.12,0.09,0.71
2677,-0.11,-1.23,8.08,0.12,0.09,0.71
2681,-0.11,-1.23,8.08,0.10,-0.04,0.69
2687,-0.11,-1.23,8.08,0.08,-0.07,0.70
2692,1.68,0.46,12.83,0.08,-0.07,0.70
2696,1.68,0.46,12.83,0.01,-0.06,0.69
2702,1.68,0.46,12.83,0.02,0.01,0.69
2707,1.68,0.46,12.83,0.04,0.11,0.69
2712,0.27,-0.61,11.22,0.04,0.11,0.69
2716,0.27,-0.61,11.22,0.09,0.28,0.69
2722,0.27,-0.61,11.22,0.12,0.33,0.70
2728,0.08,-1.53,9.84,0.12,0.33,0.70
2732,0.08,-1.53,9.84,0.11,0.28,0.73
2737,0.08,-1.53,9.84,0.10,0.22,0.73
2742,0.08,-1.53,9.84,0.07,0.14,0.73
2747,0.27,-0.42,9.88,0.07,0.14,0.73
2752,0.27,-0.42,9.88,0.06,0.12,0.72
2756,0.27,-0.42,9.88,0.06,0.13,0.70
2761,0.27,-0.42,9.88,0.05,0.15,0.67
2767,-1.23,2.07,8.12,0.05,0.15,0.67
2771,-1.23,2.07,8.12,0.01,0.16,0.64
2777,-1.23,2.07,8.12,-0.04,0.12,0.63
2782,0.88,1.23,9.58,-0.04,0.12,0.63
2787,0.88,1.23,9.58,-0.10,0.02,0.60
2791,0.88,1.23,9.58,-0.12,0.00,0.61
2796,0.88,1.23,9.58,-0.12,0.03,0.62
2802,2.22,1.04,11.15,-0.12,0.03,0.62
2806,2.22,1.04,11.15,-0.07,0.17,0.67
2812,2.22,1.04,11.15,-0.07,0.24,0.69
2817,1.11,-0.84,11.15,-0.07,0.24,0.69
2821,1.11,-0.84,11.15,-0.01,0.34,0.71
2827,1.11,-0.84,11.15,0.02,0.38,0.74
2832,-1.00,1.38,9.46,0.02,0.38,0.74
2836,-1.00,1.38,9.46,0.02,0.37,0.74
2841,-1.00,1.38,9.46,-0.02,0.31,0.69
2846,-1.00,1.38,9.46,-0.05,0.23,0.65
2852,0.27,0.04,9.42,-0.05,0.23,0.65
2856,0.27,0.04,9.42,-0.11,0.07,0.59
2861,0.27,0.04,9.42,-0.12,0.06,0.58
2866,-1.11,0.57,8.54,-0.12,0.06,0.58
2871,-1.11,0.57,8.54,-0.13,0.09,0.54
2877,-1.11,0.57,8.54,-0.13,0.13,0.48
2882,-1.11,0.57,8.54,-0.13,0.24,0.39
2887,-1.11,0.57,8.54,-0.15,0.23,0.37
2891,-1.11,0.57,8.54,-0.16,0.18,0.36
2896,-1.11,0.57,8.54,-0.17,0.15,0.36
2902,-1.15,1.23,9.65,-0.17,0.15,0.36
2907,-1.15,1.23,9.65,-0.16,0.18,0.37
2912,-1.15,1.23,9.65,-0.15,0.20,0.34
2917,-1.15,1.23,9.65,-0.15,0.26,0.32
2922,-1.15,1.23,9.65,-0.14,0.31,0.31
2927,-1.15,1.23,9.65,-0.14,0.28,0.29
2932,-1.15,1.23,9.65,-0.16,0.21,0.27
2937,-1.95,0.46,9.54,-0.16,0.21,0.27
2941,-1.95,0.46,9.54,-0.18,0.09,0.29
2947,-1.95,0.46,9.54,-0.21,0.02,0.27
2952,-1.95,0.46,9.54,-0.24,0.02,0.25
2956,-1.95,0.46,9.54,-0.23,0.10,0.25
2961,-1.95,0.46,9.54,-0.24,0.19,0.25
2967,-1.95,0.46,9.54,-0.24,0.23,0.22
2972,-0.15,0.80,10.42,-0.24,0.23,0.22
2977,-0.15,0.80,10.42,-0.18,0.29,0.28
2982,-0.15,0.80,10.42,-0.16,0.29,0.33
2987,-0.15,0.80,10.42,-0.16,0.27,0.34
2992,-0.15,0.80,10.42,-0.18,0.24,0.32
2996,-0.15,0.80,10.42,-0.20,0.24,0.29
3001,-0.15,0.80,10.42,-0.24,0.22,0.26
3007,-0.34,1.19,8.46,-0.24,0.22,0.26
3012,-0.34,1.19,8.46,-0.26,0.08,0.27
3016,-0.34,1.19,8.46,-0.29,0.05,0.31
3022,-0.34,1.19,8.46,-0.28,0.06,0.30
3027,-0.34,1.19,8.46,-0.26,0.07,0.26
3032,-0.34,1.19,8.46,-0.26,0.08,0.22
3036,-0.34,1.19,8.46,-0.26,0.08,0.23
3042,-0.69,-0.08,10.69,-0.26,0.08,0.23
3046,-0.69,-0.08,10.69,-0.24,0.12,0.28
3052,-0.69,-0.08,10.69,-0.24,0.12,0.27
3057,-0.69,-0.08,10.69,-0.24,0.12,0.26
3061,-0.69,-0.08,10.69,-0.22,0.14,0.28
3066,-0.69,-0.08,10.69,-0.23,0.16,0.31
3072,-0.69,-0.08,10.69,-0.19,0.16,0.32
3076,-0.69,-0.08,10.69,-0.18,0.15,0.33
3081,-0.69,-0.08,10.69,-0.18,0.16,0.36
3087,-0.69,-0.08,10.69,-0.17,0.15,0.38
3092,-0.04,-0.27,10.45,-0.17,0.15,0.38
3096,-0.04,-0.27,10.45,-0.19,0.17,0.39
3102,-0.04,-0.27,10.45,-0.19,0.17,0.39
3107,-0.04,-0.27,10.45,-0.18,0.17,0.40
3112,-0.04,-0.27,10.45,-0.18,0.18,0.41
3116,-0.04,-0.27,10.45,-0.17,0.15,0.44
3122,-0.04,-0.27,10.45,-0.18,0.14,0.45
3127,0.23,0.46,7.89,-0.18,0.14,0.45
3132,0.23,0.46,7.89,-0.18,0.13,0.46
3137,0.23,0.46,7.89,-0.20,0.09,0.45
3142,0.23,0.46,7.89,-0.23,0.07,0.46
3147,0.23,0.46,7.89,-0.24,0.07,0.49
3151,0.23,0.46,7.89,-0.26,0.05,0.50
3157,0.23,0.46,7.89,-0.24,0.08,0.52
3163,0.23,0.46,7.89,-0.24,0.13,0.54
3166,0.23,0.46,7.89,-0.23,0.18,0.56
3172,0.23,0.46,7.89,-0.21,0.21,0.55
3177,0.23,0.46,7.89,-0.19,0.23,0.57
3181,0.23,0.46,7.89,-0.18,0.27,0.57
3186,0.23,0.46,7.89,-0.17,0.30,0.57
3192,0.23,0.46,7.89,-0.17,0.35,0.53
3197,-8.93,1.30,8.35,-0.17,0.35,0.53
3201,-8.93,1.30,8.35,-0.19,0.41,0.35
3207,-8.93,1.30,8.35,-0.26,0.34,0.23
3212,-8.93,1.30,8.35,-0.30,0.19,0.15
3216,-8.93,1.30,8.35,-0.36,-0.06,0.13
3221,-8.93,1.30,8.35,-0.41,-0.32,0.16
3226,-8.93,1.30,8.35,-0.45,-0.46,0.18
3232,3.79,-0.15,9.38,-0.45,-0.46,0.18
3237,3.79,-0.15,9.38,-0.40,-0.29,0.13
3242,3.79,-0.15,9.38,-0.34,-0.02,0.10
3247,3.79,-0.15,9.38,-0.29,0.25,0.08
3251,3.79,-0.15,9.38,-0.25,0.44,0.07
3257,3.79,-0.15,9.38,-0.22,0.54,0.06
3261,3.79,-0.15,9.38,-0.21,0.54,0.05
3267,-0.50,-0.92,8.58,-0.21,0.54,0.05
3271,-0.50,-0.92,8.58,-0.22,0.32,0.05
3276,-0.50,-0.92,8.58,-0.25,0.21,0.04
3281,-0.50,-0.92,8.58,-0.30,0.10,-0.01
3286,-4.71,2.72,7.16,-0.30,0.10,-0.01
3292,-4.71,2.72,7.16,-0.33,0.07,-0.12
3297,-4.71,2.72,7.16,-0.38,0.11,-0.37
3302,-3.83,-0.96,9.50,-0.38,0.11,-0.37
3306,-3.83,-0.96,9.50,-0.36,0.02,-0.42
3312,-3.83,-0.96,9.50,-0.36,-0.03,-0.38
3317,-3.83,-0.96,9.50,-0.36,-0.11,-0.35
3322,-3.83,-0.96,9.50,-0.33,-0.12,-0.36
3327,-3.83,-0.96,9.50,-0.30,-0.03,-0.39
3332,-3.83,-0.96,9.50,-0.27,0.10,-0.44
3337,-3.83,-0.96,9.50,-0.21,0.21,-0.48
3341,-3.83,-0.96,9.50,-0.16,0.32,-0.49
3346,-3.83,-0.96,9.50,-0.14,0.35,-0.46
3352,-3.83,-0.96,9.50,-0.13,0.26,-0.43
3356,-3.83,-0.96,9.50,-0.16,0.12,-0.41
3362,-3.83,-0.96,9.50,-0.19,-0.00,-0.39
3367,-3.83,-0.96,9.50,-0.22,-0.12,-0.39
3371,-3.83,-0.96,9.50,-0.23,-0.19,-0.39
3376,-3.83,-0.96,9.50,-0.22,-0.15,-0.39
3381,-3.83,-0.96,9.50,-0.17,-0.05,-0.37
3387,-0.73,-1.19,10.53,-0.17,-0.05,-0.37
3392,-0.73,-1.19,10.53,-0.09,0.06,-0.33
3396,-0.73,-1.19,10.53,-0.05,0.06,-0.25
3402,-0.73,-1.19,10.53,-0.03,0.01,-0.17
3406,-0.73,-1.19,10.53,-0.00,-0.04,-0.09
3411,-0.73,-1.19,10.53,0.00,-0.03,-0.01
3416,-0.73,-1.19,10.53,0.04,0.04,0.05
3422,0.92,-1.65,9.46,0.04,0.04,0.05
3427,0.92,-1.65,9.46,0.09,0.12,0.08
3432,0.92,-1.65,9.46,0.14,0.12,0.12
3436,0.92,-1.65,9.46,0.17,0.10,0.19
3442,-0.54,-1.04,6.67,0.17,0.10,0.19
3446,-0.54,-1.04,6.67,0.16,-0.07,0.25
3451,-0.54,-1.04,6.67,0.13,-0.15,0.24
3457,0.54,-1.27,7.89,0.13,-0.15,0.24
3462,0.54,-1.27,7.89,0.09,-0.23,0.21
3467,0.54,-1.27,7.89,0.08,-0.23,0.21
3472,0.54,-1.27,7.89,0.07,-0.20,0.23
3477,0.54,-1.27,7.89,0.09,-0.16,0.26
3481,0.54,-1.27,7.89,0.12,-0.11,0.31
3486,0.54,-1.27,7.89,0.16,-0.03,0.38
3492,2.11,-1.95,11.84,0.16,-0.03,0.38
3496,2.11,-1.95,11.84,0.20,0.05,0.48
3502,2.11,-1.95,11.84,0.23,0.09,0.53
3507,2.11,-1.95,11.84,0.28,0.13,0.59
3512,2.11,-1.95,11.84,0.32,0.14,0.64
3517,2.11,-1.95,11.84,0.34,0.12,0.68
3521,2.11,-1.95,11.84,0.34,0.06,0.71
3527,-0.15,-2.07,7.63,0.34,0.06,0.71
3532,-0.15,-2.07,7.63,0.25,-0.19,0.70
3537,-0.15,-2.07,7.63,0.17,-0.33,0.70
3542,-0.15,-2.07,7.63,0.14,-0.41,0.74
3546,-0.15,-2.07,7.63,0.12,-0.36,0.83
3552,-0.15,-2.07,7.63,0.15,-0.22,0.92
3556,-0.15,-2.07,7.63,0.19,-0.00,0.96
3562,-4.14,-2.57,9.04,0.19,-0.00,0.96
3567,-4.14,-2.57,9.04,0.40,0.44,0.94
3572,-4.14,-2.57,9.04,0.48,0.56,0.92
3577,-4.14,-2.57,9.04,0.52,0.55,0.92
3582,-4.14,-2.57,9.04,0.49,0.40,0.94
3587,-4.14,-2.57,9.04,0.40,0.19,0.96
3591,-4.14,-2.57,9.04,0.29,-0.09,0.96
3597,0.08,0.57,9.58,0.29,-0.09,0.96
3601,0.08,0.57,9.58,0.08,-0.42,0.82
3606,0.08,0.57,9.58,0.01,-0.44,0.73
3612,0.08,0.57,9.58,-0.03,-0.34,0.66
3616,0.08,0.57,9.58,-0.02,-0.17,0.65
3622,0.08,0.57,9.58,0.04,0.02,0.67
3626,0.08,0.57,9.58,0.13,0.17,0.71
3632,-1.80,-2.68,8.70,0.13,0.17,0.71
3637,-1.80,-2.68,8.70,0.26,0.25,0.78
3641,-1.80,-2.68,8.70,0.25,0.18,0.79
3647,3.56,0.34,12.14,0.25,0.18,0.79
3652,3.56,0.34,12.14,0.16,-0.02,0.80
3657,3.56,0.34,12.14,0.12,-0.01,0.80
3661,3.56,0.34,12.14,0.09,0.04,0.79
3667,-1.00,1.88,9.77,0.09,0.04,0.79
3672,-1.00,1.88,9.77,0.08,0.19,0.70
3676,-1.00,1.88,9.77,0.11,0.22,0.65
3682,-0.92,1.49,6.66,0.11,0.22,0.65
3687,-0.92,1.49,6.66,0.04,0.12,0.56
3692,-0.92,1.49,6.66,0.00,0.03,0.52
3696,-0.92,1.49,6.66,-0.07,-0.02,0.49
3702,0.27,2.95,12.53,-0.07,-0.02,0.49
3707,0.27,2.95,12.53,-0.17,0.02,0.37
3711,0.27,2.95,12.53,-0.18,0.08,0.30
3717,-1.84,1.04,10.41,-0.18,0.08,0.30
3722,-1.84,1.04,10.41,-0.16,0.18,0.22
3727,-1.84,1.04,10.41,-0.13,0.15,0.20
3732,-1.84,1.04,10.41,-0.11,0.13,0.20
3737,-1.88,1.27,8.88,-0.11,0.13,0.20
3741,-1.88,1.27,8.88,-0.09,0.12,0.22
3746,-1.88,1.27,8.88,-0.12,0.11,0.18
3752,-1.23,0.46,9.85,-0.12,0.11,0.18
3756,-1.23,0.46,9.85,-0.12,0.18,0.16
3761,-1.23,0.46,9.85,-0.22,0.25,0.15
3767,-1.23,0.46,9.85,-0.19,0.29,0.11
3772,-6.13,3.95,9.77,-0.19,0.29,0.11
3777,-6.13,3.95,9.77,-0.20,0.35,0.03
3781,-6.13,3.95,9.77,-0.21,0.26,0.03
3787,1.30,2.11,6.74,-0.21,0.26,0.03
3792,1.30,2.11,6.74,-0.24,-0.10,0.06
3796,1.30,2.11,6.74,-0.29,-0.24,0.09
3802,1.30,2.11,6.74,-0.23,-0.26,0.14
3806,1.30,2.11,6.74,-0.24,-0.18,0.17
3812,1.30,2.11,6.74,-0.24,-0.03,0.21
3816,1.30,2.11,6.74,-0.18,0.14,0.21
3822,-3.41,0.54,8.08,-0.18,0.14,0.21
3827,-3.41,0.54,8.08,-0.19,0.27,0.15
3831,-3.41,0.54,8.08,-0.19,0.19,0.13
3837,-3.41,0.54,8.08,-0.19,0.04,0.16
3842,5.29,-2.72,12.64,-0.19,0.04,0.16
3847,5.29,-2.72,12.64,-0.21,-0.19,0.35
3851,5.29,-2.72,12.64,-0.19,-0.17,0.40
3857,0.96,1.57,12.41,-0.19,-0.17,0.40
3862,0.96,1.57,12.41,-0.13,0.21,0.39
3866,0.96,1.57,12.41,-0.08,0.43,0.38
3872,0.96,1.57,12.41,-0.04,0.56,0.38
3876,0.96,1.57,12.41,0.06,0.57,0.40
3882,0.96,1.57,12.41,0.03,0.47,0.46
3886,0.96,1.57,12.41,0.02,0.27,0.53
3892,2.18,1.84,7.81,0.02,0.27,0.53
3896,2.18,1.84,7.81,-0.14,-0.17,0.55
3901,2.18,1.84,7.81,-0.23,-0.29,0.52
3907,2.18,1.84,7.81,-0.27,-0.31,0.48
3911,2.18,1.84,7.81,-0.28,-0.23,0.46
3916,2.18,1.84,7.81,-0.25,-0.10,0.46
3921,2.18,1.84,7.81,-0.22,0.05,0.49
3926,-1.76,-0.69,10.80,-0.22,0.05,0.49
3931,-1.76,-0.69,10.80,-0.19,0.17,0.54
3937,-1.76,-0.69,10.80,-0.15,0.21,0.56
3942,2.80,-1.80,10.73,-0.15,0.21,0.56
3946,2.80,-1.80,10.73,-0.17,0.05,0.55
3952,2.80,-1.80,10.73,-0.16,0.03,0.59
3956,2.80,-1.80,10.73,-0.13,0.09,0.62
3962,-2.84,2.53,8.20,-0.13,0.09,0.62
3967,-2.84,2.53,8.20,-0.11,0.22,0.54
3971,-2.84,2.53,8.20,-0.18,0.24,0.48
3977,-0.27,0.96,8.78,-0.18,0.24,0.48
3982,-0.27,0.96,8.78,-0.23,0.16,0.43
3986,-0.27,0.96,8.78,-0.31,0.07,0.38
3992,-0.27,0.96,8.78,-0.33,0.02,0.36
3997,1.00,1.72,12.06,-0.33,0.02,0.36
4002,1.00,1.72,12.06,-0.35,0.11,0.35
4006,1.00,1.72,12.06,-0.32,0.21,0.27
4012,-3.33,1.27,8.08,-0.32,0.21,0.27
4017,-3.33,1.27,8.08,-0.29,0.33,0.15
4021,-3.33,1.27,8.08,-0.28,0.32,0.14
4027,-3.33,1.27,8.08,-0.27,0.25,0.13
4032,-1.76,1.65,7.05,-0.27,0.25,0.13
4037,-1.76,1.65,7.05,-0.34,0.06,0.06
4041,-1.76,1.65,7.05,-0.38,-0.00,0.03
4047,0.92,2.45,11.38,-0.38,-0.00,0.03
4051,0.92,2.45,11.38,-0.48,-0.00,-0.10
4056,0.92,2.45,11.38,-0.48,0.07,-0.14
4062,0.92,2.45,11.38,-0.46,0.17,-0.16
4067,-3.95,0.15,8.54,-0.46,0.17,-0.16
4072,-3.95,0.15,8.54,-0.36,0.38,-0.20
4077,-3.95,0.15,8.54,-0.35,0.38,-0.25
4082,-3.18,1.04,8.74,-0.35,0.38,-0.25
4087,-3.18,1.04,8.74,-0.40,0.19,-0.33
4091,-3.18,1.04,8.74,-0.42,0.02,-0.33
4097,-3.18,1.04,8.74,-0.44,-0.11,-0.32
4102,1.57,-0.42,10.54,-0.44,-0.11,-0.32
4107,1.57,-0.42,10.54,-0.40,-0.07,-0.29
4111,1.57,-0.42,10.54,-0.34,0.07,-0.30
4117,-2.68,1.42,7.86,-0.34,0.07,-0.30
4122,-2.68,1.42,7.86,-0.32,0.32,-0.37
4126,-2.68,1.42,7.86,-0.30,0.33,-0.39
4132,-2.68,1.42,7.86,-0.34,0.24,-0.41
4137,-2.68,1.42,7.86,-0.35,0.08,-0.43
4141,-2.68,1.42,7.86,-0.37,-0.05,-0.42
4147,-2.68,1.42,7.86,-0.39,-0.17,-0.38
4152,1.53,0.80,10.57,-0.39,-0.17,-0.38
4157,1.53,0.80,10.57,-0.40,-0.18,-0.36
4161,1.53,0.80,10.57,-0.38,-0.07,-0.36
4167,-0.73,-1.00,11.19,-0.38,-0.07,-0.36
4171,-0.73,-1.00,11.19,-0.30,0.17,-0.34
4176,-0.73,-1.00,11.19,-0.25,0.25,-0.31
4182,-0.73,-1.00,11.19,-0.22,0.29,-0.29
4187,0.84,-0.50,8.96,-0.22,0.29,-0.29
4191,0.84,-0.50,8.96,-0.19,0.20,-0.26
4196,0.84,-0.50,8.96,-0.21,0.14,-0.26
4202,0.84,-0.50,8.96,-0.21,0.07,-0.25
4207,0.84,-0.50,8.96,-0.21,0.03,-0.22
4212,0.84,-0.50,8.96,-0.21,0.04,-0.21
4217,0.84,-0.50,8.96,-0.22,0.08,-0.21
4222,-1.57,0.77,9.50,-0.22,0.08,-0.21
4227,-1.57,0.77,9.50,-0.22,0.03,-0.18
4231,-1.57,0.77,9.50,-0.22,-0.06,-0.15
4237,1.76,0.46,9.23,-0.22,-0.06,-0.15
4242,1.76,0.46,9.23,-0.22,-0.18,-0.06
4246,1.76,0.46,9.23,-0.23,-0.17,-0.04
4251,1.76,0.46,9.23,-0.20,-0.09,-0.02
4257,-0.50,0.08,7.97,-0.20,-0.09,-0.02
4262,-0.50,0.08,7.97,-0.18,0.06,-0.00
4266,-0.50,0.08,7.97,-0.19,0.09,-0.01
4272,-1.53,-1.00,10.73,-0.19,0.09,-0.01
4277,-1.53,-1.00,10.73,-0.19,0.06,-0.03
4281,-1.53,-1.00,10.73,-0.17,0.03,-0.00
4287,-1.53,-1.00,10.73,-0.17,-0.02,0.02
4292,1.88,-2.49,9.69,-0.17,-0.02,0.02
4296,1.88,-2.49,9.69,-0.12,-0.10,0.06
4302,1.88,-2.49,9.69,-0.11,-0.09,0.08
4307,0.57,-1.49,8.85,-0.11,-0.09,0.08
4312,0.57,-1.49,8.85,-0.06,0.01,0.08
4316,0.57,-1.49,8.85,-0.05,0.08,0.06
4322,0.57,-1.49,8.85,-0.02,0.14,0.06
4327,-1.53,-2.07,11.46,-0.02,0.14,0.06
4332,-1.53,-2.07,11.46,0.03,0.13,0.12
4336,-1.53,-2.07,11.46,0.01,0.05,0.13
4342,-1.53,-2.07,11.46,-0.02,-0.01,0.12
4346,-1.53,-2.07,11.46,-0.03,-0.06,0.11
4351,-1.53,-2.07,11.46,-0.03,-0.04,0.11
4357,-1.07,0.65,7.78,-0.03,-0.04,0.11
4362,-1.49,-0.04,7.85,-0.03,-0.04,0.11
4366,-1.49,-0.04,7.85,-0.04,0.07,0.07
4372,-1.49,-0.04,7.85,-0.03,0.08,0.08
4377,-2.87,-0.23,9.00,-0.03,0.08,0.08
4382,-2.87,-0.23,9.00,-0.05,0.10,0.09
4386,-2.87,-0.23,9.00,-0.06,0.08,0.06
4392,-3.22,0.11,8.73,-0.06,0.08,0.06
4397,-3.22,0.11,8.73,-0.07,0.01,-0.03
4401,-3.22,0.11,8.73,-0.06,-0.06,-0.03
4407,-3.22,0.11,8.73,-0.06,-0.10,-0.02
4412,2.14,1.42,8.43,-0.06,-0.10,-0.02
4417,2.14,1.42,8.43,-0.12,-0.15,-0.01
4421,2.14,1.42,8.43,-0.13,-0.13,-0.05
4427,1.34,0.00,11.15,-0.13,-0.13,-0.05
4431,1.34,0.00,11.15,-0.13,0.01,-0.07
4436,1.34,0.00,11.15,-0.12,0.11,-0.06
4442,1.34,0.00,11.15,-0.09,0.19,-0.03
4447,-2.11,0.08,11.53,-0.09,0.19,-0.03
4451,-2.11,0.08,11.53,-0.05,0.31,-0.03
4456,-2.11,0.08,11.53,-0.04,0.32,-0.02
4462,-2.11,0.08,11.53,-0.03,0.28,-0.02
4466,-2.11,0.08,11.53,-0.05,0.21,-0.00
4471,-2.11,0.08,11.53,-0.07,0.12,-0.01
4477,-2.11,0.08,11.53,-0.09,0.01,-0.03
4482,-1.65,0.00,7.01,-0.09,0.01,-0.03
4487,-1.65,0.00,7.01,-0.13,-0.20,-0.04
4491,-1.65,0.00,7.01,-0.15,-0.25,-0.04
4497,-0.77,-0.46,13.52,-0.15,-0.25,-0.04
4501,-0.77,-0.46,13.52,-0.13,-0.16,-0.09
4506,-0.77,-0.46,13.52,-0.11,-0.06,-0.09
4512,-0.77,-0.46,13.52,-0.11,0.04,-0.10
4516,-0.77,-0.46,13.52,-0.09,0.15,-0.13
4521,-0.77,-0.46,13.52,-0.06,0.21,-0.15
4527,-0.77,-0.46,13.52,-0.07,0.24,-0.13
4532,0.84,0.73,8.31,-0.07,0.24,-0.13
4537,0.84,0.73,8.31,-0.12,0.11,-0.13
4541,0.84,0.73,8.31,-0.14,0.04,-0.17
4547,0.84,0.73,8.31,-0.16,-0.00,-0.20
4551,0.84,0.73,8.31,-0.13,-0.00,-0.19
4556,0.84,0.73,8.31,-0.13,0.02,-0.17
4562,0.84,0.73,8.31,-0.12,0.07,-0.16
4567,-0.92,0.69,8.77,-0.12,0.07,-0.16
4572,-0.92,0.69,8.77,-0.13,0.03,-0.13
4576,-0.92,0.69,8.77,-0.13,-0.04,-0.14
4582,-0.92,0.69,8.77,-0.13,-0.12,-0.18
4586,-0.92,0.69,8.77,-0.14,-0.18,-0.20
4591,-0.92,0.69,8.77,-0.15,-0.20,-0.20
4596,-0.92,0.69,8.77,-0.11,-0.14,-0.20
4602,-0.92,0.69,8.77,-0.09,-0.04,-0.17
4606,-0.92,0.69,8.77,-0.09,0.05,-0.13
4611,-0.92,0.69,8.77,-0.09,0.14,-0.12
4616,0.15,-0.57,9.77,-0.09,0.14,-0.12
4622,-0.73,-0.30,9.34,-0.09,0.14,-0.12
4626,-0.73,-0.30,9.34,-0.06,0.19,-0.13
4631,-0.73,-0.30,9.34,-0.05,0.16,-0.10
4637,0.73,-0.57,10.27,-0.05,0.16,-0.10
4641,0.73,-0.57,10.27,-0.03,0.05,-0.03
4646,0.73,-0.57,10.27,-0.03,0.01,-0.02
4652,0.11,-0.61,11.26,-0.03,0.01,-0.02
4656,0.11,-0.61,11.26,-0.01,0.03,0.00
4661,0.11,-0.61,11.26,-0.03,0.06,0.00
4666,0.11,-0.61,11.26,-0.01,0.09,-0.01
4672,-1.30,0.15,7.51,-0.01,0.09,-0.01
4676,-1.30,0.15,7.51,-0.01,0.04,0.01
4681,-1.30,0.15,7.51,-0.04,-0.05,0.02
4687,0.88,0.19,8.73,-0.04,-0.05,0.02
4691,0.88,0.19,8.73,-0.08,-0.14,-0.09
4696,0.88,0.19,8.73,-0.08,-0.11,-0.14
4702,0.88,0.19,8.73,-0.06,-0.04,-0.16
4706,0.88,0.19,8.73,-0.03,0.05,-0.14
4711,0.88,0.19,8.73,-0.02,0.11,-0.10
4716,0.88,0.19,8.73,-0.00,0.12,-0.11
4722,0.88,0.19,8.73,-0.01,0.11,-0.15
4726,0.88,0.19,8.73,-0.03,0.05,-0.19
4731,0.88,0.19,8.73,-0.04,-0.04,-0.21
4736,0.88,0.19,8.73,-0.02,-0.10,-0.21
4742,2.57,0.80,10.65,-0.02,-0.10,-0.21
4746,2.57,0.80,10.65,-0.02,-0.10,-0.24
4751,2.57,0.80,10.65,-0.03,-0.02,-0.25
4757,-0.80,1.46,9.58,-0.03,-0.02,-0.25
4761,-0.80,1.46,9.58,-0.02,0.19,-0.25
4766,-0.80,1.46,9.58,-0.02,0.26,-0.26
4772,-0.80,1.46,9.58,-0.02,0.27,-0.24
4776,-0.80,1.46,9.58,-0.02,0.24,-0.21
4781,-0.80,1.46,9.58,-0.02,0.16,-0.17
4786,-0.80,1.46,9.58,-0.01,0.04,-0.14
4792,0.04,1.27,9.00,-0.01,0.04,-0.14
4796,0.04,1.27,9.00,-0.01,-0.11,-0.12
4801,0.04,1.27,9.00,-0.01,-0.13,-0.08
4807,0.04,1.27,9.00,0.01,-0.12,-0.02
4811,0.04,1.27,9.00,0.04,-0.08,0.03
4816,0.04,1.27,9.00,0.06,-0.02,0.06
4821,0.04,1.27,9.00,0.06,0.04,0.07
4827,-1.23,-0.69,9.61,0.06,0.04,0.07
4831,-1.23,-0.69,9.61,0.09,0.04,0.08
4836,-1.23,-0.69,9.61,0.07,0.02,0.07
4842,-1.23,-0.69,9.61,0.07,-0.02,0.04
4846,-1.23,-0.69,9.61,0.08,-0.06,0.03
4851,-1.23,-0.69,9.61,0.09,-0.08,0.05
4856,-1.23,-0.69,9.61,0.10,-0.09,0.09
4862,-1.23,-0.69,9.61,0.09,-0.09,0.09
4866,-1.23,-0.69,9.61,0.11,-0.07,0.07
4871,-1.23,-0.69,9.61,0.11,-0.02,0.02
4876,-1.65,-2.84,10.88,0.11,-0.02,0.02
4882,-0.19,-3.26,10.65,0.11,-0.02,0.02
4886,-0.19,-3.26,10.65,0.14,0.12,0.07
4892,-0.19,-3.26,10.65,0.15,0.10,0.11
4896,-0.19,-3.26,10.65,0.15,0.07,0.12
4901,-0.19,-3.26,10.65,0.15,0.04,0.13
4906,-0.19,-3.26,10.65,0.15,-0.00,0.17
4912,-2.22,-3.07,6.89,0.15,-0.00,0.17
4916,-2.22,-3.07,6.89,0.20,-0.08,0.28
4921,-2.22,-3.07,6.89,0.21,-0.13,0.33
4827,-1.23,-0.69,9.61,0.06,0.04,0.07
4831,-1.23,-0.69,9.61,0.09,0.04,0.08
4836,-1.23,-0.69,9.61,0.07,0.02,0.07
4842,-1.23,-0.69,9.61,0.07,-0.02,0.04
4846,-1.23,-0.69,9.61,0.08,-0.06,0.03
4851,-1.23,-0.69,9.61,0.09,-0.08,0.05
4856,-1.23,-0.69,9.61,0.10,-0.09,0.09
4862,-1.23,-0.69,9.61,0.09,-0.09,0.09
4866,-1.23,-0.69,9.61,0.11,-0.07,0.07
4871,-1.23,-0.69,9.61,0.11,-0.02,0.02
4876,-1.65,-2.84,10.88,0.11,-0.02,0.02
4882,-0.19,-3.26,10.65,0.11,-0.02,0.02
4886,-0.19,-3.26,10.65,0.14,0.12,0.07
4892,-0.19,-3.26,10.65,0.15,0.10,0.11
4896,-0.19,-3.26,10.65,0.15,0.07,0.12
