timestamp,accX,accY,accZ,gyroX,gyroY,gyroZ
Straight
6,-2.34,-0.19,9.12,-0.05,-0.03,-0.22
19,-0.08,0.15,8.81,-0.05,-0.03,-0.22
20,-0.08,0.15,8.81,-0.12,-0.02,-0.16
21,-0.19,-0.73,8.32,-0.12,-0.02,-0.16
26,-0.19,-0.73,8.32,-0.01,0.00,-0.23
31,-1.99,-0.30,8.46,-0.01,0.00,-0.23
37,-1.99,-0.30,8.46,-0.01,0.07,-0.19
42,-2.99,0.84,7.74,-0.01,0.07,-0.19
46,-2.99,0.84,7.74,-0.01,0.13,-0.10
51,-2.99,0.84,7.74,-0.02,0.08,-0.08
56,-2.99,0.84,7.74,-0.02,0.02,-0.10
62,2.14,-0.15,9.04,-0.02,0.02,-0.10
66,2.14,-0.15,9.04,-0.02,-0.09,-0.18
72,2.14,-0.15,9.04,0.00,-0.06,-0.19
77,-1.95,-0.15,11.54,0.00,-0.06,-0.19
81,-1.95,-0.15,11.54,-0.00,0.11,-0.12
86,-1.95,-0.15,11.54,0.03,0.18,-0.09
92,0.46,1.11,7.51,0.03,0.18,-0.09
96,0.46,1.11,7.51,-0.04,0.12,-0.08
101,0.46,1.11,7.51,-0.06,0.03,-0.12
106,0.46,1.11,7.51,-0.06,-0.04,-0.18
112,0.30,-0.80,8.20,-0.06,-0.04,-0.18
116,0.30,-0.80,8.20,-0.07,-0.07,-0.15
121,0.30,-0.80,8.20,-0.05,0.01,-0.15
127,1.46,-0.80,11.46,-0.05,0.01,-0.15
131,1.46,-0.80,11.46,-0.03,0.06,-0.08
136,1.46,-0.80,11.46,-0.01,0.12,-0.12
141,1.46,-0.80,11.46,-0.04,0.20,-0.17
147,-1.76,-0.30,6.74,-0.04,0.20,-0.17
151,-1.76,-0.30,6.74,-0.03,0.09,-0.02
156,-1.76,-0.30,6.74,-0.04,0.00,0.04
162,-1.76,-0.30,6.74,-0.03,-0.09,0.05
166,-1.76,-0.30,6.74,-0.06,-0.13,0.06
171,-1.76,-0.30,6.74,-0.09,-0.13,0.05
176,-1.76,-0.30,6.74,-0.03,-0.11,0.06
182,-1.76,-0.30,6.74,0.02,-0.07,0.09
186,-1.76,-0.30,6.74,0.05,-0.00,0.12
191,-1.76,-0.30,6.74,0.04,0.04,0.15
196,-1.76,-0.30,6.74,0.03,0.04,0.14
201,-1.76,-0.30,6.74,0.01,0.04,0.08
206,-1.76,-0.30,6.74,-0.03,0.08,-0.01
211,-1.76,-0.30,6.74,-0.05,0.09,-0.04
217,-1.72,1.38,6.25,-0.05,0.09,-0.04
221,-1.72,1.38,6.25,-0.11,0.05,0.05
226,-1.72,1.38,6.25,-0.11,-0.01,0.02
232,-5.55,0.38,8.84,-0.11,-0.01,0.02
236,-5.55,0.38,8.84,-0.12,0.04,-0.11
241,-5.55,0.38,8.84,-0.08,-0.02,-0.04
246,-5.55,0.38,8.84,-0.05,-0.04,0.02
251,-0.57,-2.72,10.73,-0.05,-0.04,0.02
256,-0.57,-2.72,10.73,-0.02,-0.09,-0.02
261,-0.57,-2.72,10.73,-0.02,-0.18,-0.00
267,5.17,-0.69,10.91,-0.02,-0.18,-0.00
271,5.17,-0.69,10.91,-0.05,-0.18,-0.10
276,5.17,-0.69,10.91,-0.03,-0.12,-0.14
282,5.17,-0.69,10.91,-0.00,0.02,-0.16
286,5.17,-0.69,10.91,0.03,0.12,-0.16
291,5.17,-0.69,10.91,0.04,0.24,-0.17
296,5.17,-0.69,10.91,0.04,0.33,-0.19
302,5.17,-0.69,10.91,0.01,0.31,-0.15
306,5.17,-0.69,10.91,-0.04,0.22,-0.11
311,5.17,-0.69,10.91,-0.09,0.11,-0.14
316,5.17,-0.69,10.91,-0.11,-0.04,-0.21
322,-0.77,-0.73,7.55,-0.11,-0.04,-0.21
326,-0.77,-0.73,7.55,-0.11,-0.14,-0.29
331,-0.77,-0.73,7.55,-0.03,-0.13,-0.21
337,-1.88,-1.27,10.19,-0.03,-0.13,-0.21
341,-1.88,-1.27,10.19,0.05,-0.01,-0.04
346,-1.88,-1.27,10.19,0.03,0.04,-0.04
352,0.42,0.65,10.00,0.03,0.04,-0.04
356,0.42,0.65,10.00,0.04,-0.02,-0.11
361,0.42,0.65,10.00,0.01,-0.03,-0.16
366,0.42,0.65,10.00,0.02,-0.07,-0.14
372,0.50,-0.77,10.84,0.02,-0.07,-0.14
376,0.50,-0.77,10.84,0.04,-0.08,-0.08
381,0.50,-0.77,10.84,0.04,-0.08,-0.11
387,-2.95,-1.07,10.96,0.04,-0.08,-0.11
391,-2.95,-1.07,10.96,-0.02,0.09,-0.24
396,-2.95,-1.07,10.96,-0.01,0.08,-0.22
402,-2.95,-1.07,10.96,-0.03,0.06,-0.23
406,-2.95,-1.07,10.96,-0.00,0.04,-0.26
411,-2.95,-1.07,10.96,0.01,0.04,-0.30
416,-2.95,-1.07,10.96,-0.00,0.12,-0.28
422,-2.95,-1.07,10.96,0.01,0.18,-0.22
426,-2.95,-1.07,10.96,0.03,0.15,-0.15
431,-2.95,-1.07,10.96,-0.02,0.15,-0.16
436,-2.95,-1.07,10.96,-0.03,0.16,-0.22
442,-2.95,-1.07,10.96,0.02,0.06,-0.18
446,-2.95,-1.07,10.96,0.03,-0.03,-0.07
451,-2.95,-1.07,10.96,0.04,-0.05,-0.01
457,0.73,0.27,7.09,0.04,-0.05,-0.01
461,0.73,0.27,7.09,0.06,-0.08,0.06
466,0.73,0.27,7.09,0.03,-0.05,0.04
472,0.73,0.27,7.09,0.05,-0.04,0.04
476,0.73,0.27,7.09,0.05,-0.03,0.07
481,0.73,0.27,7.09,0.06,-0.02,0.10
486,0.73,0.27,7.09,0.08,-0.06,0.13
491,-3.07,-0.88,10.07,0.08,-0.06,0.13
496,-3.07,-0.88,10.07,0.09,-0.05,0.11
501,-3.07,-0.88,10.07,0.07,-0.09,0.10
506,-3.07,-0.88,10.07,0.04,-0.10,0.08
511,-3.07,-0.88,10.07,0.05,-0.07,0.04
516,-3.07,-0.88,10.07,-0.03,-0.06,0.02
521,-3.07,-0.88,10.07,-0.16,-0.08,-0.02
527,-1.15,0.84,11.96,-0.16,-0.08,-0.02
531,-1.15,0.84,11.96,-0.02,-0.01,-0.18
536,-1.15,0.84,11.96,0.07,-0.05,-0.07
542,-1.15,0.84,11.96,0.10,0.06,-0.01
546,-1.15,0.84,11.96,0.04,0.08,-0.03
551,-1.15,0.84,11.96,0.03,0.10,-0.12
556,-1.15,0.84,11.96,0.04,0.19,-0.21
562,-1.15,0.84,11.96,0.02,0.14,-0.14
566,-1.15,0.84,11.96,0.03,0.03,-0.00
571,-1.15,0.84,11.96,0.00,-0.01,-0.01
577,-1.15,0.84,11.96,-0.02,-0.07,-0.09
581,-1.15,0.84,11.96,0.01,-0.15,-0.14
586,-1.15,0.84,11.96,0.07,-0.16,-0.16
592,-1.15,0.84,11.96,0.07,-0.04,-0.19
596,-1.15,0.84,11.96,0.04,0.08,-0.17
601,-1.15,0.84,11.96,0.05,0.12,-0.14
606,-1.15,0.84,11.96,0.08,0.13,-0.19
612,-2.07,-0.80,8.16,0.08,0.13,-0.19
616,-2.07,-0.80,8.16,0.02,0.02,-0.32
621,-2.07,-0.80,8.16,0.04,-0.08,-0.28
627,-2.07,-0.80,8.16,0.08,-0.15,-0.22
631,-2.07,-0.80,8.16,0.05,-0.14,-0.24
636,-2.07,-0.80,8.16,0.04,-0.09,-0.30
641,-2.07,-0.80,8.16,0.07,-0.02,-0.37
647,-3.33,-0.19,8.01,0.07,-0.02,-0.37
651,-3.33,-0.19,8.01,0.04,0.14,-0.43
656,-3.33,-0.19,8.01,0.05,0.12,-0.37
661,-3.33,-0.19,8.01,0.08,0.07,-0.32
666,-3.33,-0.19,8.01,0.05,0.03,-0.34
671,-3.33,-0.19,8.01,0.05,-0.04,-0.36
676,-3.33,-0.19,8.01,0.03,-0.05,-0.39
682,-3.33,-0.19,8.01,0.01,-0.04,-0.39
686,-3.33,-0.19,8.01,0.00,-0.04,-0.36
691,-3.33,-0.19,8.01,0.05,-0.04,-0.35
696,-3.33,-0.19,8.01,0.06,-0.03,-0.36
702,-3.33,-0.19,8.01,0.10,-0.01,-0.31
706,-3.33,-0.19,8.01,0.12,-0.02,-0.24
711,-3.33,-0.19,8.01,0.13,-0.04,-0.21
716,0.08,-0.42,7.55,0.13,-0.04,-0.21
721,0.08,-0.42,7.55,0.10,-0.11,-0.26
726,0.08,-0.42,7.55,0.10,-0.14,-0.22
732,0.08,-0.42,7.55,0.13,-0.16,-0.18
736,0.08,-0.42,7.55,0.17,-0.15,-0.16
741,1.23,-4.41,14.44,0.17,-0.15,-0.16
746,1.23,-4.41,14.44,0.23,-0.03,-0.09
752,-1.88,-2.03,9.31,0.23,-0.03,-0.09
756,-1.88,-2.03,9.31,0.25,0.14,0.06
761,-1.88,-2.03,9.31,0.24,0.21,0.14
767,-1.88,-2.03,9.31,0.25,0.18,0.22
771,-1.88,-2.03,9.31,0.25,0.10,0.30
776,-1.88,-2.03,9.31,0.24,0.01,0.36
782,-1.88,-2.03,9.31,0.26,-0.09,0.40
786,-1.88,-2.03,9.31,0.29,-0.17,0.44
791,-1.88,-2.03,9.31,0.33,-0.16,0.49
796,-1.88,-2.03,9.31,0.38,-0.10,0.57
801,-1.88,-2.03,9.31,0.43,-0.03,0.65
806,-1.88,-2.03,9.31,0.44,0.03,0.68
811,-1.88,-2.03,9.31,0.44,0.08,0.66
816,-1.88,-2.03,9.31,0.41,0.06,0.66
822,-1.88,-2.03,9.31,0.39,0.01,0.63
827,-1.88,-2.03,9.31,0.35,-0.04,0.61
831,1.11,-2.57,8.54,0.35,-0.04,0.61
836,2.45,-1.84,9.23,0.35,-0.04,0.61
841,2.45,-1.84,9.23,0.25,-0.25,0.55
846,2.45,-1.84,9.23,0.23,-0.26,0.50
852,2.45,-1.84,9.23,0.27,-0.19,0.48
857,2.45,-1.84,9.23,0.27,-0.12,0.52
861,-2.64,-0.54,11.42,0.27,-0.12,0.52
866,-1.65,-0.69,11.88,0.27,-0.12,0.52
871,-1.65,-0.69,11.88,0.25,0.11,0.55
876,-1.65,-0.69,11.88,0.26,0.12,0.53
881,-1.65,-0.69,11.88,0.25,0.12,0.51
886,-1.65,-0.69,11.88,0.21,0.08,0.53
891,-1.65,-0.69,11.88,0.23,0.05,0.56
896,2.76,-1.30,9.58,0.23,0.05,0.56
901,-1.15,0.42,10.11,0.23,0.05,0.56
907,-1.15,0.42,10.11,0.17,-0.06,0.60
911,0.65,0.42,11.92,0.17,-0.06,0.60
916,-2.18,2.41,9.08,0.17,-0.06,0.60
922,-2.18,2.41,9.08,0.16,0.02,0.62
927,-2.18,2.41,9.08,0.10,0.09,0.60
931,-1.27,0.46,8.43,0.10,0.09,0.60
936,-3.75,2.57,5.66,0.10,0.09,0.60
942,-3.75,2.57,5.66,0.05,0.00,0.54
947,-3.75,2.57,5.66,0.03,-0.02,0.52
951,0.30,3.48,8.32,0.03,-0.02,0.52
956,-3.14,3.03,8.58,0.03,-0.02,0.52
962,-3.14,3.03,8.58,-0.04,-0.08,0.45
967,-3.14,3.03,8.58,-0.04,-0.00,0.38
971,-0.54,2.03,8.32,-0.04,-0.00,0.38
976,-0.96,0.88,11.22,-0.04,-0.00,0.38
981,-1.88,-0.27,9.80,-0.04,-0.00,0.38
986,-1.88,-0.27,9.80,-0.12,-0.02,0.22
992,-1.88,-0.27,9.80,-0.13,0.01,0.23
997,-1.88,-0.27,9.80,-0.13,0.01,0.21
1001,-0.27,0.42,9.46,-0.13,0.01,0.21
1006,-0.15,1.27,10.11,-0.13,0.01,0.21
1012,-0.15,1.27,10.11,-0.22,0.08,0.07
1016,0.92,3.26,8.36,-0.22,0.08,0.07
1021,-0.77,2.34,10.27,-0.22,0.08,0.07
1027,-0.77,2.34,10.27,-0.26,0.06,-0.04
1031,-0.77,2.34,10.27,-0.23,0.06,-0.03
1036,2.03,0.61,9.16,-0.23,0.06,-0.03
1041,3.56,0.15,8.58,-0.23,0.06,-0.03
1047,3.56,0.15,8.58,-0.30,-0.05,-0.16
1051,-0.38,0.84,9.73,-0.30,-0.05,-0.16
1056,-1.07,2.22,11.26,-0.30,-0.05,-0.16
1061,0.38,1.19,10.49,-0.30,-0.05,-0.16
1066,0.38,1.19,10.49,-0.30,0.12,-0.24
1071,0.38,1.19,10.49,-0.30,0.12,-0.27
1076,0.38,1.19,10.49,-0.33,0.09,-0.31
1082,0.38,1.19,10.49,-0.33,0.02,-0.34
1087,0.38,1.19,10.49,-0.32,-0.02,-0.35
1091,0.30,0.65,9.20,-0.32,-0.02,-0.35
1096,-0.23,1.46,8.50,-0.32,-0.02,-0.35
1101,-0.23,1.46,8.50,-0.31,0.04,-0.40
1106,-0.23,1.46,8.50,-0.29,0.04,-0.43
1111,-0.23,1.46,8.50,-0.30,0.05,-0.46
1116,-0.23,1.46,8.50,-0.30,0.09,-0.48
1121,-0.23,1.38,10.50,-0.30,0.09,-0.48
1126,0.11,0.80,10.61,-0.30,0.09,-0.48
1132,-2.45,2.64,10.77,-0.30,0.09,-0.48
1136,2.26,0.38,10.73,-0.30,0.09,-0.48
1141,2.61,0.50,9.85,-0.30,0.09,-0.48
1147,2.61,0.50,9.85,-0.31,-0.02,-0.50
1151,2.61,0.50,9.85,-0.27,-0.04,-0.52
1156,-1.88,-0.54,7.32,-0.27,-0.04,-0.52
1161,-4.64,1.57,6.47,-0.27,-0.04,-0.52
1166,-4.64,1.57,6.47,-0.28,0.11,-0.52
1171,0.65,2.57,8.08,-0.28,0.11,-0.52
1176,-0.96,1.00,10.45,-0.28,0.11,-0.52
1182,-0.96,1.00,10.45,-0.29,-0.00,-0.54
1186,-0.96,1.00,10.45,-0.32,-0.09,-0.54
1191,1.72,-1.46,11.41,-0.32,-0.09,-0.54
1196,1.04,0.11,12.38,-0.32,-0.09,-0.54
1202,1.04,0.11,12.38,-0.25,-0.08,-0.52
1206,-3.07,0.50,8.85,-0.25,-0.08,-0.52
1211,-2.45,0.08,8.82,-0.25,-0.08,-0.52
1216,-2.45,0.08,8.82,-0.17,0.24,-0.44
1221,-2.45,0.08,8.82,-0.18,0.26,-0.45
1227,-2.45,0.08,8.82,-0.19,0.23,-0.47
1231,1.88,1.19,10.15,-0.19,0.23,-0.47
1236,1.99,-1.42,10.11,-0.19,0.23,-0.47
1241,-1.27,-0.04,9.12,-0.19,0.23,-0.47
1246,-1.27,-0.04,9.12,-0.23,0.01,-0.43
1252,-1.27,-0.04,9.12,-0.21,0.07,-0.42
1256,-2.30,-0.50,7.59,-0.21,0.07,-0.42
1261,-3.37,1.27,8.85,-0.21,0.07,-0.42
1267,-3.37,1.27,8.85,-0.13,0.09,-0.35
1271,-3.37,1.27,8.85,-0.14,0.04,-0.32
1276,2.18,-1.27,11.30,-0.14,0.04,-0.32
1281,2.18,-1.27,11.30,-0.11,-0.12,-0.25
1286,0.57,-0.50,9.69,-0.11,-0.12,-0.25
1291,-2.45,-1.07,7.73,-0.11,-0.12,-0.25
1297,-2.45,-1.07,7.73,-0.08,-0.09,-0.22
1302,0.54,-1.76,10.15,-0.08,-0.09,-0.22
1306,-2.30,-3.07,10.49,-0.08,-0.09,-0.22
1311,-2.57,-2.11,10.53,-0.08,-0.09,-0.22
1317,-2.57,-2.11,10.53,-0.03,0.03,-0.13
1321,-1.15,-3.71,9.58,-0.03,0.03,-0.13
1326,-1.61,-3.22,8.66,-0.03,0.03,-0.13
1331,-1.72,-1.99,10.31,-0.03,0.03,-0.13
1337,-1.72,-1.99,10.31,0.04,-0.00,-0.04
1341,-2.07,-2.72,9.12,0.04,-0.00,-0.04
1346,-2.07,-2.80,9.73,0.04,-0.00,-0.04
1351,-2.03,-2.45,10.61,0.04,-0.00,-0.04
1356,-0.34,-4.10,10.92,0.04,-0.00,-0.04
1362,-0.34,-4.10,10.92,0.10,-0.01,-0.06
1366,0.11,-3.22,11.19,0.10,-0.01,-0.06
1371,-1.07,-1.68,9.42,0.10,-0.01,-0.06
1376,-1.07,-1.68,9.42,0.14,0.02,-0.04
1381,-1.80,-1.11,6.71,0.14,0.02,-0.04
1386,0.65,-2.49,8.27,0.14,0.02,-0.04
1391,-0.92,-0.27,7.97,0.14,0.02,-0.04
1396,-3.29,-0.08,8.66,0.14,0.02,-0.04
1401,-1.99,-1.99,9.16,0.14,0.02,-0.04
1406,0.65,-2.45,8.54,0.14,0.02,-0.04
1411,0.65,-2.45,8.54,0.12,-0.08,-0.08
1416,-2.38,-0.65,11.50,0.12,-0.08,-0.08
1421,-2.38,-1.04,8.88,0.12,-0.08,-0.08
1427,-2.38,-1.04,8.88,0.12,-0.05,-0.11
1431,1.84,-2.03,8.84,0.12,-0.05,-0.11
1436,-0.96,-1.42,9.96,0.12,-0.05,-0.11
1441,1.38,-0.80,11.04,0.12,-0.05,-0.11
1446,3.75,-2.41,10.49,0.12,-0.05,-0.11
1451,0.42,-0.15,9.43,0.12,-0.05,-0.11
1456,-0.80,-0.42,9.16,0.12,-0.05,-0.11
1462,-1.80,0.84,9.69,0.12,-0.05,-0.11
1466,0.38,0.54,11.45,0.12,-0.05,-0.11
1471,-2.26,0.46,9.69,0.12,-0.05,-0.11
1476,-1.07,1.00,10.07,0.12,-0.05,-0.11
1482,-0.57,0.69,9.39,0.12,-0.05,-0.11
1486,3.68,0.08,10.39,0.12,-0.05,-0.11
1491,2.68,0.88,8.16,0.12,-0.05,-0.11
1496,2.68,0.88,8.16,0.12,-0.18,-0.09
1501,0.23,0.46,8.27,0.12,-0.18,-0.09
1506,0.27,-0.15,9.96,0.12,-0.18,-0.09
1511,-1.30,0.77,9.42,0.12,-0.18,-0.09
1516,-0.61,-1.07,11.34,0.12,-0.18,-0.09
1521,-2.45,-0.34,9.84,0.12,-0.18,-0.09
1526,-0.77,-0.15,10.88,0.12,-0.18,-0.09
1532,-0.77,-0.15,10.88,0.11,0.04,-0.08
1536,2.45,-0.80,9.27,0.11,0.04,-0.08
1541,0.54,-1.00,10.03,0.11,0.04,-0.08
1546,0.54,-0.80,7.59,0.11,0.04,-0.08
1551,0.92,-1.23,8.54,0.11,0.04,-0.08
1556,-0.23,-0.80,8.96,0.11,0.04,-0.08
1561,-0.84,-1.27,9.54,0.11,0.04,-0.08
1567,-0.84,-1.27,9.54,0.13,0.01,0.02
1571,-0.96,-1.65,8.12,0.13,0.01,0.02
1576,-0.96,-1.65,8.12,0.16,0.04,0.06
1581,-0.96,-1.11,9.65,0.16,0.04,0.06
1586,0.92,-0.80,10.50,0.16,0.04,0.06
1591,1.00,-0.92,9.61,0.16,0.04,0.06
1596,0.27,-0.30,10.15,0.16,0.04,0.06
1601,0.08,-1.88,10.27,0.16,0.04,0.06
1606,-3.37,-1.61,7.59,0.16,0.04,0.06
1611,-4.94,-3.18,8.62,0.16,0.04,0.06
1616,-3.91,-0.30,6.51,0.16,0.04,0.06
1621,-3.91,-0.30,6.51,0.22,0.12,0.14
1627,-3.18,0.04,5.21,0.22,0.12,0.14
1631,0.30,-0.84,6.55,0.22,0.12,0.14
1636,1.42,-0.42,7.47,0.22,0.12,0.14
1641,-1.68,-0.23,8.66,0.22,0.12,0.14
1646,0.69,-0.08,10.42,0.22,0.12,0.14
1651,1.99,-1.76,11.76,0.22,0.12,0.14
1656,-0.19,-1.68,13.21,0.22,0.12,0.14
1661,-0.19,-1.68,13.21,0.21,-0.08,0.28
1666,-1.84,-1.95,9.50,0.21,-0.08,0.28
1671,-3.29,-0.42,7.82,0.21,-0.08,0.28
1676,-0.96,-1.68,8.50,0.21,-0.08,0.28
1682,-1.65,-0.42,9.00,0.21,-0.08,0.28
1686,-2.30,0.80,9.58,0.21,-0.08,0.28
1691,-0.27,0.73,9.39,0.21,-0.08,0.28
1696,-0.34,0.08,10.30,0.21,-0.08,0.28
1701,-0.54,-1.27,10.61,0.21,-0.08,0.28
1706,-2.34,-1.34,10.15,0.21,-0.08,0.28
1711,-2.34,-1.34,10.15,0.16,-0.01,0.25
1716,-2.34,-1.34,10.15,0.16,0.01,0.28
1722,-3.18,0.54,9.12,0.16,0.01,0.28
1727,-5.36,1.53,7.78,0.16,0.01,0.28
1731,-5.36,1.53,7.78,0.11,-0.06,0.28
1736,-5.36,1.53,7.78,0.06,-0.14,0.22
1741,-0.46,0.38,8.46,0.06,-0.14,0.22
1746,0.57,-0.61,10.92,0.06,-0.14,0.22
1752,-1.15,-0.04,9.77,0.06,-0.14,0.22
1756,-0.46,0.04,9.80,0.06,-0.14,0.22
1761,-1.15,-1.11,9.23,0.06,-0.14,0.22
1766,-2.57,-0.30,10.00,0.06,-0.14,0.22
1772,-2.72,0.92,10.31,0.06,-0.14,0.22
1776,0.69,0.61,11.04,0.06,-0.14,0.22
1781,0.69,0.61,11.04,0.01,-0.04,0.17
1786,-0.77,0.08,11.42,0.01,-0.04,0.17
1791,0.84,0.65,11.84,0.01,-0.04,0.17
1796,1.65,-1.23,12.14,0.01,-0.04,0.17
1801,-0.23,-0.30,8.62,0.01,-0.04,0.17
1807,-2.26,0.19,9.34,0.01,-0.04,0.17
1812,1.11,0.50,12.68,0.01,-0.04,0.17
1816,1.11,0.50,12.68,0.04,0.09,0.20
1821,0.80,-0.38,10.23,0.04,0.09,0.20
1826,1.38,1.04,9.96,0.04,0.09,0.20
1831,-3.60,1.04,7.51,0.04,0.09,0.20
1836,-2.76,0.77,7.47,0.04,0.09,0.20
1841,-0.84,1.65,8.82,0.04,0.09,0.20
1846,2.72,-0.80,8.66,0.04,0.09,0.20
1851,2.72,-0.80,8.66,-0.04,-0.15,0.16
1856,2.72,-0.80,8.66,-0.09,-0.17,0.10
1861,-1.80,1.80,7.59,-0.09,-0.17,0.10
1866,-1.19,1.57,9.12,-0.09,-0.17,0.10
1871,-1.46,0.80,7.16,-0.09,-0.17,0.10
1877,-0.88,0.38,9.35,-0.09,-0.17,0.10
1881,1.42,-1.04,12.10,-0.09,-0.17,0.10
1886,1.42,-1.04,12.10,-0.12,-0.10,0.03
1891,4.21,-1.53,12.10,-0.12,-0.10,0.03
1896,3.48,-0.27,11.76,-0.12,-0.10,0.03
1901,0.04,0.30,11.92,-0.12,-0.10,0.03
1906,-0.57,-0.61,10.65,-0.12,-0.10,0.03
1911,-1.00,0.27,11.30,-0.12,-0.10,0.03
1916,-0.50,0.50,10.57,-0.12,-0.10,0.03
1921,-0.50,0.50,10.57,-0.08,0.23,0.07
1926,-0.08,0.30,11.11,-0.08,0.23,0.07
1931,1.68,-0.11,8.08,-0.08,0.23,0.07
1936,0.50,0.19,10.73,-0.08,0.23,0.07
1942,0.73,0.50,6.05,-0.08,0.23,0.07
1946,0.38,0.65,8.35,-0.08,0.23,0.07
1952,1.84,-0.34,11.07,-0.08,0.23,0.07
1956,1.84,-0.34,11.07,-0.14,-0.04,-0.04
1961,-1.07,-0.69,8.24,-0.14,-0.04,-0.04
1966,-0.23,0.65,10.34,-0.14,-0.04,-0.04
1971,0.00,-0.84,11.15,-0.14,-0.04,-0.04
1976,-1.07,0.84,9.73,-0.14,-0.04,-0.04
1982,-2.91,0.69,7.21,-0.14,-0.04,-0.04
1987,0.73,0.61,9.46,-0.14,-0.04,-0.04
1991,0.73,0.61,9.46,-0.14,0.03,-0.07
1996,0.73,0.61,9.46,-0.14,0.01,-0.06
2001,0.42,1.11,9.85,-0.14,0.01,-0.06
2006,-0.77,0.80,9.80,-0.14,0.01,-0.06
2011,-1.49,0.73,9.81,-0.14,0.01,-0.06
2017,-0.54,0.19,9.88,-0.14,0.01,-0.06
2021,-0.54,0.19,9.88,-0.16,0.06,-0.11
2026,-0.54,0.19,9.88,-0.17,0.06,-0.11
2031,-2.03,2.03,7.55,-0.17,0.06,-0.11
2036,-1.42,1.23,8.81,-0.17,0.06,-0.11
2042,2.03,0.42,9.80,-0.17,0.06,-0.11
2046,-0.73,0.92,9.80,-0.17,0.06,-0.11
2051,-1.80,1.04,9.34,-0.17,0.06,-0.11
2056,-4.56,0.54,11.22,-0.17,0.06,-0.11
2062,-2.45,-0.57,9.96,-0.17,0.06,-0.11
2066,-0.50,0.04,8.58,-0.17,0.06,-0.11
2071,-0.11,-1.38,8.89,-0.17,0.06,-0.11
2077,-2.53,0.50,8.70,-0.17,0.06,-0.11
2081,-3.37,0.04,7.39,-0.17,0.06,-0.11
2086,-1.11,-0.19,8.08,-0.17,0.06,-0.11
2092,-1.99,0.00,7.70,-0.17,0.06,-0.11
2096,-1.99,0.00,7.70,-0.17,-0.01,-0.24
2101,-0.77,-1.68,11.60,-0.17,-0.01,-0.24
2107,1.72,-1.68,11.11,-0.17,-0.01,-0.24
2111,1.72,-1.68,11.11,-0.13,-0.08,-0.14
2117,1.72,-1.68,11.11,-0.14,-0.05,-0.15
2122,-3.71,-1.46,9.73,-0.14,-0.05,-0.15
2126,-3.71,-1.46,9.73,-0.08,0.12,-0.16
2131,-3.71,-1.46,9.73,-0.09,0.15,-0.13
2136,-3.91,-0.61,8.39,-0.09,0.15,-0.13
2142,-0.92,-1.57,7.43,-0.09,0.15,-0.13
2146,-0.92,-1.57,7.43,-0.06,-0.02,-0.06
2151,-0.30,-2.11,10.42,-0.06,-0.02,-0.06
2157,-2.18,-1.53,9.77,-0.06,-0.02,-0.06
2161,-2.18,-1.53,9.77,-0.04,-0.06,-0.16
2166,0.04,-1.11,9.58,-0.04,-0.06,-0.16
2171,-0.34,-1.57,10.19,-0.04,-0.06,-0.16
2177,-3.60,0.23,8.08,-0.04,-0.06,-0.16
2181,-3.60,0.23,8.08,-0.02,0.03,-0.15
2186,0.54,-0.80,9.69,-0.02,0.03,-0.15
2191,-1.15,-0.34,5.94,-0.02,0.03,-0.15
2196,-1.15,-0.34,5.94,-0.07,-0.15,-0.23
2202,1.34,-1.42,8.01,-0.07,-0.15,-0.23
2207,-0.15,-0.92,8.12,-0.07,-0.15,-0.23
2211,-0.15,-0.92,8.12,-0.04,-0.12,-0.23
2216,-0.15,-0.92,8.12,-0.04,-0.12,-0.22
2221,0.23,0.27,10.00,-0.04,-0.12,-0.22
2227,0.54,-1.15,10.57,-0.04,-0.12,-0.22
2231,0.54,-1.15,10.57,-0.01,0.09,-0.28
2237,0.54,-1.15,10.57,0.00,0.12,-0.29
2242,-0.73,-0.15,8.42,0.00,0.12,-0.29
2246,-0.73,-0.15,8.42,-0.00,0.13,-0.28
2251,-0.73,-0.15,8.42,-0.00,0.09,-0.28
2256,-0.73,-0.15,8.42,-0.00,0.03,-0.30
2262,0.96,-1.23,10.65,-0.00,0.03,-0.30
2266,0.96,-1.23,10.65,0.00,-0.05,-0.32
2271,3.26,-1.46,9.81,0.00,-0.05,-0.32
2276,0.77,-1.95,10.39,0.00,-0.05,-0.32
2282,-0.50,-0.27,8.28,0.00,-0.05,-0.32
2286,-0.50,-0.27,8.28,0.06,0.06,-0.29
2291,-1.11,1.95,8.78,0.06,0.06,-0.29
2296,-0.69,1.88,10.15,0.06,0.06,-0.29
2302,0.27,0.65,9.54,0.06,0.06,-0.29
2306,1.65,-0.73,10.65,0.06,0.06,-0.29
2311,0.73,-1.19,10.39,0.06,0.06,-0.29
2316,0.73,-1.19,10.39,0.04,-0.06,-0.33
2321,0.73,-1.19,10.39,0.06,-0.08,-0.31
2326,0.61,-0.15,7.09,0.06,-0.08,-0.31
2332,0.42,0.92,7.74,0.06,-0.08,-0.31
2336,0.42,0.92,7.74,0.00,-0.08,-0.30
2341,-0.15,0.04,8.16,0.00,-0.08,-0.30
2346,0.77,-0.57,8.42,0.00,-0.08,-0.30
2351,0.50,0.04,12.56,0.00,-0.08,-0.30
2357,0.50,0.04,12.56,0.07,-0.01,-0.26
2362,0.04,-0.34,11.15,0.07,-0.01,-0.26
2366,0.04,-0.34,11.15,0.10,0.09,-0.17
2371,0.04,-0.34,11.15,0.13,0.12,-0.16
2376,0.04,-0.34,11.15,0.12,0.13,-0.15
2382,-1.15,-1.15,8.31,0.12,0.13,-0.15
2386,-1.15,-1.15,8.31,0.15,0.05,-0.07
2391,-0.08,0.04,9.46,0.15,0.05,-0.07
2396,0.92,-1.19,8.78,0.15,0.05,-0.07
2402,0.50,-0.27,9.42,0.15,0.05,-0.07
2406,0.50,-0.27,9.42,0.14,-0.09,0.07
2411,0.57,-2.49,11.68,0.14,-0.09,0.07
2417,-0.69,-2.80,9.81,0.14,-0.09,0.07
2421,-0.69,-2.80,9.81,0.20,0.01,0.13
2426,-1.84,-2.14,9.73,0.20,0.01,0.13
2432,-5.09,-2.76,8.88,0.20,0.01,0.13
2436,-5.09,-2.76,8.88,0.23,0.17,0.18
2441,-5.09,-2.76,8.88,0.21,0.16,0.18
2446,-2.22,-1.88,8.24,0.21,0.16,0.18
2452,-0.88,-1.72,10.00,0.21,0.16,0.18
2456,-0.88,-1.72,10.00,0.22,-0.07,0.20
2461,1.15,-2.22,10.04,0.22,-0.07,0.20
2467,0.11,-1.57,12.03,0.22,-0.07,0.20
2471,0.11,-1.57,12.03,0.22,-0.10,0.23
2476,0.11,-1.57,12.03,0.24,-0.01,0.23
2482,-1.07,-2.03,10.69,0.24,-0.01,0.23
2487,-2.68,-0.46,9.04,0.24,-0.01,0.23
2491,-2.68,-0.46,9.04,0.26,0.12,0.22
2496,-2.68,-0.46,9.04,0.25,0.12,0.23
2502,-1.34,0.54,10.77,0.25,0.12,0.23
2506,-1.34,0.54,10.77,0.21,0.07,0.25
2511,-1.34,0.54,10.77,0.17,0.04,0.22
2517,-1.34,0.54,10.77,0.18,-0.02,0.19
2522,-0.65,-1.07,10.27,0.18,-0.02,0.19
2526,-0.65,-1.07,10.27,0.17,-0.05,0.20
2531,-1.80,0.00,6.78,0.17,-0.05,0.20
2537,-0.54,1.42,7.59,0.17,-0.05,0.20
2541,-0.54,1.42,7.59,0.12,-0.10,0.18
2547,-0.54,1.42,7.59,0.11,-0.08,0.12
2552,-0.54,0.84,9.46,0.11,-0.08,0.12
2556,-0.54,0.84,9.46,0.07,-0.12,0.08
2561,-0.54,0.84,9.46,0.06,-0.18,0.10
2566,-0.11,-0.27,12.41,0.06,-0.18,0.10
2572,1.68,0.50,12.14,0.06,-0.18,0.10
2576,1.68,0.50,12.14,0.10,-0.01,0.02
2581,-1.30,1.23,9.93,0.10,-0.01,0.02
2587,-0.38,-0.80,9.31,0.10,-0.01,0.02
2591,-0.38,-0.80,9.31,0.10,0.18,0.04
2596,-0.38,-0.80,9.31,0.07,0.16,0.05
2601,-1.15,2.03,7.97,0.07,0.16,0.05
2607,2.11,0.54,10.53,0.07,0.16,0.05
2611,2.11,0.54,10.53,0.02,0.03,-0.03
2616,2.11,0.54,10.53,0.02,0.02,-0.02
2622,-0.50,-0.80,8.12,0.02,0.02,-0.02
2627,-0.50,-0.80,8.12,0.03,0.01,0.01
2631,-0.50,-0.80,8.12,0.06,-0.02,0.03
2636,-0.50,-0.80,8.12,0.03,-0.06,0.02
2642,-1.80,1.99,7.39,0.03,-0.06,0.02
2647,-1.80,1.99,7.39,0.02,-0.09,-0.02
2651,-1.80,1.99,7.39,0.01,-0.08,-0.05
2656,-1.00,1.27,8.43,0.01,-0.08,-0.05
2662,3.48,-0.80,10.34,0.01,-0.08,-0.05
2666,3.48,-0.80,10.34,0.02,-0.18,-0.04
2671,-0.61,-1.72,8.35,0.02,-0.18,-0.04
2677,1.95,-1.19,11.68,0.02,-0.18,-0.04
2682,1.95,-1.19,11.68,0.01,-0.09,-0.11
2686,1.95,-1.19,11.68,0.00,-0.05,-0.14
2692,0.61,-0.50,12.38,0.00,-0.05,-0.14
2697,0.61,-0.50,12.38,0.04,0.04,-0.12
2703,0.61,-0.50,12.38,0.03,0.08,-0.09
2707,1.00,-1.84,10.41,0.03,0.08,-0.09
2711,1.00,-1.84,10.41,0.04,0.08,-0.12
2716,1.00,-1.84,10.41,0.04,0.07,-0.16
2721,1.19,-2.14,10.23,0.04,0.07,-0.16
2727,0.57,-1.68,7.89,0.04,0.07,-0.16
2731,0.57,-1.68,7.89,0.11,0.06,0.02
2736,0.57,-1.68,7.89,0.12,0.02,0.05
2743,-0.38,-1.15,8.23,0.12,0.02,0.05
2746,-0.38,-1.15,8.23,0.12,-0.04,-0.02
2751,-0.38,-1.15,8.23,0.12,-0.04,-0.02
2756,-0.38,-1.15,8.23,0.14,-0.01,0.02
2762,-2.11,-0.15,7.55,0.14,-0.01,0.02
2767,-2.11,-0.15,7.55,0.13,0.03,0.13
2771,-2.11,-0.15,7.55,0.13,-0.02,0.13
2776,-2.11,-0.15,7.55,0.10,-0.03,0.07
2782,-0.61,-0.80,6.93,0.10,-0.03,0.07
2786,-0.61,-0.80,6.93,0.11,-0.09,0.10
2791,-0.61,-0.80,6.93,0.11,-0.12,0.18
2797,-2.91,0.54,7.51,0.11,-0.12,0.18
2801,-2.91,0.54,7.51,0.11,-0.07,0.21
2806,-2.91,0.54,7.51,0.12,-0.09,0.21
2812,0.00,-0.61,11.88,0.12,-0.09,0.21
2817,0.00,-0.61,11.88,0.15,-0.03,0.20
2821,0.00,-0.61,11.88,0.18,0.04,0.21
2826,-3.10,-0.88,9.65,0.18,0.04,0.21
2832,-2.53,0.08,8.66,0.18,0.04,0.21
2836,-2.53,0.08,8.66,0.19,0.08,0.30
2841,-2.53,0.08,8.66,0.16,-0.01,0.28
2847,-0.04,-0.11,10.39,0.16,-0.01,0.28
2851,-0.04,-0.11,10.39,0.19,-0.10,0.24
2857,-0.04,-0.11,10.39,0.18,-0.12,0.28
2863,-1.53,-2.80,8.96,0.18,-0.12,0.28
2866,-1.53,-2.80,8.96,0.19,-0.05,0.33
2871,-1.53,-2.80,8.96,0.19,0.01,0.30
2876,-1.53,-2.80,8.96,0.16,0.06,0.24
2882,-3.71,-0.08,8.04,0.16,0.06,0.24
2886,-3.71,-0.08,8.04,0.18,0.05,0.29
2891,-3.71,-0.08,8.04,0.20,-0.04,0.34
2896,-3.71,-0.08,8.04,0.16,-0.13,0.36
2902,0.15,-0.65,7.93,0.16,-0.13,0.36
2906,0.15,-0.65,7.93,0.20,-0.19,0.36
2911,0.15,-0.65,7.93,0.20,-0.17,0.38
2917,-2.07,-0.84,10.11,0.20,-0.17,0.38
2921,-2.07,-0.84,10.11,0.26,0.06,0.47
2927,-2.07,-0.84,10.11,0.26,0.12,0.51
2932,1.61,-1.42,9.27,0.26,0.12,0.51
2937,1.61,-1.42,9.27,0.27,-0.00,0.54
2942,1.61,-1.42,9.27,0.24,-0.06,0.52
2946,2.53,-1.30,11.68,0.24,-0.06,0.52
2952,2.87,-1.11,9.96,0.24,-0.06,0.52
2956,2.87,-1.11,9.96,0.21,-0.16,0.56
2961,2.87,-1.11,9.96,0.21,-0.09,0.56
2967,-3.45,0.92,7.36,0.21,-0.09,0.56
2971,-3.45,0.92,7.36,0.21,0.08,0.54
2976,-3.45,0.92,7.36,0.21,0.11,0.53
2981,-1.61,-0.15,8.46,0.21,0.11,0.53
2987,0.11,-1.42,6.09,0.21,0.11,0.53
2991,0.11,-1.42,6.09,0.16,-0.06,0.50
2996,0.11,-1.42,6.09,0.15,-0.18,0.50
3002,0.57,-0.42,7.70,0.15,-0.18,0.50
3006,0.57,-0.42,7.70,0.11,-0.21,0.48
3012,0.57,-0.42,7.70,0.14,-0.17,0.46
3018,0.57,-0.42,7.70,0.12,-0.12,0.45
3021,0.57,-0.42,7.70,0.10,-0.04,0.42
3027,0.57,-0.42,7.70,0.09,-0.01,0.40
3032,0.57,-0.42,7.70,0.11,-0.02,0.38
3037,0.69,-0.42,11.19,0.11,-0.02,0.38
3041,0.69,-0.42,11.19,0.10,0.04,0.35
3047,0.69,-0.42,11.19,0.09,0.05,0.35
3051,0.54,1.65,10.38,0.09,0.05,0.35
3057,0.00,1.30,10.19,0.09,0.05,0.35
3061,0.00,1.30,10.19,0.00,0.11,0.30
3066,0.00,1.30,10.19,-0.04,0.11,0.23
3072,-0.15,-1.15,11.11,-0.04,0.11,0.23
3076,-0.15,-1.15,11.11,-0.03,0.10,0.19
3081,-0.15,-1.15,11.11,-0.01,0.09,0.21
3087,0.30,0.46,7.09,-0.01,0.09,0.21
3091,0.30,0.46,7.09,-0.04,-0.02,0.28
3096,0.30,0.46,7.09,-0.06,-0.10,0.25
3101,0.30,0.46,7.09,-0.08,-0.13,0.19
3106,-3.03,2.30,7.43,-0.08,-0.13,0.19
3113,-3.03,2.30,7.43,-0.09,-0.06,0.12
3118,0.19,0.80,10.39,-0.09,-0.06,0.12
3122,-0.73,0.34,10.07,-0.09,-0.06,0.12
3126,-0.73,0.34,10.07,-0.10,0.00,0.18
3131,-0.73,0.34,10.07,-0.10,-0.01,0.14
3136,-0.73,0.34,10.07,-0.11,-0.01,0.11
3142,0.30,-0.34,11.46,-0.11,-0.01,0.11
3146,0.30,-0.34,11.46,-0.11,0.03,0.12
3151,0.30,-0.34,11.46,-0.09,0.08,0.13
3156,0.30,-0.34,11.46,-0.11,0.14,0.12
3163,0.61,0.88,12.30,-0.11,0.14,0.12
3166,0.61,0.88,12.30,-0.12,0.20,0.09
3172,-2.45,0.57,8.54,-0.12,0.20,0.09
3177,-2.45,0.57,8.54,-0.12,0.18,0.08
3181,-2.45,0.57,8.54,-0.10,0.12,0.10
3186,-2.45,0.57,8.54,-0.10,0.06,0.13
3192,-1.07,0.50,7.43,-0.10,0.06,0.13
3196,-1.07,0.50,7.43,-0.11,0.03,0.14
3201,-1.07,0.50,7.43,-0.12,0.05,0.10
3206,-3.48,0.88,8.78,-0.12,0.05,0.10
3212,-2.72,0.46,8.43,-0.12,0.05,0.10
3216,-2.72,0.46,8.43,-0.16,0.10,0.07
3221,-2.72,0.46,8.43,-0.16,0.07,0.06
3227,-1.07,0.84,10.54,-0.16,0.07,0.06
3231,-1.07,0.84,10.54,-0.18,0.02,-0.00
3236,-1.07,0.84,10.54,-0.19,0.01,-0.01
3241,-0.57,1.00,9.50,-0.19,0.01,-0.01
3247,-0.38,0.80,8.88,-0.19,0.01,-0.01
3251,-0.38,0.80,8.88,-0.23,0.03,-0.05
3256,-0.38,0.80,8.88,-0.24,0.04,-0.07
3262,-2.38,1.38,10.69,-0.24,0.04,-0.07
3266,-2.38,1.38,10.69,-0.21,0.12,-0.08
3271,-2.38,1.38,10.69,-0.21,0.15,-0.06
3276,-2.38,1.38,10.69,-0.19,0.14,-0.05
3283,0.50,2.03,12.26,-0.19,0.14,-0.05
3286,0.50,2.03,12.26,-0.21,0.09,-0.08
3292,0.50,2.03,12.26,-0.24,0.05,-0.10
3297,0.50,2.03,12.26,-0.25,0.03,-0.12
3301,0.50,2.03,12.26,-0.23,0.07,-0.12
3306,0.50,2.03,12.26,-0.26,0.13,-0.13
3312,-0.77,1.84,8.27,-0.26,0.13,-0.13
3316,-0.77,1.84,8.27,-0.30,0.11,-0.17
3322,-0.77,1.84,8.27,-0.32,0.05,-0.21
3327,-0.77,1.84,8.27,-0.35,0.03,-0.27
3333,-2.07,1.04,8.96,-0.35,0.03,-0.27
3336,-2.07,1.04,8.96,-0.35,0.01,-0.33
3341,-2.07,1.04,8.96,-0.35,-0.05,-0.31
3347,-1.80,1.19,7.43,-0.35,-0.05,-0.31
3351,-1.80,1.19,7.43,-0.33,-0.04,-0.32
3356,-1.80,1.19,7.43,-0.35,-0.09,-0.33
3361,-1.80,1.19,7.43,-0.33,-0.12,-0.32
3367,-0.08,1.38,12.03,-0.33,-0.12,-0.32
3371,-0.08,1.38,12.03,-0.34,-0.01,-0.38
3376,-0.08,1.38,12.03,-0.33,0.05,-0.40
3382,1.04,0.27,10.65,-0.33,0.05,-0.40
3387,1.04,0.27,10.65,-0.25,0.12,-0.31
3391,1.04,0.27,10.65,-0.23,0.15,-0.28
3396,1.04,0.27,10.65,-0.24,0.14,-0.28
3402,1.34,0.46,10.57,-0.24,0.14,-0.28
3406,1.34,0.46,10.57,-0.24,0.08,-0.31
3411,1.34,0.46,10.57,-0.22,0.07,-0.32
3417,1.72,-1.61,9.27,-0.22,0.07,-0.32
3421,1.72,-1.61,9.27,-0.21,0.02,-0.27
3426,1.72,-1.61,9.27,-0.19,-0.00,-0.25
3431,1.72,-1.61,9.27,-0.19,0.00,-0.25
3437,-1.07,0.30,7.05,-0.19,0.00,-0.25
3441,-1.07,0.30,7.05,-0.17,-0.00,-0.21
3446,-1.07,0.30,7.05,-0.19,-0.04,-0.20
3452,0.34,0.15,8.46,-0.19,-0.04,-0.20
3456,0.34,0.15,8.46,-0.21,-0.08,-0.24
3461,0.34,0.15,8.46,-0.19,-0.10,-0.23
3467,1.72,-3.22,10.88,-0.19,-0.10,-0.23
3471,1.72,-3.22,10.88,-0.12,-0.09,-0.13
3476,1.72,-3.22,10.88,-0.15,-0.04,-0.08
3481,1.72,-3.22,10.88,-0.14,0.03,-0.11
3487,-2.80,-1.68,8.58,-0.14,0.03,-0.11
3492,-2.80,-1.68,8.58,-0.14,0.14,-0.21
3496,-2.80,-1.68,8.58,-0.12,0.13,-0.18
3502,-2.80,-1.68,8.58,-0.11,0.08,-0.12
3507,-2.80,-1.68,8.58,-0.08,0.06,-0.05
3511,-2.80,-1.68,8.58,-0.08,0.02,-0.01
3516,-2.80,-1.68,8.58,-0.07,0.05,-0.03
3522,-1.46,-2.07,9.54,-0.07,0.05,-0.03
3526,-1.46,-2.07,9.54,-0.08,0.10,-0.08
3531,-1.46,-2.07,9.54,-0.05,0.11,-0.05
3537,-1.46,-2.07,9.54,-0.04,0.08,0.00
3541,-1.46,-2.07,9.54,-0.00,0.04,0.05
3546,-1.46,-2.07,9.54,-0.02,-0.00,0.08
3551,-1.46,-2.07,9.54,-0.04,-0.06,0.07
3557,0.77,0.00,7.74,-0.04,-0.06,0.07
3561,0.77,0.00,7.74,-0.06,-0.17,0.03
3566,0.77,0.00,7.74,-0.05,-0.16,0.02
3572,0.77,0.00,7.74,-0.04,-0.13,0.03
3576,0.77,0.00,7.74,-0.04,-0.08,0.06
3581,0.77,0.00,7.74,-0.03,-0.04,0.08
3586,0.77,0.00,7.74,-0.04,0.00,0.06
3592,-0.27,-0.61,11.80,-0.04,0.00,0.06
3596,-0.27,-0.61,11.80,-0.05,0.07,-0.01
3601,-0.27,-0.61,11.80,-0.06,0.12,-0.04
3606,-0.27,-0.61,11.80,-0.06,0.17,-0.05
3611,-0.27,-0.61,11.80,-0.08,0.19,-0.05
3616,-0.27,-0.61,11.80,-0.08,0.15,-0.04
3622,-0.27,-0.61,11.80,-0.03,0.09,-0.01
3627,-0.27,-0.61,11.80,-0.04,0.01,0.00
3631,-0.27,-0.61,11.80,-0.03,-0.02,-0.02
3636,-0.27,-0.61,11.80,-0.03,-0.01,-0.05
3642,-2.84,-1.42,8.77,-0.03,-0.01,-0.05
3646,-2.84,-1.42,8.77,-0.03,0.02,-0.04
3651,-2.84,-1.42,8.77,-0.03,-0.00,-0.03
3657,-2.84,-1.42,8.77,-0.00,-0.03,-0.03
3662,-2.84,-1.42,8.77,-0.00,-0.04,-0.03
3666,-2.84,-1.42,8.77,0.01,-0.05,-0.02
3671,-2.84,-1.42,8.77,0.03,-0.04,-0.02
3677,-2.84,-1.42,8.77,0.03,0.03,-0.03
3681,-2.84,-1.42,8.77,0.01,0.05,-0.04
3686,-2.84,-1.42,8.77,0.01,0.02,-0.06
3692,-2.84,-1.42,8.77,0.00,-0.04,-0.06
3696,-2.84,-1.42,8.77,0.02,-0.12,-0.03
3701,-2.84,-1.42,8.77,-0.01,-0.18,0.00
3706,-2.84,-1.42,8.77,0.01,-0.23,0.02
3712,1.11,-1.38,13.02,0.01,-0.23,0.02
3716,1.11,-1.38,13.02,-0.00,-0.17,-0.02
3721,1.11,-1.38,13.02,-0.00,-0.08,-0.05
3727,1.11,-1.38,13.02,0.04,-0.02,-0.03
3731,1.11,-1.38,13.02,0.04,0.09,0.00
3736,1.11,-1.38,13.02,0.07,0.23,0.01
3741,1.11,-1.38,13.02,0.10,0.30,0.04
3747,1.34,0.00,11.45,0.10,0.30,0.04
3751,1.34,0.00,11.45,0.08,0.14,0.08
3756,1.34,0.00,11.45,0.06,0.04,0.04
3762,1.34,0.00,11.45,0.05,-0.02,-0.00
3766,1.34,0.00,11.45,0.04,-0.05,0.00
3772,1.34,0.00,11.45,0.04,-0.06,0.03
3776,1.34,0.00,11.45,0.02,-0.10,0.04
3782,0.00,0.04,7.05,0.02,-0.10,0.04
3786,0.00,0.04,7.05,0.02,-0.08,-0.02
3791,0.00,0.04,7.05,0.01,-0.04,-0.04
3797,0.00,0.04,7.05,0.02,0.04,-0.06
3801,0.00,0.04,7.05,0.01,0.09,-0.08
3806,0.00,0.04,7.05,0.00,0.07,-0.10
3811,0.00,0.04,7.05,-0.01,-0.02,-0.10
3817,0.00,0.04,7.05,0.00,-0.09,-0.10
3821,0.00,0.04,7.05,0.00,-0.12,-0.10
3826,0.00,0.04,7.05,-0.02,-0.11,-0.11
3832,0.00,0.04,7.05,0.01,-0.05,-0.12
3836,0.00,0.04,7.05,-0.01,0.03,-0.14
3841,0.00,0.04,7.05,-0.02,0.06,-0.15
3846,0.00,0.04,7.05,-0.03,0.04,-0.15
3852,-0.19,1.15,9.30,-0.03,0.04,-0.15
3856,-0.19,1.15,9.30,-0.03,0.02,-0.15
3861,-0.19,1.15,9.30,-0.03,0.01,-0.15
3866,-0.19,1.15,9.30,-0.04,-0.01,-0.15
3871,-0.19,1.15,9.30,-0.03,-0.00,-0.15
3876,-0.19,1.15,9.30,-0.05,0.04,-0.17
3882,-0.19,1.15,9.30,-0.04,0.10,-0.18
3886,-0.19,1.15,9.30,-0.04,0.14,-0.17
3891,-0.19,1.15,9.30,-0.01,0.14,-0.16
3896,-0.19,1.15,9.30,-0.02,0.13,-0.15
3902,-2.45,1.00,6.78,-0.02,0.13,-0.15
3906,-2.45,1.00,6.78,-0.03,0.07,-0.17
3911,-2.45,1.00,6.78,-0.05,-0.03,-0.17
3916,-2.45,1.00,6.78,-0.04,-0.11,-0.19
3921,-2.45,1.00,6.78,-0.05,-0.15,-0.19
3926,-2.45,1.00,6.78,-0.03,-0.16,-0.18
3931,-2.45,1.00,6.78,0.00,-0.13,-0.16
3937,-2.80,0.04,10.69,0.00,-0.13,-0.16
3941,-2.80,0.04,10.69,-0.00,0.06,-0.18
3947,-2.80,0.04,10.69,0.01,0.14,-0.22
3951,-2.80,0.04,10.69,0.00,0.16,-0.25
3956,-2.80,0.04,10.69,0.02,0.12,-0.24
3961,-2.80,0.04,10.69,0.02,0.07,-0.21
3966,-2.80,0.04,10.69,0.03,0.01,-0.17
3971,-0.92,-2.22,9.39,0.03,0.01,-0.17
3976,-0.92,-2.22,9.39,0.04,-0.04,-0.14
3981,-0.92,-2.22,9.39,0.03,-0.02,-0.16
3986,-0.92,-2.22,9.39,0.04,0.02,-0.17
3991,-0.92,-2.22,9.39,0.05,0.05,-0.16
3996,-0.92,-2.22,9.39,0.07,0.07,-0.12
4001,-0.92,-2.22,9.39,0.09,0.06,-0.08
4007,-0.61,0.92,10.80,0.09,0.06,-0.08
4011,-0.61,0.92,10.80,0.09,-0.03,-0.03
4016,-0.61,0.92,10.80,0.09,-0.07,-0.01
4022,-0.61,0.92,10.80,0.06,-0.14,0.02
4026,-0.61,0.92,10.80,0.07,-0.18,0.06
4031,-0.61,0.92,10.80,0.08,-0.16,0.08
4036,-0.61,0.92,10.80,0.06,-0.11,0.10
4042,0.54,-1.72,10.91,0.06,-0.11,0.10
4046,0.54,-1.72,10.91,0.09,-0.02,0.18
4051,0.54,-1.72,10.91,0.10,-0.01,0.19
4057,0.54,-1.72,10.91,0.08,-0.03,0.21
4061,0.54,-1.72,10.91,0.12,-0.02,0.24
4066,0.54,-1.72,10.91,0.11,0.03,0.27
4071,0.54,-1.72,10.91,0.10,0.09,0.27
4077,-3.95,0.08,7.59,0.10,0.09,0.27
4081,-3.95,0.08,7.59,0.08,0.15,0.23
4087,-3.95,0.08,7.59,0.08,0.10,0.22
4091,-3.95,0.08,7.59,0.08,-0.00,0.24
4096,-3.95,0.08,7.59,0.09,-0.13,0.28
4101,-3.95,0.08,7.59,0.11,-0.17,0.31
4106,-3.95,0.08,7.59,0.09,-0.16,0.31
4112,-0.04,-0.38,8.92,0.09,-0.16,0.31
4116,-0.04,-0.38,8.92,0.09,-0.07,0.24
4121,-0.04,-0.38,8.92,0.06,0.01,0.20
4127,-0.04,-0.38,8.92,0.07,0.06,0.19
4131,-0.04,-0.38,8.92,0.05,0.05,0.20
4136,-0.04,-0.38,8.92,0.05,-0.03,0.20
4141,-0.04,-0.38,8.92,0.03,-0.10,0.18
4146,-0.04,-0.38,8.92,0.03,-0.11,0.15
4151,-0.04,-0.38,8.92,0.02,-0.05,0.12
4156,-0.04,-0.38,8.92,-0.00,-0.05,0.11
4162,2.87,-1.84,8.23,-0.00,-0.05,0.11
4166,2.87,-1.84,8.23,-0.02,-0.16,0.09
4171,2.87,-1.84,8.23,-0.05,-0.16,0.08
4176,2.87,-1.84,8.23,-0.04,-0.13,0.05
4181,2.87,-1.84,8.23,-0.04,-0.05,0.04
4186,2.87,-1.84,8.23,-0.01,0.04,0.04
4191,2.87,-1.84,8.23,0.01,0.09,0.07
4197,-0.80,1.57,10.04,0.01,0.09,0.07
4201,-0.80,1.57,10.04,0.01,0.13,0.09
4207,-0.80,1.57,10.04,-0.02,0.09,0.08
4211,-0.80,1.57,10.04,-0.05,0.02,0.04
4217,1.65,0.30,10.11,-0.05,0.02,0.04
4221,1.65,0.30,10.11,-0.07,-0.07,-0.02
4226,1.65,0.30,10.11,-0.09,-0.08,0.00
4232,3.60,0.15,12.48,-0.09,-0.08,0.00
4236,3.60,0.15,12.48,-0.08,-0.09,0.04
4241,3.60,0.15,12.48,-0.09,-0.05,0.01
4246,3.60,0.15,12.48,-0.12,0.07,-0.06
4252,-0.65,0.08,10.69,-0.12,0.07,-0.06
4256,-0.65,0.08,10.69,-0.09,0.21,-0.12
4261,-0.65,0.08,10.69,-0.09,0.24,-0.11
4267,0.88,-1.88,9.30,-0.09,0.24,-0.11
4271,0.88,-1.88,9.30,-0.08,0.02,-0.01
4276,0.88,-1.88,9.30,-0.08,-0.13,0.00
4282,0.88,-1.88,9.30,-0.10,-0.16,-0.05
4287,0.96,-0.34,9.61,-0.10,-0.16,-0.05
4292,0.96,-0.34,9.61,-0.07,-0.07,-0.11
4296,0.96,-0.34,9.61,-0.07,-0.03,-0.05
4302,-1.42,-0.42,9.00,-0.07,-0.03,-0.05
4306,-1.42,-0.42,9.00,-0.07,0.06,-0.00
4311,-1.42,-0.42,9.00,-0.07,0.08,-0.04
4317,-1.42,-0.42,9.00,-0.10,0.06,-0.10
4321,-1.42,-0.42,9.00,-0.08,0.06,-0.14
4327,-1.42,-0.42,9.00,-0.08,0.04,-0.11
4331,-1.42,-0.42,9.00,-0.09,0.01,-0.05
4337,2.68,-0.54,9.92,-0.09,0.01,-0.05
4341,2.68,-0.54,9.92,-0.11,-0.02,-0.05
4346,2.68,-0.54,9.92,-0.12,0.04,-0.12
4352,2.68,-0.54,9.92,-0.11,0.10,-0.16
4356,2.68,-0.54,9.92,-0.11,0.17,-0.15
4361,2.68,-0.54,9.92,-0.08,0.20,-0.11
4366,2.68,-0.54,9.92,-0.08,0.15,-0.08
4372,-2.53,-0.30,8.81,-0.08,0.15,-0.08
4376,-2.53,-0.30,8.81,-0.12,-0.03,-0.14
4381,-2.53,-0.30,8.81,-0.13,-0.17,-0.19
4387,-2.53,-0.30,8.81,-0.14,-0.26,-0.20
4391,-2.53,-0.30,8.81,-0.11,-0.27,-0.18
4396,-2.53,-0.30,8.81,-0.10,-0.21,-0.16
4401,-2.53,-0.30,8.81,-0.07,-0.13,-0.14
4407,0.19,-0.27,12.30,-0.07,-0.13,-0.14
4411,0.19,-0.27,12.30,-0.06,0.08,-0.19
4416,0.19,-0.27,12.30,-0.05,0.18,-0.24
4422,-1.27,-2.07,9.23,-0.05,0.18,-0.24
4426,-1.27,-2.07,9.23,-0.01,0.18,-0.23
4431,-1.27,-2.07,9.23,-0.04,0.14,-0.24
4437,-1.27,-2.07,9.23,-0.04,0.09,-0.25
4442,-0.65,-2.72,10.07,-0.04,0.09,-0.25
4446,-0.65,-2.72,10.07,-0.01,0.04,-0.24
4451,-0.65,-2.72,10.07,0.00,0.01,-0.23
4457,-3.79,-0.77,8.70,0.00,0.01,-0.23
4461,-3.79,-0.77,8.70,0.05,0.06,-0.18
4467,-3.79,-0.77,8.70,0.08,0.06,-0.14
4471,-3.79,-0.77,8.70,0.09,0.02,-0.09
4477,-0.42,0.00,8.27,0.09,0.02,-0.09
4481,-0.42,0.00,8.27,0.08,-0.18,-0.01
4486,-0.42,0.00,8.27,0.09,-0.22,0.02
4492,1.34,-1.99,9.38,0.09,-0.22,0.02
4496,1.34,-1.99,9.38,0.14,-0.14,0.11
4501,1.34,-1.99,9.38,0.15,-0.06,0.16
4506,1.34,-1.99,9.38,0.18,0.06,0.18
4512,-3.37,-0.57,10.45,0.18,0.06,0.18
4516,-3.37,-0.57,10.45,0.19,0.10,0.21
4521,-3.37,-0.57,10.45,0.17,0.00,0.23
4527,-0.96,-1.84,11.15,0.17,0.00,0.23
4531,-0.96,-1.84,11.15,0.13,-0.11,0.16
4536,-0.96,-1.84,11.15,0.11,-0.13,0.15
4541,-0.96,-1.84,11.15,0.09,-0.18,0.18
4547,2.41,-1.95,11.26,0.09,-0.18,0.18
4551,2.41,-1.95,11.26,0.10,-0.15,0.19
4556,2.41,-1.95,11.26,0.09,-0.04,0.17
4562,-0.34,-0.96,10.73,0.09,-0.04,0.17
4566,-0.34,-0.96,10.73,0.12,0.15,0.15
4571,-0.34,-0.96,10.73,0.16,0.23,0.15
4577,-0.34,-0.96,10.73,0.17,0.24,0.17
4581,-0.34,-0.96,10.73,0.15,0.16,0.20
4587,-0.34,-0.96,10.73,0.14,0.03,0.21
4591,-0.34,-0.96,10.73,0.12,-0.07,0.17
4597,0.84,-1.27,7.43,0.12,-0.07,0.17
4601,0.84,-1.27,7.43,0.08,-0.14,0.09
4606,0.84,-1.27,7.43,0.08,-0.09,0.09
4612,0.84,-1.27,7.43,0.08,-0.05,0.10
4616,0.84,-1.27,7.43,0.07,-0.03,0.08
4621,0.84,-1.27,7.43,0.07,-0.00,0.06
4626,0.84,-1.27,7.43,0.05,-0.02,0.01
4632,-0.19,-1.34,10.15,0.05,-0.02,0.01
4636,-0.19,-1.34,10.15,0.06,-0.02,-0.00
4641,-0.19,-1.34,10.15,0.08,0.00,0.01
4647,-0.19,-1.34,10.15,0.08,0.04,0.04
4651,-0.19,-1.34,10.15,0.09,0.08,0.04
4656,-0.19,-1.34,10.15,0.06,0.13,0.01
4662,-0.19,-1.34,10.15,0.07,0.14,-0.01
4667,-0.65,-0.08,9.00,0.07,0.14,-0.01
4671,-0.65,-0.08,9.00,0.07,0.08,-0.00
4676,-0.65,-0.08,9.00,0.06,0.07,0.01
4682,1.15,0.84,9.73,0.06,0.07,0.01
4686,1.15,0.84,9.73,0.05,-0.05,0.02
4691,1.15,0.84,9.73,0.02,-0.10,-0.01
4696,1.15,0.84,9.73,0.02,-0.07,-0.06
4702,-1.72,0.73,9.08,0.02,-0.07,-0.06
4707,-1.72,0.73,9.08,-0.01,0.01,-0.10
4711,-1.72,0.73,9.08,-0.01,0.02,-0.08
4717,-3.41,1.19,7.47,-0.01,0.02,-0.08
4721,-3.41,1.19,7.47,-0.04,0.05,-0.11
4726,-3.41,1.19,7.47,-0.02,-0.03,-0.12
4732,-3.41,1.19,7.47,-0.04,-0.10,-0.12
4737,1.65,0.77,10.95,-0.04,-0.10,-0.12
4741,1.65,0.77,10.95,-0.04,-0.10,-0.12
4746,1.65,0.77,10.95,-0.02,-0.05,-0.12
4752,0.23,0.19,10.15,-0.02,-0.05,-0.12
4756,0.23,0.19,10.15,-0.00,0.08,-0.11
4761,0.23,0.19,10.15,-0.00,0.13,-0.12
4766,0.23,0.19,10.15,0.01,0.17,-0.12
4772,-1.34,0.46,9.96,0.01,0.17,-0.12
4776,-1.34,0.46,9.96,0.00,0.16,-0.12
4782,-1.34,0.46,9.96,0.00,0.19,-0.15
4787,-2.91,1.46,9.43,0.00,0.19,-0.15
4791,-2.91,1.46,9.43,0.01,0.16,-0.14
4796,-2.91,1.46,9.43,0.00,0.11,-0.12
4801,-2.91,1.46,9.43,-0.00,0.06,-0.12
4806,-0.23,0.00,8.73,-0.00,0.06,-0.12
4811,-0.23,0.00,8.73,-0.04,-0.16,-0.17
4817,-0.23,0.00,8.73,-0.06,-0.21,-0.19
4822,-2.30,0.84,8.35,-0.06,-0.21,-0.19
4826,-2.30,0.84,8.35,-0.05,-0.15,-0.19
4831,-2.30,0.84,8.35,-0.07,-0.12,-0.15
4837,-2.30,0.84,8.35,-0.06,-0.10,-0.14
4841,-2.30,0.84,8.35,-0.07,-0.06,-0.17
4846,-2.30,0.84,8.35,-0.08,-0.07,-0.18
4851,-2.30,0.84,8.35,-0.06,-0.11,-0.17
4857,-2.30,0.84,8.35,-0.05,-0.02,-0.15
4861,-2.30,0.84,8.35,-0.09,0.11,-0.17
4866,-2.30,0.84,8.35,-0.07,0.14,-0.17
4871,-4.71,-0.61,5.90,-0.07,0.14,-0.17
4877,-2.91,-0.23,9.00,-0.07,0.14,-0.17
4881,-2.91,-0.23,9.00,0.05,0.14,-0.05
4886,-2.91,-0.23,9.00,0.05,0.11,0.04
4892,1.04,-0.19,12.72,0.05,0.11,0.04
4896,1.04,-0.19,12.72,-0.03,-0.03,0.01
4901,1.04,-0.19,12.72,-0.04,-0.04,-0.14
4907,-0.65,-2.49,8.04,-0.04,-0.04,-0.14
4911,-0.65,-2.49,8.04,0.03,-0.01,-0.18
4916,-0.65,-2.49,8.04,0.08,0.00,0.01
4921,-0.65,-2.49,8.04,0.09,0.04,0.16
4826,-2.30,0.84,8.35,-0.05,-0.15,-0.19
4831,-2.30,0.84,8.35,-0.07,-0.12,-0.15
4837,-2.30,0.84,8.35,-0.06,-0.10,-0.14
4841,-2.30,0.84,8.35,-0.07,-0.06,-0.17
4846,-2.30,0.84,8.35,-0.08,-0.07,-0.18
4851,-2.30,0.84,8.35,-0.06,-0.11,-0.17
4857,-2.30,0.84,8.35,-0.05,-0.02,-0.15
4861,-2.30,0.84,8.35,-0.09,0.11,-0.17
4866,-2.30,0.84,8.35,-0.07,0.14,-0.17
4871,-4.71,-0.61,5.90,-0.07,0.14,-0.17
4877,-2.91,-0.23,9.00,-0.07,0.14,-0.17
4881,-2.91,-0.23,9.00,0.05,0.14,-0.05
4886,-2.91,-0.23,9.00,0.05,0.11,0.04
4892,1.04,-0.19,12.72,0.05,0.11,0.04
4896,1.04,-0.19,12.72,-0.03,-0.03,0.01
4901,1.04,-0.19,12.72,-0.04,-0.04,-0.14
