timestamp,accX,accY,accZ,gyroX,gyroY,gyroZ
Right
8,4.06,-2.07,16.59,0.14,0.06,-0.03
18,4.06,-2.07,16.59,0.13,-0.18,-0.06
20,4.06,-2.07,16.59,0.01,-0.23,0.02
22,4.06,-2.07,16.59,0.04,-0.30,0.05
26,4.06,-2.07,16.59,0.08,-0.21,0.08
31,-4.41,0.38,8.12,0.08,-0.21,0.08
36,-4.41,0.38,8.12,0.06,-0.08,0.11
42,0.80,-0.80,14.10,0.06,-0.08,0.11
45,0.80,-0.80,14.10,0.06,-0.05,0.10
51,0.80,-0.80,14.10,0.07,-0.08,0.07
57,0.80,-0.80,14.10,0.05,-0.06,0.07
61,0.80,-0.80,14.10,0.11,-0.03,0.07
66,0.80,-0.80,14.10,0.11,0.05,0.09
71,0.00,0.04,8.20,0.11,0.05,0.09
77,0.34,-1.57,10.91,0.11,0.05,0.09
80,0.34,-1.57,10.91,0.05,0.02,0.07
86,0.34,-1.57,10.91,0.05,-0.00,0.05
92,1.34,-0.04,10.91,0.05,-0.00,0.05
96,1.34,-0.04,10.91,0.05,-0.05,0.04
101,1.34,-0.04,10.91,0.07,0.01,0.03
106,0.73,-0.34,7.43,0.07,0.01,0.03
112,-0.27,-0.23,9.73,0.07,0.01,0.03
116,-0.27,-0.23,9.73,0.05,0.01,0.05
121,-0.27,-0.23,9.73,0.03,0.01,0.02
126,0.96,-0.54,10.45,0.03,0.01,0.02
136,0.96,-0.54,10.45,0.02,-0.08,0.02
143,0.96,-0.54,10.45,0.02,-0.11,0.00
146,0.96,-0.54,10.45,0.07,-0.06,0.04
151,0.96,-0.54,10.45,0.10,-0.02,0.05
156,0.96,-0.54,10.45,0.07,-0.04,0.05
162,-1.95,0.57,8.50,0.07,-0.04,0.05
166,-1.95,0.57,8.50,0.06,0.05,-0.04
171,-1.95,0.57,8.50,0.08,0.12,-0.03
177,-1.95,0.57,8.50,0.06,0.12,0.04
181,-1.95,0.57,8.50,0.03,0.08,0.05
186,-1.95,0.57,8.50,0.04,0.07,-0.00
191,-1.95,0.57,8.50,0.01,0.05,-0.04
198,-1.19,1.53,8.36,0.01,0.05,-0.04
201,-1.19,1.53,8.36,0.01,-0.05,-0.02
206,-1.19,1.53,8.36,0.03,-0.13,-0.01
211,-0.96,-1.38,8.62,0.03,-0.13,-0.01
217,-0.92,-0.27,10.49,0.03,-0.13,-0.01
221,-0.92,-0.27,10.49,0.05,-0.05,0.03
226,0.11,-0.42,9.31,0.05,-0.05,0.03
232,0.96,-1.30,9.77,0.05,-0.05,0.03
236,0.96,-1.30,9.77,0.03,-0.03,-0.00
242,0.96,-1.30,9.77,0.04,-0.03,0.01
247,0.88,-0.11,10.30,0.04,-0.03,0.01
250,0.88,-0.11,10.30,0.07,0.03,0.05
256,0.88,-0.11,10.30,0.07,0.06,0.02
261,0.88,-0.11,10.30,0.08,0.10,-0.01
267,-2.57,0.27,11.11,0.08,0.10,-0.01
271,-2.57,0.27,11.11,0.09,0.18,0.05
276,-2.57,0.27,11.11,0.10,0.18,0.09
282,4.02,-0.80,9.65,0.10,0.18,0.09
286,4.02,-0.80,9.65,0.04,-0.03,0.07
291,4.02,-0.80,9.65,0.03,-0.06,0.03
296,4.02,-0.80,9.65,0.07,-0.04,0.06
302,0.15,-0.84,9.23,0.07,-0.04,0.06
306,0.15,-0.84,9.23,0.03,-0.07,0.13
311,0.15,-0.84,9.23,0.03,-0.09,0.10
317,2.53,-0.65,10.65,0.03,-0.09,0.10
321,2.53,-0.65,10.65,0.04,-0.12,0.13
326,2.53,-0.65,10.65,0.07,-0.09,0.15
331,0.08,-1.19,9.08,0.07,-0.09,0.15
337,-0.08,-0.69,9.08,0.07,-0.09,0.15
341,-0.08,-0.69,9.08,0.12,0.09,0.17
346,-0.08,-0.69,9.08,0.13,0.16,0.19
352,1.19,-0.15,9.30,0.13,0.16,0.19
356,1.19,-0.15,9.30,0.04,0.06,0.19
361,1.19,-0.15,9.30,0.04,0.00,0.14
367,-0.73,-1.68,9.88,0.04,0.00,0.14
370,-0.73,-1.68,9.88,0.05,0.01,0.13
376,-0.73,-1.68,9.88,0.05,-0.03,0.18
381,-0.73,-1.68,9.88,0.05,-0.05,0.19
386,-2.68,-0.15,9.46,0.05,-0.05,0.19
391,-2.68,-0.15,9.46,0.06,0.00,0.13
396,-2.68,-0.15,9.46,0.05,-0.02,0.15
402,-2.68,-0.15,9.46,0.04,-0.01,0.13
406,-2.68,-0.15,9.46,0.06,0.00,0.11
411,-2.68,-0.15,9.46,0.04,0.05,0.10
416,-2.68,-0.15,9.46,0.06,0.08,0.11
422,-1.99,-0.27,8.20,0.06,0.08,0.11
426,-1.99,-0.27,8.20,0.03,0.05,0.08
431,-1.99,-0.27,8.20,0.00,-0.03,0.04
437,-1.99,-0.27,8.20,0.00,-0.06,0.01
441,-1.99,-0.27,8.20,0.03,-0.04,-0.00
446,-1.99,-0.27,8.20,0.01,-0.01,0.02
451,-1.99,-0.27,8.20,0.03,0.01,0.02
457,-3.26,-0.46,7.66,0.03,0.01,0.02
461,-3.26,-0.46,7.66,0.06,0.05,-0.05
466,-3.26,-0.46,7.66,0.04,0.07,-0.05
472,-3.26,-0.46,7.66,0.05,0.00,-0.04
476,-3.26,-0.46,7.66,0.06,-0.07,-0.04
481,-3.26,-0.46,7.66,0.05,-0.10,-0.09
486,-3.26,-0.46,7.66,0.04,-0.11,-0.11
491,-0.15,-1.80,11.84,0.04,-0.11,-0.11
496,-0.15,-1.80,11.84,0.09,-0.05,-0.11
501,-0.15,-1.80,11.84,0.09,0.00,-0.11
506,-1.68,1.23,9.20,0.09,0.00,-0.11
511,-1.68,1.23,9.20,0.09,0.12,-0.14
516,-1.68,1.23,9.20,0.06,0.15,-0.14
521,-1.68,1.23,9.20,0.06,0.18,-0.13
526,-1.68,1.23,9.20,0.03,0.12,-0.12
531,-1.68,1.23,9.20,-0.01,0.05,-0.15
536,-1.68,1.23,9.20,-0.01,0.01,-0.17
542,-0.92,0.04,7.66,-0.01,0.01,-0.17
546,-0.92,0.04,7.66,0.00,-0.05,-0.09
551,-0.92,0.04,7.66,0.00,-0.06,-0.06
557,-0.92,0.04,7.66,-0.02,-0.02,-0.10
561,-0.92,0.04,7.66,-0.03,0.01,-0.12
566,-0.92,0.04,7.66,0.02,-0.01,-0.07
571,-0.92,0.04,7.66,0.05,-0.04,0.02
577,-0.92,0.04,7.66,0.06,-0.11,0.12
581,-0.92,0.04,7.66,0.13,-0.17,0.15
586,-0.92,0.04,7.66,0.12,-0.16,0.09
592,-0.92,0.04,7.66,0.11,-0.09,0.04
596,-0.92,0.04,7.66,0.09,-0.04,0.06
601,-0.92,0.04,7.66,0.16,0.07,0.12
606,-0.92,0.04,7.66,0.12,0.16,0.16
612,-2.14,-0.61,7.05,0.12,0.16,0.16
616,-2.14,-0.61,7.05,0.06,0.13,0.25
621,-2.14,-0.61,7.05,0.05,-0.02,0.27
626,-2.14,-0.61,7.05,0.02,-0.15,0.19
631,-2.14,-0.61,7.05,0.03,-0.22,0.08
636,-2.14,-0.61,7.05,0.08,-0.23,0.00
641,-2.14,-0.61,7.05,0.09,-0.14,0.00
647,1.61,-1.23,11.88,0.09,-0.14,0.00
651,1.61,-1.23,11.88,0.12,-0.01,0.18
656,1.61,-1.23,11.88,0.10,0.04,0.16
662,1.61,-1.23,11.88,0.05,0.12,0.03
666,1.61,-1.23,11.88,0.05,0.16,-0.10
671,1.61,-1.23,11.88,0.00,0.11,-0.13
676,1.61,-1.23,11.88,-0.01,0.06,-0.10
682,1.30,1.72,8.58,-0.01,0.06,-0.10
686,1.30,1.72,8.58,-0.05,-0.11,-0.07
691,1.30,1.72,8.58,-0.04,-0.12,-0.16
697,1.30,1.72,8.58,0.00,-0.15,-0.21
701,1.30,1.72,8.58,0.06,-0.11,-0.22
706,1.30,1.72,8.58,0.04,-0.01,-0.21
711,1.30,1.72,8.58,0.03,0.08,-0.16
717,1.30,1.72,8.58,0.03,0.05,-0.09
721,1.30,1.72,8.58,0.00,0.02,-0.12
726,1.30,1.72,8.58,-0.06,0.02,-0.22
731,1.30,1.72,8.58,-0.07,0.02,-0.32
736,1.30,1.72,8.58,-0.05,0.03,-0.33
741,1.30,1.72,8.58,-0.03,0.02,-0.27
746,1.30,1.72,8.58,-0.03,-0.00,-0.21
751,1.30,1.72,8.58,-0.02,0.00,-0.22
756,1.30,1.72,8.58,0.00,-0.01,-0.22
761,1.30,1.72,8.58,0.03,-0.04,-0.17
767,-0.92,-0.19,7.59,0.03,-0.04,-0.17
771,-0.92,-0.19,7.59,0.03,-0.08,-0.07
776,-0.92,-0.19,7.59,0.04,-0.11,-0.06
781,-0.92,-0.19,7.59,0.07,-0.08,-0.06
786,-0.92,-0.19,7.59,0.09,0.01,-0.06
791,-0.92,-0.19,7.59,0.12,0.07,-0.01
796,-0.92,-0.19,7.59,0.17,0.12,0.06
802,-4.10,-0.08,9.50,0.17,0.12,0.06
806,-4.10,-0.08,9.50,0.12,0.20,0.09
811,-4.10,-0.08,9.50,0.15,0.15,0.10
816,-4.10,-0.08,9.50,0.13,0.07,0.13
821,-4.10,-0.08,9.50,0.11,-0.05,0.17
826,-4.10,-0.08,9.50,0.11,-0.18,0.20
831,-4.10,-0.08,9.50,0.13,-0.21,0.20
837,2.91,-3.22,11.26,0.13,-0.21,0.20
842,2.91,-3.22,11.26,0.16,-0.21,0.25
846,2.91,-3.22,11.26,0.21,-0.13,0.28
851,2.91,-3.22,11.26,0.23,0.03,0.27
856,2.91,-3.22,11.26,0.24,0.11,0.31
861,2.91,-3.22,11.26,0.26,0.12,0.38
866,2.91,-3.22,11.26,0.26,0.07,0.43
871,-1.65,-0.50,7.43,0.26,0.07,0.43
876,-1.65,-0.50,7.43,0.19,-0.00,0.35
881,-1.65,-0.50,7.43,0.23,-0.06,0.38
886,-1.65,-0.50,7.43,0.23,-0.09,0.47
891,-1.65,-0.50,7.43,0.24,-0.07,0.55
896,-1.65,-0.50,7.43,0.23,-0.05,0.58
901,-1.65,-0.50,7.43,0.27,-0.03,0.58
907,-1.61,-1.46,10.77,0.27,-0.03,0.58
911,-1.61,-1.46,10.77,0.27,-0.04,0.58
916,-1.61,-1.46,10.77,0.28,-0.06,0.61
921,-1.61,-1.46,10.77,0.32,-0.06,0.65
926,-1.61,-1.46,10.77,0.31,-0.05,0.69
931,-1.61,-1.46,10.77,0.27,-0.06,0.71
935,-1.61,-1.46,10.77,0.24,-0.07,0.72
940,0.08,0.08,9.65,0.24,-0.07,0.72
946,0.08,0.08,9.65,0.21,-0.06,0.68
952,0.08,0.08,9.65,0.19,-0.05,0.62
956,0.08,0.08,9.65,0.21,-0.01,0.66
961,0.08,0.08,9.65,0.23,-0.03,0.73
966,0.08,0.08,9.65,0.22,0.00,0.72
971,0.08,0.08,9.65,0.21,0.05,0.68
977,-0.61,-2.03,8.54,0.21,0.05,0.68
981,-0.61,-2.03,8.54,0.22,-0.01,0.71
986,-0.61,-2.03,8.54,0.22,-0.02,0.73
992,-0.61,-2.03,8.54,0.17,0.02,0.70
996,-0.61,-2.03,8.54,0.17,0.03,0.72
1001,-0.61,-2.03,8.54,0.17,-0.01,0.76
1006,-0.61,-2.03,8.54,0.14,-0.03,0.75
1011,-0.61,-2.03,8.54,0.06,-0.03,0.70
1016,-0.61,-2.03,8.54,0.10,-0.04,0.69
1021,-0.61,-2.03,8.54,0.10,-0.04,0.71
1027,0.96,-1.57,11.95,0.10,-0.04,0.71
1031,0.96,-1.57,11.95,0.12,-0.11,0.71
1036,0.96,-1.57,11.95,0.11,-0.15,0.68
1041,0.96,-1.57,11.95,0.12,-0.10,0.59
1046,0.96,-1.57,11.95,0.10,-0.03,0.51
1051,0.96,-1.57,11.95,0.09,0.06,0.50
1056,0.96,-1.57,11.95,0.05,0.14,0.50
1062,-3.60,2.18,7.43,0.05,0.14,0.50
1066,-3.60,2.18,7.43,-0.05,0.24,0.41
1071,-3.60,2.18,7.43,-0.11,0.23,0.35
1076,-3.60,2.18,7.43,-0.11,0.12,0.35
1081,-3.60,2.18,7.43,-0.13,-0.00,0.34
1086,-3.60,2.18,7.43,-0.14,-0.11,0.29
1091,-3.60,2.18,7.43,-0.15,-0.15,0.22
1097,-0.80,-1.15,11.11,-0.15,-0.15,0.22
1101,-0.80,-1.15,11.11,-0.07,-0.03,0.22
1106,-0.80,-1.15,11.11,-0.06,0.01,0.31
1111,-0.80,-1.15,11.11,-0.04,0.05,0.36
1117,-0.54,2.91,8.20,-0.04,0.05,0.36
1121,-0.54,2.91,8.20,-0.11,0.09,0.24
1125,-0.54,2.91,8.20,-0.18,0.05,0.21
1131,0.77,1.00,8.73,-0.18,0.05,0.21
1136,0.77,1.00,8.73,-0.20,0.04,0.20
1141,0.77,1.00,8.73,-0.19,0.05,0.21
1146,0.77,1.00,8.73,-0.16,0.05,0.24
1152,0.04,-1.04,9.54,-0.16,0.05,0.24
1156,0.04,-1.04,9.54,-0.13,0.00,0.25
1160,0.04,-1.04,9.54,-0.13,-0.03,0.23
1167,1.49,1.27,10.77,-0.13,-0.03,0.23
1171,1.49,1.27,10.77,-0.13,0.01,0.10
1176,1.49,1.27,10.77,-0.16,0.10,0.04
1182,1.49,1.27,10.77,-0.20,0.15,0.06
1186,1.49,1.27,10.77,-0.18,0.12,0.14
1191,1.49,1.27,10.77,-0.21,0.06,0.15
1195,1.49,1.27,10.77,-0.19,0.02,0.07
1202,1.38,-0.84,12.26,-0.19,0.02,0.07
1206,1.38,-0.84,12.26,-0.17,0.03,-0.12
1211,1.38,-0.84,12.26,-0.16,0.04,-0.12
1217,1.38,-0.84,12.26,-0.14,0.07,-0.13
1221,1.38,-0.84,12.26,-0.13,0.15,-0.16
1226,1.38,-0.84,12.26,-0.15,0.20,-0.16
1230,1.38,-0.84,12.26,-0.18,0.21,-0.15
1236,-0.96,2.61,5.18,-0.18,0.21,-0.15
1241,-0.96,2.61,5.18,-0.28,0.08,-0.21
1246,-0.96,2.61,5.18,-0.30,0.00,-0.30
1252,-0.96,2.61,5.18,-0.29,-0.04,-0.36
1256,-0.96,2.61,5.18,-0.29,-0.05,-0.36
1261,-0.96,2.61,5.18,-0.25,0.00,-0.32
1266,-0.96,2.61,5.18,-0.19,0.06,-0.26
1271,-2.99,0.96,10.04,-0.19,0.06,-0.26
1276,-2.99,0.96,10.04,-0.17,0.19,-0.19
1281,-2.99,0.96,10.04,-0.18,0.21,-0.17
1287,-2.45,3.56,5.56,-0.18,0.21,-0.17
1291,-2.45,3.56,5.56,-0.28,0.10,-0.15
1296,-2.45,3.56,5.56,-0.28,-0.02,-0.15
1300,-2.45,3.56,5.56,-0.28,-0.11,-0.15
1306,0.88,-0.38,10.39,-0.28,-0.11,-0.15
1311,0.88,-0.38,10.39,-0.25,-0.14,-0.09
1316,0.88,-0.38,10.39,-0.18,-0.10,-0.04
1321,-1.27,-1.46,11.11,-0.18,-0.10,-0.04
1326,-1.27,-1.46,11.11,-0.15,0.07,0.00
1331,-1.27,-1.46,11.11,-0.12,0.12,0.02
1336,-1.27,-1.46,11.11,-0.11,0.15,0.02
1342,-1.99,1.68,8.42,-0.11,0.15,0.02
1346,-1.99,1.68,8.42,-0.18,0.18,-0.01
1351,-1.99,1.68,8.42,-0.21,0.16,-0.00
1356,-2.84,-0.08,7.28,-0.21,0.16,-0.00
1361,-2.84,-0.08,7.28,-0.24,0.06,0.03
1366,-2.84,-0.08,7.28,-0.23,-0.01,0.05
1371,-2.84,-0.08,7.28,-0.23,-0.10,0.05
1376,-0.57,-1.61,10.45,-0.23,-0.10,0.05
1381,-0.57,-1.61,10.45,-0.18,-0.17,0.05
1385,-0.57,-1.61,10.45,-0.15,-0.19,0.06
1392,-0.57,-1.49,11.49,-0.15,-0.19,0.06
1396,-0.57,-1.49,11.49,-0.11,-0.05,0.04
1401,-0.57,-1.49,11.49,-0.06,0.09,0.04
1406,-0.57,-1.49,11.49,-0.11,0.21,0.05
1411,-2.80,0.65,7.27,-0.11,0.21,0.05
1416,-2.80,0.65,7.27,-0.23,0.29,0.02
1420,-2.80,0.65,7.27,-0.24,0.23,-0.01
1426,-2.03,-0.84,7.47,-0.24,0.23,-0.01
1431,-2.03,-0.84,7.47,-0.23,0.02,-0.02
1436,-2.03,-0.84,7.47,-0.24,-0.07,0.04
1442,-2.03,-0.84,7.47,-0.20,-0.16,0.12
1446,-2.03,-0.84,7.47,-0.15,-0.19,0.16
1451,-2.03,-0.84,7.47,-0.11,-0.19,0.17
1455,-2.03,-0.84,7.47,-0.09,-0.20,0.18
1461,0.04,-0.34,11.95,-0.09,-0.20,0.18
1466,0.04,-0.34,11.95,-0.05,-0.05,0.10
1471,0.04,-0.34,11.95,-0.06,0.14,0.06
1476,0.04,-0.34,11.95,-0.08,0.30,0.09
1481,0.04,-0.34,11.95,-0.13,0.29,0.20
1486,0.04,-0.34,11.95,-0.17,0.19,0.24
1491,0.04,-0.34,11.95,-0.23,0.10,0.14
1496,-0.77,-0.34,9.27,-0.23,0.10,0.14
1501,-0.77,-0.34,9.27,-0.24,-0.10,-0.04
1506,-0.77,-0.34,9.27,-0.19,-0.16,-0.00
1511,-0.77,-0.34,9.27,-0.15,-0.17,0.06
1516,-0.77,-0.34,9.27,-0.11,-0.15,0.11
1521,-0.77,-0.34,9.27,-0.05,-0.12,0.13
1526,-0.77,-0.34,9.27,-0.10,-0.02,0.11
1531,-1.46,-1.07,7.89,-0.10,-0.02,0.11
1536,-1.46,-1.07,7.89,-0.15,0.05,0.13
1541,-1.46,-1.07,7.89,-0.19,0.05,0.13
1546,-0.84,0.77,7.47,-0.19,0.05,0.13
1551,-0.84,0.77,7.47,-0.24,-0.05,0.08
1556,-0.84,0.77,7.47,-0.23,-0.15,0.08
1561,-0.84,0.77,7.47,-0.21,-0.18,0.04
1566,2.49,-1.04,12.48,-0.21,-0.18,0.04
1571,2.49,-1.04,12.48,-0.17,-0.12,-0.05
1575,2.49,-1.04,12.48,-0.11,-0.07,-0.03
1580,-0.92,0.34,10.23,-0.11,-0.07,-0.03
1586,-0.92,0.34,10.23,-0.13,0.04,-0.01
1591,-0.92,0.34,10.23,-0.17,0.13,-0.01
1596,-0.92,0.34,10.23,-0.20,0.20,-0.05
1601,-0.92,0.34,10.23,-0.24,0.21,-0.16
1606,-0.92,0.34,10.23,-0.28,0.19,-0.22
1611,-0.92,0.34,10.23,-0.29,0.08,-0.21
1617,-2.07,1.61,9.23,-0.29,0.08,-0.21
1621,-2.07,1.61,9.23,-0.30,-0.01,-0.19
1626,-2.07,1.61,9.23,-0.28,-0.03,-0.19
1631,-2.07,1.61,9.23,-0.27,-0.07,-0.17
1637,-0.04,1.11,10.15,-0.27,-0.07,-0.17
1641,-0.04,1.11,10.15,-0.29,-0.06,-0.24
1646,-0.04,1.11,10.15,-0.28,-0.04,-0.24
1651,-1.23,-0.69,9.81,-0.28,-0.04,-0.24
1656,-1.23,-0.69,9.81,-0.27,0.04,-0.19
1660,-1.23,-0.69,9.81,-0.28,0.03,-0.18
1666,-1.23,-0.69,9.81,-0.27,0.05,-0.23
1671,0.73,-0.08,11.68,-0.27,0.05,-0.23
1676,0.73,-0.08,11.68,-0.25,0.01,-0.25
1681,0.73,-0.08,11.68,-0.25,0.02,-0.28
1686,1.46,-0.34,9.92,-0.25,0.02,-0.28
1691,1.46,-0.34,9.92,-0.25,0.04,-0.33
1695,1.46,-0.34,9.92,-0.27,0.07,-0.32
1701,-2.45,1.88,7.70,-0.27,0.07,-0.32
1706,-2.45,1.88,7.70,-0.32,0.19,-0.35
1711,-2.45,1.88,7.70,-0.34,0.21,-0.37
1716,-2.45,1.88,7.70,-0.36,0.15,-0.37
1721,-0.61,1.99,7.62,-0.36,0.15,-0.37
1726,-0.61,1.99,7.62,-0.32,0.01,-0.40
1730,-0.61,1.99,7.62,-0.34,0.00,-0.42
1737,-0.61,1.99,7.62,-0.29,-0.04,-0.37
1741,-0.61,1.99,7.62,-0.26,-0.11,-0.30
1746,-0.61,1.99,7.62,-0.25,-0.11,-0.33
1751,-0.61,1.99,7.62,-0.22,-0.10,-0.39
1756,-0.19,-1.07,10.45,-0.22,-0.10,-0.39
1761,-0.19,-1.07,10.45,-0.19,0.05,-0.42
1766,-0.19,-1.07,10.45,-0.21,0.12,-0.39
1771,-2.14,1.04,8.20,-0.21,0.12,-0.39
1776,-2.38,0.42,8.31,-0.21,0.12,-0.39
1781,-2.38,0.42,8.31,-0.29,0.27,-0.53
1786,-2.38,0.42,8.31,-0.29,0.24,-0.49
1792,-1.42,0.50,6.59,-0.29,0.24,-0.49
1796,-1.42,0.50,6.59,-0.30,0.13,-0.35
1800,-1.42,0.50,6.59,-0.28,0.05,-0.30
1806,0.84,0.38,10.27,-0.28,0.05,-0.30
1811,0.84,0.38,10.27,-0.24,-0.05,-0.27
1816,0.84,0.38,10.27,-0.20,-0.04,-0.23
1821,0.84,0.38,10.27,-0.17,-0.04,-0.13
1826,-1.42,-1.65,7.81,-0.17,-0.04,-0.13
1831,-1.42,-1.65,7.81,-0.16,-0.04,-0.06
1836,-1.42,-1.65,7.81,-0.13,-0.04,-0.11
1842,-1.91,-1.42,11.64,-0.13,-0.04,-0.11
1846,-1.91,-1.42,11.64,-0.10,0.07,-0.14
1851,-1.91,-1.42,11.64,-0.12,0.10,-0.13
1856,-1.91,-1.42,11.64,-0.11,0.08,-0.13
1861,-0.42,-1.84,8.93,-0.11,0.08,-0.13
1866,-0.42,-1.84,8.93,-0.18,0.05,-0.26
1871,-0.42,-1.84,8.93,-0.17,0.00,-0.27
1876,-0.42,-1.84,8.93,-0.19,-0.02,-0.25
1881,-0.42,-1.84,8.93,-0.20,-0.02,-0.24
1886,-0.42,-1.84,8.93,-0.20,-0.03,-0.26
1891,-0.42,-1.84,8.93,-0.18,-0.03,-0.32
1896,-0.11,-1.07,11.34,-0.18,-0.03,-0.32
1901,-0.11,-1.07,11.34,-0.17,0.05,-0.45
1906,-0.11,-1.07,11.34,-0.15,0.10,-0.50
1911,-1.91,-0.19,9.58,-0.15,0.10,-0.50
1916,-1.91,-0.19,9.58,-0.13,0.23,-0.54
1921,-1.91,-0.19,9.58,-0.18,0.26,-0.52
1926,-3.83,2.30,7.35,-0.18,0.26,-0.52
1931,-3.83,2.30,7.35,-0.26,0.17,-0.52
1936,-3.83,2.30,7.35,-0.29,0.08,-0.55
1941,-3.83,2.30,7.35,-0.30,-0.02,-0.59
1946,0.46,1.11,10.23,-0.30,-0.02,-0.59
1951,0.46,1.11,10.23,-0.27,-0.15,-0.59
1956,0.46,1.11,10.23,-0.25,-0.13,-0.58
1961,-3.10,-0.84,9.88,-0.25,-0.13,-0.58
1966,-3.10,-0.84,9.88,-0.18,-0.01,-0.51
1971,-3.10,-0.84,9.88,-0.17,0.00,-0.42
1976,-3.10,-0.84,9.88,-0.16,-0.03,-0.37
1981,-0.88,3.37,10.38,-0.16,-0.03,-0.37
1986,-0.88,3.37,10.38,-0.22,-0.01,-0.49
1991,-0.88,3.37,10.38,-0.24,0.03,-0.53
1996,-0.88,3.37,10.38,-0.20,0.07,-0.48
2001,-0.88,3.37,10.38,-0.21,0.08,-0.43
2006,-0.88,3.37,10.38,-0.22,0.08,-0.41
2011,-0.88,3.37,10.38,-0.20,0.09,-0.41
2016,-0.11,-1.19,9.12,-0.20,0.09,-0.41
2021,-0.11,-1.19,9.12,-0.17,-0.01,-0.27
2025,-0.11,-1.19,9.12,-0.17,-0.06,-0.26
2031,-0.61,-0.92,9.46,-0.17,-0.06,-0.26
2036,-0.61,-0.92,9.46,-0.18,0.01,-0.36
2040,-0.61,-0.92,9.46,-0.17,0.08,-0.34
2046,-0.61,-0.92,9.46,-0.10,0.07,-0.23
2051,-1.49,-2.76,8.12,-0.10,0.07,-0.23
2056,-1.49,-2.76,8.12,-0.07,-0.01,-0.05
2061,-1.49,-2.76,8.12,-0.07,-0.06,-0.06
2066,2.72,-1.72,11.34,-0.07,-0.06,-0.06
2071,2.72,-1.72,11.34,-0.06,-0.17,-0.14
2075,2.72,-1.72,11.34,-0.05,-0.12,-0.17
2081,2.72,-1.72,11.34,-0.07,-0.07,-0.12
2086,0.77,-3.48,10.96,-0.07,-0.07,-0.12
2091,0.77,-3.48,10.96,-0.02,0.09,-0.04
2096,0.77,-3.48,10.96,-0.06,0.16,-0.07
2101,-2.30,-1.72,8.50,-0.06,0.16,-0.07
2106,-2.30,-1.72,8.50,-0.07,0.25,-0.16
2110,-2.30,-1.72,8.50,-0.08,0.26,-0.12
2116,-2.30,-1.72,8.50,-0.05,0.21,-0.02
2121,-2.30,-1.72,8.50,-0.04,0.11,0.07
2126,-2.30,-1.72,8.50,-0.06,0.03,0.05
2131,-2.30,-1.72,8.50,-0.08,-0.01,-0.05
2136,-2.30,-1.72,8.50,-0.05,-0.03,-0.12
2141,-2.30,-1.72,8.50,-0.04,-0.03,-0.08
2146,-2.30,-1.72,8.50,-0.05,-0.03,0.03
2151,0.38,-1.15,8.73,-0.05,-0.03,0.03
2156,-0.11,0.80,9.77,-0.05,-0.03,0.03
2161,-0.11,0.80,9.77,-0.10,-0.18,-0.03
2166,-0.11,0.80,9.77,-0.13,-0.19,-0.14
2171,2.72,0.80,12.18,-0.13,-0.19,-0.14
2176,2.72,0.80,12.18,-0.16,-0.13,-0.26
2181,2.72,0.80,12.18,-0.14,-0.05,-0.30
2186,0.69,0.11,11.84,-0.14,-0.05,-0.30
2191,0.69,0.11,11.84,-0.10,0.22,-0.39
2196,0.69,0.11,11.84,-0.16,0.43,-0.46
2201,0.69,0.11,11.84,-0.19,0.49,-0.42
2206,2.14,2.11,12.52,-0.19,0.49,-0.42
2211,2.14,2.11,12.52,-0.16,0.29,-0.35
2216,2.14,2.11,12.52,-0.24,0.20,-0.47
2221,4.98,0.38,11.07,-0.24,0.20,-0.47
2225,4.98,0.38,11.07,-0.27,0.02,-0.70
2230,4.98,0.38,11.07,-0.29,-0.01,-0.74
2236,4.98,0.38,11.07,-0.28,0.03,-0.74
2241,4.98,0.38,11.07,-0.30,0.13,-0.71
2246,4.98,0.38,11.07,-0.29,0.24,-0.65
2250,4.98,0.38,11.07,-0.31,0.25,-0.54
2256,4.98,0.38,11.07,-0.30,0.21,-0.48
2261,4.98,0.38,11.07,-0.34,0.15,-0.52
2266,4.98,0.38,11.07,-0.37,0.00,-0.58
2271,4.98,0.38,11.07,-0.33,-0.22,-0.60
2276,2.72,-0.08,10.92,-0.33,-0.22,-0.60
2281,2.72,-0.08,10.92,-0.29,-0.28,-0.67
2286,2.72,-0.08,10.92,-0.21,-0.12,-0.62
2291,-1.42,-1.88,7.97,-0.21,-0.12,-0.62
2296,-1.42,-1.88,7.97,-0.18,0.10,-0.28
2300,-1.42,-1.88,7.97,-0.21,0.14,-0.21
2306,-1.42,-1.88,7.97,-0.25,0.21,-0.33
2311,-1.42,-1.88,7.97,-0.33,0.24,-0.51
2316,-1.42,-1.88,7.97,-0.31,0.23,-0.63
2321,-1.42,-1.88,7.97,-0.31,0.22,-0.68
2326,1.38,-2.26,9.92,-0.31,0.22,-0.68
2331,1.38,-2.26,9.92,-0.26,0.19,-0.59
2336,1.38,-2.26,9.92,-0.24,0.19,-0.53
2341,-0.50,-2.84,8.43,-0.24,0.19,-0.53
2346,-0.50,-2.84,8.43,-0.19,0.15,-0.45
2351,-0.50,-2.84,8.43,-0.23,0.14,-0.47
2356,-0.50,-2.84,8.43,-0.23,0.15,-0.53
2361,-0.50,-2.84,8.43,-0.19,0.12,-0.53
2366,-0.50,-2.84,8.43,-0.19,0.12,-0.55
2371,-0.50,-2.84,8.43,-0.23,0.19,-0.56
2376,-0.50,-2.84,8.43,-0.24,0.21,-0.53
2381,-0.50,-2.84,8.43,-0.20,0.19,-0.46
2385,-0.50,-2.84,8.43,-0.19,0.14,-0.42
2391,-0.50,-2.84,8.43,-0.20,0.10,-0.41
2396,-0.50,-2.84,8.43,-0.21,0.05,-0.40
2401,-0.50,-2.84,8.43,-0.21,0.01,-0.39
2406,-0.50,-2.84,8.43,-0.21,-0.01,-0.36
2410,2.49,1.00,11.46,-0.21,-0.01,-0.36
2416,-0.11,0.57,12.91,-0.21,-0.01,-0.36
2421,-0.11,0.57,12.91,-0.20,-0.01,-0.48
2426,-0.11,0.57,12.91,-0.17,0.05,-0.52
2431,-0.11,0.57,12.91,-0.19,0.08,-0.47
2436,-0.11,0.57,12.91,-0.14,0.13,-0.44
2441,-0.11,0.57,12.91,-0.14,0.17,-0.45
2446,-2.11,-1.80,10.65,-0.14,0.17,-0.45
2451,-2.11,-1.80,10.65,-0.25,0.28,-0.58
2456,-2.11,-1.80,10.65,-0.23,0.19,-0.58
2461,-2.11,-1.80,10.65,-0.26,0.12,-0.63
2466,-2.11,-1.80,10.65,-0.27,0.15,-0.74
2471,-2.11,-1.80,10.65,-0.23,0.17,-0.76
2475,-2.11,-1.80,10.65,-0.24,0.15,-0.65
2480,-2.11,-1.80,10.65,-0.19,0.11,-0.52
2485,2.30,0.46,12.41,-0.19,0.11,-0.52
2492,2.30,0.46,12.41,-0.18,-0.00,-0.49
2496,2.30,0.46,12.41,-0.22,0.03,-0.80
2500,0.84,0.88,12.72,-0.22,0.03,-0.80
2505,0.84,0.88,12.72,-0.11,-0.11,-0.81
2511,0.84,0.88,12.72,-0.20,0.13,-0.91
2516,0.84,0.88,12.72,-0.24,0.38,-0.95
2521,0.84,0.88,12.72,-0.20,0.38,-0.80
2526,0.84,0.88,12.72,-0.31,0.25,-0.70
2531,0.84,0.88,12.72,-0.39,0.18,-0.79
2536,4.94,4.45,9.61,-0.39,0.18,-0.79
2541,4.94,4.45,9.61,-0.31,-0.15,-1.06
2546,4.94,4.45,9.61,-0.32,-0.26,-1.13
2551,4.94,4.45,9.61,-0.30,-0.30,-1.17
2556,4.94,4.45,9.61,-0.28,-0.27,-1.21
2561,4.94,4.45,9.61,-0.29,-0.17,-1.24
2567,4.94,4.45,9.61,-0.34,-0.06,-1.25
2571,4.94,4.45,9.61,-0.31,0.07,-1.26
2575,-2.68,3.52,11.30,-0.31,0.07,-1.26
2580,-2.68,3.52,11.30,-0.33,0.35,-1.37
2586,2.99,5.13,11.04,-0.33,0.35,-1.37
2591,2.99,5.13,11.04,-0.39,0.40,-1.55
2596,-1.15,1.53,9.65,-0.39,0.40,-1.55
2600,-1.15,1.53,9.65,-0.41,0.48,-1.82
2606,-1.15,1.53,9.65,-0.39,0.47,-1.78
2611,-1.15,1.53,9.65,-0.37,0.40,-1.61
2616,-1.15,1.53,9.65,-0.31,0.24,-1.41
2621,-1.15,1.53,9.65,-0.29,0.11,-1.36
2626,-1.15,1.53,9.65,-0.30,0.07,-1.41
2630,-1.15,1.53,9.65,-0.39,0.11,-1.51
2635,-1.15,1.53,9.65,-0.38,0.16,-1.52
2640,-5.21,-0.77,2.53,-0.38,0.16,-1.52
2646,-5.21,-0.77,2.53,-0.34,0.18,-1.26
2651,-5.21,-0.77,2.53,-0.33,0.16,-1.07
2656,-5.21,-0.77,2.53,-0.30,0.07,-0.87
2660,4.94,1.15,15.55,-0.30,0.07,-0.87
2666,4.94,1.15,15.55,-0.18,-0.33,-0.51
2671,16.89,-2.49,28.77,-0.18,-0.33,-0.51
2675,16.89,-2.49,28.77,0.06,-0.78,-0.48
2681,16.89,-2.49,28.77,0.34,-0.56,-0.68
2686,16.89,-2.49,28.77,0.35,0.32,-0.91
2691,16.89,-2.49,28.77,0.17,1.05,-1.01
2695,-3.95,-2.34,4.02,0.17,1.05,-1.01
2700,-6.85,-2.38,0.00,0.17,1.05,-1.01
2706,-6.85,-2.38,0.00,-0.16,1.19,-1.10
2710,-6.85,-2.38,0.00,-0.32,1.10,-1.09
2716,-6.85,-2.38,0.00,-0.39,0.93,-1.08
2721,-6.85,-2.38,0.00,-0.34,0.62,-1.04
2726,-6.85,-2.38,0.00,-0.21,0.30,-0.99
2730,-0.57,-9.38,5.59,-0.21,0.30,-0.99
2736,-0.57,-9.38,5.59,0.05,-0.18,-0.77
2742,-0.88,-12.72,8.93,0.05,-0.18,-0.77
2746,-0.42,-7.78,9.42,0.05,-0.18,-0.77
2750,-2.53,-5.17,9.85,0.05,-0.18,-0.77
2756,-2.53,-5.17,9.85,0.50,-0.34,0.11
2761,-2.53,-5.17,9.85,0.53,-0.28,0.18
2766,-1.19,1.11,12.64,0.53,-0.28,0.18
2770,1.68,1.57,9.93,0.53,-0.28,0.18
2776,1.68,1.57,9.93,0.23,-0.12,-0.11
2781,1.68,1.57,9.93,0.15,-0.02,-0.25
2785,-2.72,-0.30,8.46,0.15,-0.02,-0.25
2791,0.73,-2.38,8.82,0.15,-0.02,-0.25
2796,0.73,-2.38,8.82,0.11,0.40,-0.29
2801,0.73,-2.38,8.82,0.14,0.40,-0.21
2806,0.73,-2.38,8.82,0.13,0.36,-0.22
2811,0.73,-2.38,8.82,0.21,0.28,-0.26
2816,2.87,-2.30,13.02,0.21,0.28,-0.26
2820,2.80,-3.07,10.88,0.21,0.28,-0.26
2826,2.80,-3.07,10.88,0.34,0.18,-0.29
2831,2.80,-3.07,10.88,0.38,0.16,-0.24
2836,-6.17,0.00,7.32,0.38,0.16,-0.24
2841,-9.30,0.88,4.71,0.38,0.16,-0.24
2846,-9.30,0.88,4.71,0.23,0.50,-0.25
2851,-9.30,0.88,4.71,0.19,0.54,-0.17
2856,-9.30,0.88,4.71,0.14,0.48,-0.05
2861,-9.30,0.88,4.71,0.06,0.35,-0.02
2866,4.14,-1.11,9.96,0.06,0.35,-0.02
2870,4.02,-1.30,9.65,0.06,0.35,-0.02
2876,4.02,-1.30,9.65,0.09,-0.32,-0.19
2881,4.02,-1.30,9.65,0.07,-0.38,-0.21
2886,2.95,-6.44,12.34,0.07,-0.38,-0.21
2890,2.41,-5.59,12.38,0.07,-0.38,-0.21
2896,2.41,-5.59,12.38,0.25,-0.31,0.06
2901,2.41,-5.59,12.38,0.23,-0.23,0.10
2905,1.49,-1.61,13.83,0.23,-0.23,0.10
2910,0.92,0.46,13.06,0.23,-0.23,0.10
2916,0.92,0.46,13.06,0.16,0.12,-0.25
2921,0.92,0.46,13.06,0.10,0.25,-0.34
2926,-1.23,-3.45,5.94,0.10,0.25,-0.34
2930,-5.60,-2.22,4.60,0.10,0.25,-0.34
2936,-5.60,-2.22,4.60,0.01,0.48,-0.33
2941,-5.60,-2.22,4.60,0.03,0.51,-0.24
2946,-5.60,-2.22,4.60,0.08,0.44,-0.14
2951,-5.60,-2.22,4.60,0.10,0.26,-0.08
2956,10.84,-1.99,17.39,0.10,0.26,-0.08
2960,11.38,-2.84,17.12,0.10,0.26,-0.08
2966,11.38,-2.84,17.12,0.30,-0.16,-0.40
2971,0.92,-3.41,7.66,0.30,-0.16,-0.40
2975,3.56,-3.07,9.81,0.30,-0.16,-0.40
2981,3.56,-3.07,9.81,0.22,0.50,-0.38
2986,3.56,-3.07,9.81,0.24,0.84,-0.34
2991,-27.93,2.22,8.31,0.24,0.84,-0.34
2995,-20.41,6.74,10.04,0.24,0.84,-0.34
3001,-20.41,6.74,10.04,0.11,1.28,-0.21
3006,-20.41,6.74,10.04,0.06,0.87,-0.15
3010,-20.41,6.74,10.04,-0.12,0.29,-0.15
3015,-20.41,6.74,10.04,-0.23,-0.25,-0.26
3020,13.63,2.14,6.13,-0.23,-0.25,-0.26
3025,13.63,2.14,6.13,-0.18,-0.83,-0.67
3031,13.63,2.14,6.13,-0.18,-0.82,-0.77
3036,13.63,2.14,6.13,-0.12,-0.64,-0.77
3041,-0.92,-0.92,13.25,-0.12,-0.64,-0.77
3045,0.38,1.80,12.02,-0.12,-0.64,-0.77
3051,0.38,1.80,12.02,-0.08,-0.09,-0.41
3056,0.38,1.80,12.02,-0.16,0.06,-0.47
3060,4.14,3.60,9.58,-0.16,0.06,-0.47
3066,3.29,2.26,5.82,-0.16,0.06,-0.47
3070,3.29,2.26,5.82,-0.16,0.20,-1.00
3076,3.29,2.26,5.82,-0.25,0.22,-1.03
3080,3.29,2.26,5.82,-0.27,0.23,-0.93
3086,3.29,2.26,5.82,-0.26,0.32,-0.78
3091,2.61,-1.72,11.95,-0.26,0.32,-0.78
3095,4.18,2.95,14.82,-0.26,0.32,-0.78
3101,4.18,2.95,14.82,-0.23,-0.22,-0.35
3106,4.18,2.95,14.82,-0.29,-0.60,-0.44
3111,16.47,-4.56,32.07,-0.29,-0.60,-0.44
3116,9.69,-4.75,23.25,-0.29,-0.60,-0.44
3121,9.69,-4.75,23.25,0.23,0.39,-1.12
3125,-1.19,-3.75,11.76,0.23,0.39,-1.12
3130,-2.61,2.49,7.05,0.23,0.39,-1.12
3136,-2.61,2.49,7.05,0.12,1.24,-1.23
3141,-2.61,2.49,7.05,-0.18,1.24,-1.18
3145,6.17,6.47,7.86,-0.18,1.24,-1.18
3150,3.87,1.95,6.70,-0.18,1.24,-1.18
3156,3.87,1.95,6.70,-0.56,0.52,-1.37
3161,3.87,1.95,6.70,-0.52,0.34,-1.65
3166,-2.84,-9.80,7.16,-0.52,0.34,-1.65
3170,-2.38,-11.80,5.13,-0.52,0.34,-1.65
3175,-6.70,-9.35,1.99,-0.52,0.34,-1.65
3180,-6.70,-9.35,1.99,0.11,0.14,-1.08
3186,-6.70,-9.35,1.99,0.14,0.10,-0.75
3191,-6.70,-9.35,1.99,0.18,-0.07,-0.49
3196,3.45,5.02,7.59,0.18,-0.07,-0.49
3200,-0.69,1.99,8.39,0.18,-0.07,-0.49
3206,-0.69,1.99,8.39,-0.11,-0.57,-0.73
3211,-0.69,1.99,8.39,-0.07,-0.49,-0.90
3216,-0.77,-3.07,14.29,-0.07,-0.49,-0.90
3220,-5.21,-2.95,15.20,-0.07,-0.49,-0.90
3226,-5.21,-2.95,15.20,0.07,-0.04,-0.59
3230,-0.50,-0.34,13.06,0.07,-0.04,-0.59
3235,4.06,1.49,9.61,0.07,-0.04,-0.59
3241,4.06,1.49,9.61,0.06,0.41,-0.41
3246,4.06,1.49,9.61,-0.00,0.36,-0.49
3251,1.88,-3.37,9.38,-0.00,0.36,-0.49
3256,-3.91,-7.78,8.84,-0.00,0.36,-0.49
3261,-5.94,-8.58,8.66,-0.00,0.36,-0.49
3265,-4.86,-7.05,10.39,-0.00,0.36,-0.49
3270,-4.86,-7.05,10.39,0.27,0.29,-0.09
3275,-4.86,-7.05,10.39,0.32,0.27,0.06
3280,-4.86,-7.05,10.39,0.28,0.17,0.11
3285,-4.86,-7.05,10.39,0.32,0.18,0.02
3291,-4.86,-7.05,10.39,0.27,0.14,-0.07
3296,3.07,-4.37,9.23,0.27,0.14,-0.07
3300,0.61,-4.33,9.16,0.27,0.14,-0.07
3305,2.30,-4.75,7.82,0.27,0.14,-0.07
3310,1.19,-3.56,7.97,0.27,0.14,-0.07
3316,1.19,-3.56,7.97,0.24,0.09,0.27
3321,1.19,-3.56,7.97,0.15,0.23,0.22
3326,-6.24,-0.92,8.77,0.15,0.23,0.22
3331,-3.26,-0.27,7.97,0.15,0.23,0.22
3336,-1.15,-1.30,8.39,0.15,0.23,0.22
3341,3.10,-4.06,11.60,0.15,0.23,0.22
3346,3.10,-4.06,11.60,0.26,-0.02,0.43
3350,0.88,-5.98,8.46,0.26,-0.02,0.43
3355,0.57,-5.90,9.12,0.26,-0.02,0.43
3361,2.84,-5.59,9.46,0.26,-0.02,0.43
3366,-1.23,-1.68,12.41,0.26,-0.02,0.43
3370,-4.14,-0.61,10.19,0.26,-0.02,0.43
3375,-4.25,1.30,10.53,0.26,-0.02,0.43
3381,-4.25,1.30,10.53,0.15,0.12,0.28
3385,-2.87,3.56,5.79,0.15,0.12,0.28
3391,-5.94,2.76,3.79,0.15,0.12,0.28
3396,-5.06,2.38,2.53,0.15,0.12,0.28
3400,0.11,-1.57,5.21,0.15,0.12,0.28
3406,4.29,-2.18,3.03,0.15,0.12,0.28
3410,6.78,-2.49,7.51,0.15,0.12,0.28
3416,8.70,-4.56,6.86,0.15,0.12,0.28
3420,0.08,-0.84,13.37,0.15,0.12,0.28
3425,1.34,-4.14,12.18,0.15,0.12,0.28
3431,-4.45,1.11,13.71,0.15,0.12,0.28
3436,-19.69,1.65,13.29,0.15,0.12,0.28
3441,-24.02,4.71,12.87,0.15,0.12,0.28
3446,-25.55,8.77,13.75,0.15,0.12,0.28
3450,-3.83,9.35,11.98,0.15,0.12,0.28
3455,3.64,5.90,13.41,0.15,0.12,0.28
3460,10.00,4.64,12.10,0.15,0.12,0.28
3466,12.79,4.29,10.34,0.15,0.12,0.28
3471,13.71,-0.30,3.79,0.15,0.12,0.28
3475,13.71,-0.30,3.79,-0.48,-0.81,-0.86
3480,-5.48,-0.92,4.06,-0.48,-0.81,-0.86
3486,-5.48,-0.92,4.06,-0.43,-0.61,-1.08
3491,-11.57,4.25,4.64,-0.43,-0.61,-1.08
3495,-9.77,8.20,5.05,-0.43,-0.61,-1.08
3501,-8.46,9.35,6.82,-0.43,-0.61,-1.08
3506,0.57,10.45,9.08,-0.43,-0.61,-1.08
3510,0.57,10.45,9.08,-0.52,0.32,-0.91
3515,-2.64,2.68,1.46,-0.52,0.32,-0.91
3521,-2.64,2.68,1.46,-0.53,0.20,-1.15
3526,-2.64,2.68,1.46,-0.51,0.05,-1.30
3530,3.95,-5.36,13.79,-0.51,0.05,-1.30
3536,5.98,-5.86,19.73,-0.51,0.05,-1.30
3541,17.51,-3.64,32.41,-0.51,0.05,-1.30
3546,17.51,-3.64,32.41,-0.18,-0.36,-1.09
3550,17.51,-3.64,32.41,-0.23,0.27,-1.58
3555,-2.11,3.14,15.82,-0.23,0.27,-1.58
3560,-0.42,4.60,8.89,-0.23,0.27,-1.58
3566,-4.45,3.68,1.07,-0.23,0.27,-1.58
3570,-5.06,3.64,-0.73,-0.23,0.27,-1.58
3576,-5.06,3.64,-0.73,-0.91,1.29,-2.54
3582,-8.88,1.15,-0.92,-0.91,1.29,-2.54
3585,2.45,3.41,7.43,-0.91,1.29,-2.54
3591,6.66,3.45,9.96,-0.91,1.29,-2.54
3595,11.38,3.37,17.12,-0.91,1.29,-2.54
3602,10.04,-1.11,14.71,-0.91,1.29,-2.54
3605,4.86,-3.87,17.28,-0.91,1.29,-2.54
3610,6.36,-3.14,17.62,-0.91,1.29,-2.54
3615,6.36,-3.14,17.62,-0.22,0.10,-2.15
3621,0.88,-4.79,15.05,-0.22,0.10,-2.15
3626,0.54,6.89,6.66,-0.22,0.10,-2.15
3630,0.54,6.89,6.66,-0.59,0.51,-1.73
3636,-0.23,2.99,10.84,-0.59,0.51,-1.73
3641,0.42,2.45,11.64,-0.59,0.51,-1.73
3645,-1.91,-1.99,12.49,-0.59,0.51,-1.73
3650,-2.49,-2.80,15.75,-0.59,0.51,-1.73
3656,1.68,-6.51,13.87,-0.59,0.51,-1.73
3661,6.13,-7.36,12.30,-0.59,0.51,-1.73
3666,6.13,-7.36,12.30,-0.08,0.37,-1.80
3670,6.13,-7.36,12.30,-0.06,0.40,-1.60
3676,2.95,-5.71,5.86,-0.06,0.40,-1.60
3681,0.57,-1.23,3.18,-0.06,0.40,-1.60
3685,0.57,-1.23,3.18,-0.10,0.43,-1.50
3690,-1.27,-3.83,8.01,-0.10,0.43,-1.50
3696,-1.27,-3.83,8.01,-0.12,0.48,-1.53
3701,-5.13,-3.41,11.80,-0.12,0.48,-1.53
3705,-6.47,-2.45,15.82,-0.12,0.48,-1.53
3710,-4.10,-2.38,14.82,-0.12,0.48,-1.53
3716,-1.57,-1.65,13.83,-0.12,0.48,-1.53
3720,-3.45,-2.84,12.34,-0.12,0.48,-1.53
3726,-1.80,-3.37,10.03,-0.12,0.48,-1.53
3731,3.10,-5.63,8.36,-0.12,0.48,-1.53
3736,3.10,-5.63,8.36,0.21,0.46,-0.97
3741,-1.91,-3.48,6.70,0.21,0.46,-0.97
3746,-1.42,-2.49,7.28,0.21,0.46,-0.97
3750,0.34,-0.88,8.31,0.21,0.46,-0.97
3755,0.34,-0.88,8.31,0.30,0.50,-0.48
3760,-4.29,0.23,8.70,0.30,0.50,-0.48
3767,-1.84,-0.19,10.11,0.30,0.50,-0.48
3771,1.38,-1.80,10.00,0.30,0.50,-0.48
3775,-0.73,-6.40,7.62,0.30,0.50,-0.48
3780,0.27,-7.66,8.58,0.30,0.50,-0.48
3785,1.23,-6.89,5.90,0.30,0.50,-0.48
3791,-1.27,-6.09,6.09,0.30,0.50,-0.48
3796,-1.46,-6.36,5.59,0.30,0.50,-0.48
3801,-2.30,-4.14,6.05,0.30,0.50,-0.48
3805,-2.30,-4.14,6.05,0.50,0.44,0.15
3810,-2.30,-4.14,6.05,0.44,0.46,0.14
3816,-3.71,-3.22,10.69,0.44,0.46,0.14
3820,-5.71,-3.79,10.77,0.44,0.46,0.14
3827,-3.07,-5.29,8.54,0.44,0.46,0.14
3831,2.57,-5.13,8.04,0.44,0.46,0.14
3836,4.18,-4.48,7.24,0.44,0.46,0.14
3842,4.98,-4.60,6.63,0.44,0.46,0.14
3846,-4.25,-5.64,5.59,0.44,0.46,0.14
3850,-11.38,-4.71,6.21,0.44,0.46,0.14
3855,-14.36,-5.98,7.39,0.44,0.46,0.14
3861,-12.64,-6.51,11.45,0.44,0.46,0.14
3866,-7.36,-2.30,12.26,0.44,0.46,0.14
3870,0.77,-1.61,12.72,0.44,0.46,0.14
3877,7.85,-1.04,12.68,0.44,0.46,0.14
3880,6.21,0.73,10.61,0.44,0.46,0.14
3885,3.68,0.96,8.92,0.44,0.46,0.14
3892,8.39,-3.41,4.25,0.44,0.46,0.14
3895,11.26,-5.59,4.02,0.44,0.46,0.14
3900,-0.84,-5.40,5.32,0.44,0.46,0.14
3905,-5.55,-3.41,8.20,0.44,0.46,0.14
3910,-3.33,-2.80,10.73,0.44,0.46,0.14
3917,-3.68,-2.34,14.21,0.44,0.46,0.14
3921,0.54,1.11,13.95,0.44,0.46,0.14
3925,0.54,1.11,13.95,0.21,0.31,-0.12
3930,0.54,1.11,13.95,0.19,0.12,-0.30
3937,1.42,1.65,8.32,0.19,0.12,-0.30
3942,-3.87,-1.68,6.20,0.19,0.12,-0.30
3946,-3.87,-1.68,6.20,0.34,0.17,-0.65
3950,-3.87,-1.68,6.20,0.37,0.11,-0.42
3957,-0.54,1.95,7.62,0.37,0.11,-0.42
3960,-0.54,1.95,7.62,0.12,-0.20,-0.05
3966,-1.04,5.05,11.98,0.12,-0.20,-0.05
3970,-1.04,4.41,13.33,0.12,-0.20,-0.05
3977,0.38,2.99,11.68,0.12,-0.20,-0.05
3981,0.38,2.99,11.68,-0.03,-0.35,-0.86
3985,1.27,-0.61,8.32,-0.03,-0.35,-0.86
3991,2.68,-0.27,7.70,-0.03,-0.35,-0.86
3997,3.91,0.61,7.32,-0.03,-0.35,-0.86
4001,0.65,3.10,9.23,-0.03,-0.35,-0.86
4005,-2.45,4.33,7.24,-0.03,-0.35,-0.86
4010,-3.71,4.60,9.27,-0.03,-0.35,-0.86
4016,-5.94,2.61,10.27,-0.03,-0.35,-0.86
4020,-4.52,1.34,11.38,-0.03,-0.35,-0.86
4027,-4.14,1.91,10.49,-0.03,-0.35,-0.86
4030,-4.14,1.91,10.49,-0.03,0.33,-0.82
4036,0.38,1.72,9.89,-0.03,0.33,-0.82
4041,-0.38,2.87,8.27,-0.03,0.33,-0.82
4046,-0.34,0.65,9.58,-0.03,0.33,-0.82
4050,-0.34,0.65,9.58,-0.16,-0.21,-0.82
4055,-1.07,0.42,8.28,-0.16,-0.21,-0.82
4062,0.30,0.08,9.43,-0.16,-0.21,-0.82
4066,0.30,0.08,9.43,-0.21,-0.24,-0.88
4070,0.30,0.08,9.43,-0.18,-0.21,-0.88
4075,3.07,0.27,10.00,-0.18,-0.21,-0.88
4080,3.07,0.27,10.00,-0.26,-0.08,-1.04
4086,2.14,0.57,8.35,-0.26,-0.08,-1.04
4092,1.27,0.00,8.88,-0.26,-0.08,-1.04
4095,1.27,0.00,8.88,-0.25,0.21,-1.24
4100,1.27,0.00,8.88,-0.20,0.34,-1.20
4105,0.27,-2.07,10.84,-0.20,0.34,-1.20
4112,0.15,-1.91,11.61,-0.20,0.34,-1.20
4116,0.15,-1.91,11.61,-0.06,0.49,-1.06
4121,-1.72,0.11,10.23,-0.06,0.49,-1.06
4127,-1.68,-0.54,8.32,-0.06,0.49,-1.06
4130,-1.68,-0.54,8.32,-0.10,0.36,-1.09
4136,-1.68,-0.54,8.32,-0.05,0.20,-1.04
4141,0.61,-0.30,10.57,-0.05,0.20,-1.04
4147,-1.15,-2.34,10.77,-0.05,0.20,-1.04
4150,-1.15,-2.34,10.77,-0.03,0.13,-1.08
4156,3.75,-1.99,12.03,-0.03,0.13,-1.08
4162,1.76,-2.84,11.22,-0.03,0.13,-1.08
4166,1.76,-2.84,11.22,-0.06,0.24,-1.05
4170,1.76,-2.84,11.22,-0.07,0.32,-1.15
4175,-1.07,-1.76,9.00,-0.07,0.32,-1.15
4182,-1.11,-2.84,9.42,-0.07,0.32,-1.15
4185,-1.11,-2.84,9.42,-0.01,0.52,-1.05
4191,-1.11,-2.84,9.42,0.00,0.48,-1.01
4197,0.11,-1.84,8.31,0.00,0.48,-1.01
4200,0.11,-1.84,8.31,0.01,0.33,-1.05
4205,0.11,-1.84,8.31,0.03,0.24,-1.06
4210,1.91,-2.99,9.58,0.03,0.24,-1.06
4217,1.57,-2.30,10.11,0.03,0.24,-1.06
4221,1.57,-2.30,10.11,0.06,0.14,-0.97
4225,1.38,-1.57,11.45,0.06,0.14,-0.97
4230,1.72,-0.42,10.88,0.06,0.14,-0.97
4237,0.77,-0.65,11.30,0.06,0.14,-0.97
4241,0.77,-0.65,11.30,0.13,0.36,-0.85
4246,0.23,-0.61,9.88,0.13,0.36,-0.85
4250,0.34,-0.42,8.82,0.13,0.36,-0.85
4255,0.34,-0.42,8.82,0.10,0.36,-0.76
4261,-2.11,-1.34,10.88,0.10,0.36,-0.76
4267,-2.11,-1.34,10.88,0.10,0.32,-0.77
4270,-2.11,-1.34,10.88,0.19,0.27,-0.68
4276,-2.11,-1.34,10.88,0.18,0.26,-0.59
4282,-4.21,-0.88,8.12,0.18,0.26,-0.59
4286,-4.21,-0.88,8.12,0.18,0.30,-0.50
4291,-4.21,-0.88,8.12,0.18,0.25,-0.47
4296,-2.45,-0.54,8.88,0.18,0.25,-0.47
4302,-0.34,-1.07,10.42,0.18,0.25,-0.47
4305,-0.34,-1.07,10.42,0.17,0.13,-0.45
4311,-0.34,-1.07,10.42,0.16,0.16,-0.47
4317,-2.34,-1.15,9.23,0.16,0.16,-0.47
4320,-2.34,-1.15,9.23,0.16,0.26,-0.43
4325,-2.34,-1.15,9.23,0.15,0.26,-0.38
4331,-2.34,-1.15,9.23,0.17,0.26,-0.40
4337,0.23,-0.19,10.69,0.17,0.26,-0.40
4341,0.23,-0.19,10.69,0.14,0.20,-0.49
4346,-0.73,-1.72,10.61,0.14,0.20,-0.49
4350,0.50,-0.92,10.39,0.14,0.20,-0.49
4357,-1.04,-1.99,10.88,0.14,0.20,-0.49
4361,-1.04,-1.99,10.88,0.18,0.34,-0.46
4366,-1.34,-1.04,8.16,0.18,0.34,-0.46
4372,-0.96,-1.15,9.81,0.18,0.34,-0.46
4375,-0.96,-1.15,9.81,0.18,0.31,-0.41
4381,-1.46,-0.73,9.23,0.18,0.31,-0.41
4386,-0.69,-1.57,9.46,0.18,0.31,-0.41
4391,-0.69,-1.57,9.46,0.16,0.20,-0.43
4395,-0.69,-1.57,9.46,0.19,0.20,-0.42
4401,-1.27,-2.49,9.65,0.19,0.20,-0.42
4406,-0.73,-2.53,10.42,0.19,0.20,-0.42
4410,-0.73,-2.53,10.42,0.22,0.17,-0.33
4416,0.08,-2.41,9.65,0.22,0.17,-0.33
4422,-2.18,-2.87,8.85,0.22,0.17,-0.33
4425,-2.18,-2.87,8.85,0.20,0.21,-0.43
4431,-2.18,-2.87,8.85,0.22,0.26,-0.41
4437,-1.61,-4.14,8.50,0.22,0.26,-0.41
4441,-1.61,-4.14,8.50,0.27,0.29,-0.30
4446,-1.61,-4.14,8.50,0.27,0.27,-0.31
4451,-1.61,-4.14,8.50,0.25,0.25,-0.36
4457,-5.25,-3.37,7.59,0.25,0.25,-0.36
4460,-5.25,-3.37,7.59,0.30,0.19,-0.32
4466,-0.42,-4.86,11.19,0.30,0.19,-0.32
4471,-0.88,-4.56,11.03,0.30,0.19,-0.32
4477,0.42,-3.45,11.92,0.30,0.19,-0.32
4480,0.42,-3.45,11.92,0.37,-0.02,-0.24
4485,-0.23,-3.29,11.91,0.37,-0.02,-0.24
4492,0.69,-3.41,10.61,0.37,-0.02,-0.24
4496,0.69,-3.41,10.61,0.39,0.17,-0.18
4501,0.69,-3.41,10.61,0.37,0.26,-0.17
4507,-3.41,-2.61,8.32,0.37,0.26,-0.17
4510,-3.41,-2.61,8.32,0.37,0.40,-0.21
4516,-3.41,-2.61,8.32,0.38,0.38,-0.17
4521,-2.68,-2.26,8.20,0.38,0.38,-0.17
4527,-1.80,-1.80,8.66,0.38,0.38,-0.17
4531,-1.80,-1.80,8.66,0.40,0.15,-0.14
4536,-1.80,-1.80,8.66,0.40,0.06,-0.13
4542,-0.84,-3.68,9.42,0.40,0.06,-0.13
4546,-0.84,-3.68,9.42,0.42,-0.07,-0.05
4551,-0.84,-3.68,9.42,0.44,-0.11,-0.02
4556,-1.23,-2.80,9.77,0.44,-0.11,-0.02
4562,-0.27,-3.52,8.54,0.44,-0.11,-0.02
4566,-0.27,-3.52,8.54,0.38,-0.21,-0.08
4571,-0.27,-3.52,8.54,0.36,-0.31,-0.11
4577,6.09,-0.15,9.30,0.36,-0.31,-0.11
4580,6.09,-0.15,9.30,0.32,-0.21,-0.34
4585,6.09,-0.15,9.30,0.33,0.05,-0.47
4591,6.09,-0.15,9.30,0.33,0.35,-0.47
4596,-1.53,-3.33,9.42,0.33,0.35,-0.47
4600,-1.53,-3.33,9.42,0.42,0.59,-0.26
4605,-3.29,0.38,9.46,0.42,0.59,-0.26
4612,-1.19,-0.11,10.41,0.42,0.59,-0.26
4616,-1.19,-0.11,10.41,0.41,0.35,-0.28
4621,-1.19,-0.11,10.41,0.39,0.17,-0.29
4626,3.33,-1.38,9.27,0.39,0.17,-0.29
4630,3.33,-1.38,9.27,0.34,-0.14,-0.25
4635,3.33,-1.38,9.27,0.34,-0.21,-0.21
4642,3.33,-1.38,9.27,0.33,-0.25,-0.18
4647,-0.46,-0.34,8.54,0.33,-0.25,-0.18
4651,-0.46,-0.34,8.54,0.33,-0.14,-0.17
4656,-0.46,-0.34,8.54,0.30,-0.04,-0.21
4662,-0.27,-0.50,10.23,0.30,-0.04,-0.21
4666,-0.27,-0.50,10.23,0.29,0.06,-0.28
4670,-0.27,-0.50,10.23,0.28,0.07,-0.30
4676,0.84,0.11,10.03,0.28,0.07,-0.30
4682,2.41,-0.84,9.20,0.28,0.07,-0.30
4685,2.41,-0.84,9.20,0.29,0.08,-0.33
4691,2.41,-0.84,9.20,0.29,0.11,-0.32
4697,-1.61,0.11,8.12,0.29,0.11,-0.32
4700,-1.61,0.11,8.12,0.29,0.13,-0.26
4705,-1.61,0.11,8.12,0.29,0.09,-0.22
4711,-1.61,0.11,8.12,0.26,0.05,-0.24
4717,0.96,-0.57,8.70,0.26,0.05,-0.24
4721,0.96,-0.57,8.70,0.21,-0.09,-0.31
4725,0.96,-0.57,8.70,0.24,-0.11,-0.32
4731,0.96,-0.57,8.70,0.23,-0.07,-0.30
4737,-2.22,-2.68,8.01,0.23,-0.07,-0.30
4741,-2.22,-2.68,8.01,0.29,0.07,-0.21
4746,-2.22,-2.68,8.01,0.29,0.12,-0.18
4752,-3.22,-0.46,10.42,0.29,0.12,-0.18
4756,-3.22,-0.46,10.42,0.28,0.12,-0.23
4761,-3.22,-0.46,10.42,0.29,0.04,-0.23
4767,1.19,-1.11,10.65,0.29,0.04,-0.23
4771,1.19,-1.11,10.65,0.30,-0.04,-0.26
4776,1.19,-1.11,10.65,0.31,0.02,-0.26
4782,-0.77,-1.49,10.00,0.31,0.02,-0.26
4785,-0.77,-1.49,10.00,0.31,0.13,-0.13
4791,-0.77,-1.49,10.00,0.29,0.20,-0.13
4796,-0.77,-1.49,10.00,0.30,0.23,-0.14
4802,-2.61,-0.69,8.70,0.30,0.23,-0.14
4805,-2.61,-0.69,8.70,0.30,0.15,-0.07
4811,-2.61,-0.69,8.70,0.29,0.08,-0.04
4817,0.46,0.30,9.54,0.29,0.08,-0.04
4820,0.46,0.30,9.54,0.28,-0.09,-0.02
4825,0.46,0.30,9.54,0.26,-0.11,-0.01
4831,0.46,0.30,9.54,0.28,-0.11,0.01
4837,0.61,-1.07,9.61,0.28,-0.11,0.01
4841,0.61,-1.07,9.61,0.31,-0.09,0.12
4845,0.61,-1.07,9.61,0.30,-0.06,0.14
4851,0.61,-1.07,9.61,0.29,-0.02,0.13
4857,-0.77,0.77,10.23,0.29,-0.02,0.13
4861,-0.77,0.77,10.23,0.25,0.06,0.04
4866,-0.77,0.77,10.23,0.25,0.11,0.00
4872,-1.49,-1.04,10.07,0.25,0.11,0.00
4876,-1.49,-1.04,10.07,0.24,0.14,0.04
4881,-1.49,-1.04,10.07,0.27,0.13,0.04
4887,0.27,-0.15,9.42,0.27,0.13,0.04
4891,0.27,-0.15,9.42,0.24,0.05,0.06
4896,0.27,-0.15,9.42,0.20,0.03,0.03
4901,-1.34,1.27,8.36,0.20,0.03,0.03
4906,-0.69,0.19,9.12,0.20,0.03,0.03
4911,-0.69,0.19,9.12,0.15,0.02,-0.03
4916,-0.69,0.19,9.12,0.14,0.04,-0.01
4921,-2.14,-0.30,9.12,0.14,0.04,-0.01
4926,-2.14,-0.30,9.12,0.14,0.06,-0.03
4931,-2.14,-0.30,9.12,0.14,0.08,-0.05
4837,0.61,-1.07,9.61,0.28,-0.11,0.01
4841,0.61,-1.07,9.61,0.31,-0.09,0.12
4845,0.61,-1.07,9.61,0.30,-0.06,0.14
4851,0.61,-1.07,9.61,0.29,-0.02,0.13
4857,-0.77,0.77,10.23,0.29,-0.02,0.13
4861,-0.77,0.77,10.23,0.25,0.06,0.04
4866,-0.77,0.77,10.23,0.25,0.11,0.00
4872,-1.49,-1.04,10.07,0.25,0.11,0.00
4876,-1.49,-1.04,10.07,0.24,0.14,0.04
4881,-1.49,-1.04,10.07,0.27,0.13,0.04
4887,0.27,-0.15,9.42,0.27,0.13,0.04
4891,0.27,-0.15,9.42,0.24,0.05,0.06
4896,0.27,-0.15,9.42,0.20,0.03,0.03
4901,-1.34,1.27,8.36,0.20,0.03,0.03
