timestamp,accX,accY,accZ,gyroX,gyroY,gyroZ
Right
6,-0.92,0.04,10.11,-0.11,0.00,0.02
17,1.19,-1.19,9.27,-0.11,0.00,0.02
20,1.19,-1.19,9.27,-0.15,0.18,-0.13
22,1.19,-1.19,9.27,-0.23,0.02,-0.30
25,1.34,1.00,11.68,-0.23,0.02,-0.30
30,1.49,0.30,12.45,-0.23,0.02,-0.30
36,1.49,0.30,12.45,-0.22,-0.03,-0.30
40,1.49,0.30,12.45,-0.20,-0.02,-0.31
46,1.49,0.30,12.45,-0.16,0.02,-0.32
51,-2.34,-1.42,9.20,-0.16,0.02,-0.32
56,-2.34,-1.42,9.20,-0.13,0.17,-0.26
60,-2.34,-1.42,9.20,-0.13,0.19,-0.23
66,-1.04,2.18,8.58,-0.13,0.19,-0.23
71,-1.04,2.18,8.58,-0.23,0.08,-0.26
75,-1.04,2.18,8.58,-0.28,0.02,-0.36
81,-1.04,2.18,8.58,-0.30,-0.04,-0.45
86,-1.91,-0.57,8.46,-0.30,-0.04,-0.45
91,-1.91,-0.57,8.46,-0.25,-0.06,-0.39
95,-1.91,-0.57,8.46,-0.23,-0.05,-0.29
101,-0.08,-0.11,11.19,-0.23,-0.05,-0.29
105,-0.08,-0.11,11.19,-0.23,-0.01,-0.29
110,-0.08,-0.11,11.19,-0.23,0.01,-0.41
116,-0.08,-0.11,11.19,-0.23,0.03,-0.49
121,-0.92,-0.08,9.69,-0.23,0.03,-0.49
126,-0.92,-0.08,9.69,-0.20,0.09,-0.42
130,-0.92,-0.08,9.69,-0.22,0.09,-0.33
136,-0.92,-0.08,9.69,-0.23,0.08,-0.31
141,-0.92,-0.08,9.69,-0.26,0.08,-0.37
145,-0.92,-0.08,9.69,-0.28,0.07,-0.46
151,-0.92,-0.08,9.69,-0.30,0.06,-0.49
156,-0.69,-0.96,10.69,-0.30,0.06,-0.49
161,-0.69,-0.96,10.69,-0.24,0.04,-0.40
165,-0.69,-0.96,10.69,-0.22,0.03,-0.33
171,0.38,-0.57,11.15,-0.22,0.03,-0.33
176,0.38,-0.57,11.15,-0.19,0.04,-0.31
180,0.38,-0.57,11.15,-0.19,0.05,-0.33
186,0.38,-0.57,11.15,-0.17,0.09,-0.33
191,-3.18,-0.19,7.85,-0.17,0.09,-0.33
196,-3.18,-0.19,7.85,-0.17,0.18,-0.25
201,-3.18,-0.19,7.85,-0.17,0.16,-0.18
206,-1.76,0.88,8.39,-0.17,0.16,-0.18
211,-1.76,0.88,8.39,-0.22,0.07,-0.19
215,-1.76,0.88,8.39,-0.21,-0.02,-0.22
221,0.15,-2.76,8.73,-0.21,-0.02,-0.22
226,-0.15,-3.48,8.42,-0.21,-0.02,-0.22
230,-0.15,-3.48,8.42,-0.20,-0.15,-0.16
236,-0.15,-3.48,8.42,-0.18,-0.16,-0.12
241,0.77,-3.91,11.61,-0.18,-0.16,-0.12
246,0.77,-3.91,11.61,-0.12,-0.09,-0.13
250,0.77,-3.91,11.61,-0.08,-0.01,-0.13
256,0.77,-3.91,11.61,-0.05,0.09,-0.15
261,0.77,-3.91,11.61,-0.05,0.19,-0.15
266,0.77,-3.91,11.61,-0.04,0.28,-0.13
271,0.77,-3.91,11.61,-0.04,0.32,-0.10
276,0.77,-3.91,11.61,-0.04,0.30,-0.06
281,0.77,-3.91,11.61,-0.07,0.21,-0.05
285,0.77,-3.91,11.61,-0.09,0.07,-0.06
291,0.77,-2.49,9.39,-0.09,0.07,-0.06
296,0.77,-2.64,10.65,-0.09,0.07,-0.06
300,0.77,-2.64,10.65,-0.09,-0.11,-0.09
306,0.77,-2.64,10.65,-0.08,-0.06,-0.05
311,-3.26,-2.61,9.84,-0.08,-0.06,-0.05
316,-3.26,-2.61,9.84,-0.04,0.09,-0.02
320,-3.26,-2.61,9.84,-0.05,0.10,-0.01
326,1.80,-0.50,9.31,-0.05,0.10,-0.01
331,1.80,-0.50,9.31,-0.11,-0.03,-0.06
335,1.80,-0.50,9.31,-0.13,-0.10,-0.15
341,1.80,-0.50,9.31,-0.14,-0.11,-0.22
346,1.07,-2.95,9.20,-0.14,-0.11,-0.22
351,1.07,-2.95,9.20,-0.07,-0.01,-0.15
355,1.07,-2.95,9.20,-0.07,0.10,-0.08
361,-2.49,1.49,8.66,-0.07,0.10,-0.08
365,-2.49,1.49,8.66,-0.09,0.26,-0.13
370,-2.49,1.49,8.66,-0.14,0.27,-0.21
376,-2.49,1.49,8.66,-0.15,0.24,-0.26
381,-2.49,1.49,8.66,-0.17,0.17,-0.26
385,-2.49,1.49,8.66,-0.22,0.09,-0.23
391,-2.49,1.49,8.66,-0.24,-0.01,-0.16
396,-2.49,1.49,8.66,-0.26,-0.12,-0.11
400,-2.49,1.49,8.66,-0.29,-0.20,-0.11
405,-2.49,1.49,8.66,-0.32,-0.28,-0.15
410,-2.49,1.49,8.66,-0.32,-0.37,-0.21
416,2.18,-0.50,14.59,-0.32,-0.37,-0.21
420,2.18,-0.50,14.59,-0.27,-0.35,-0.40
425,2.18,-0.50,14.59,-0.21,-0.22,-0.47
431,0.96,-1.95,15.32,-0.21,-0.22,-0.47
435,0.96,-1.95,15.32,-0.11,0.26,-0.48
440,0.96,-1.95,15.32,-0.10,0.47,-0.49
447,0.96,-1.95,15.32,-0.11,0.62,-0.52
451,0.96,-1.95,15.32,-0.20,0.68,-0.55
455,-3.68,4.14,5.52,-0.20,0.68,-0.55
460,-3.68,4.14,5.52,-0.36,0.53,-0.63
466,-1.07,2.03,6.79,-0.36,0.53,-0.63
470,-1.07,2.03,6.79,-0.45,0.16,-0.71
476,-1.07,2.03,6.79,-0.42,-0.02,-0.70
481,-1.07,2.03,6.79,-0.39,-0.16,-0.65
486,-1.07,2.03,6.79,-0.32,-0.24,-0.58
490,-1.07,2.03,6.79,-0.27,-0.27,-0.50
495,-1.07,2.03,6.79,-0.25,-0.23,-0.46
501,1.15,1.15,11.38,-0.25,-0.23,-0.46
505,1.15,1.15,11.38,-0.26,-0.10,-0.58
511,1.15,1.15,11.38,-0.28,0.02,-0.69
516,1.15,1.15,11.38,-0.29,0.10,-0.71
520,1.15,1.15,11.38,-0.28,0.15,-0.64
525,1.15,1.15,11.38,-0.30,0.20,-0.58
531,1.15,1.15,11.38,-0.31,0.22,-0.58
536,1.15,1.15,11.38,-0.31,0.25,-0.68
540,1.15,1.15,11.38,-0.33,0.26,-0.79
546,1.15,1.15,11.38,-0.31,0.24,-0.83
550,-1.07,-0.84,9.73,-0.31,0.24,-0.83
556,-1.34,-0.54,10.27,-0.31,0.24,-0.83
560,-1.34,-0.54,10.27,-0.23,0.08,-0.62
566,-1.34,-0.54,10.27,-0.24,-0.00,-0.60
570,-1.34,-0.54,10.27,-0.28,-0.04,-0.69
575,-1.34,-0.54,10.27,-0.29,-0.05,-0.79
581,-1.34,-0.54,10.27,-0.26,-0.04,-0.85
586,0.77,-2.07,9.93,-0.26,-0.04,-0.85
590,0.77,-2.07,9.93,-0.25,0.14,-0.85
596,0.77,-2.07,9.93,-0.21,0.23,-0.79
601,0.77,-2.07,9.93,-0.21,0.31,-0.79
605,0.77,-2.07,9.93,-0.20,0.41,-0.85
610,0.77,-2.07,9.93,-0.16,0.49,-0.89
616,0.77,-2.07,9.93,-0.14,0.53,-0.85
621,-3.33,-1.34,7.28,-0.14,0.53,-0.85
625,-3.33,-1.34,7.28,-0.09,0.43,-0.64
631,-3.33,-1.34,7.28,-0.07,0.27,-0.55
636,-3.33,-1.34,7.28,-0.04,0.08,-0.51
640,-3.33,-1.34,7.28,-0.01,-0.07,-0.51
645,-3.33,-1.34,7.28,0.03,-0.13,-0.52
650,-3.33,-1.34,7.28,0.04,-0.09,-0.52
656,-3.33,-1.34,7.28,0.05,0.01,-0.46
660,-3.33,-1.34,7.28,0.04,0.13,-0.40
665,-3.33,-1.34,7.28,-0.00,0.22,-0.38
670,-3.33,-1.34,7.28,-0.04,0.26,-0.40
676,1.80,1.84,10.15,-0.04,0.26,-0.40
680,1.80,1.84,10.15,-0.11,0.18,-0.50
686,1.80,1.84,10.15,-0.09,0.13,-0.57
690,1.80,1.84,10.15,-0.07,0.14,-0.62
695,1.80,1.84,10.15,-0.05,0.18,-0.63
700,1.80,1.84,10.15,0.02,0.24,-0.55
706,1.80,1.84,10.15,0.06,0.29,-0.44
710,1.80,1.84,10.15,0.09,0.27,-0.33
715,1.80,1.84,10.15,0.06,0.20,-0.27
720,1.80,1.84,10.15,0.06,0.12,-0.29
726,1.23,1.27,9.73,0.06,0.12,-0.29
730,1.23,1.27,9.73,-0.02,0.00,-0.44
735,1.23,1.27,9.73,-0.01,0.00,-0.42
741,1.23,1.27,9.73,0.01,0.01,-0.34
745,1.23,1.27,9.73,0.05,0.04,-0.22
750,1.23,1.27,9.73,0.07,0.08,-0.16
756,1.23,1.27,9.73,0.08,0.10,-0.17
760,1.23,1.27,9.73,0.04,0.12,-0.24
765,1.23,1.27,9.73,0.00,0.13,-0.33
770,1.23,1.27,9.73,-0.01,0.17,-0.42
776,1.23,1.27,9.73,-0.03,0.19,-0.44
780,1.23,1.27,9.73,-0.01,0.20,-0.40
786,1.23,1.27,9.73,0.01,0.22,-0.34
790,1.23,1.27,9.73,0.01,0.22,-0.29
796,1.23,1.27,9.73,0.01,0.18,-0.24
801,1.23,1.27,9.73,-0.02,0.13,-0.26
805,0.34,-1.65,8.88,-0.02,0.13,-0.26
810,0.34,-1.65,8.88,0.02,-0.02,-0.31
815,0.34,-1.65,8.88,0.04,-0.08,-0.28
820,0.34,-1.65,8.88,0.07,-0.09,-0.26
826,0.34,-1.65,8.88,0.12,-0.07,-0.24
830,0.34,-1.65,8.88,0.15,-0.01,-0.25
835,0.34,-1.65,8.88,0.15,0.10,-0.30
841,0.34,-1.65,8.88,0.16,0.22,-0.36
846,0.34,-1.65,8.88,0.15,0.30,-0.38
851,-1.72,1.72,7.05,0.15,0.30,-0.38
855,-2.49,1.11,5.79,0.15,0.30,-0.38
861,-2.49,1.11,5.79,-0.06,0.37,-0.50
866,-2.49,1.11,5.79,-0.11,0.34,-0.56
870,-2.91,0.54,6.66,-0.11,0.34,-0.56
875,-2.91,0.54,6.66,-0.07,0.16,-0.47
881,-0.38,-0.65,10.61,-0.07,0.16,-0.47
886,-0.38,-0.65,10.61,-0.00,-0.04,-0.32
890,1.49,-0.77,14.55,-0.00,-0.04,-0.32
896,0.15,-1.42,13.87,-0.00,-0.04,-0.32
901,0.15,-1.42,13.87,0.12,-0.04,-0.45
905,0.15,-1.42,13.87,0.17,0.04,-0.43
910,0.15,-1.42,13.87,0.14,0.17,-0.37
916,0.15,-1.42,13.87,0.09,0.29,-0.29
921,-2.95,3.91,6.82,0.09,0.29,-0.29
925,-2.22,3.52,7.01,0.09,0.29,-0.29
931,-2.22,3.52,7.01,-0.17,0.24,-0.38
937,0.42,1.42,10.46,-0.17,0.24,-0.38
941,-0.19,-1.65,11.41,-0.17,0.24,-0.38
945,1.68,-2.22,11.61,-0.17,0.24,-0.38
951,1.68,-2.22,11.61,-0.05,0.02,-0.57
956,1.68,-2.22,11.61,-0.00,0.01,-0.45
960,1.68,-2.22,11.61,0.01,0.03,-0.39
966,1.68,-2.22,11.61,0.01,0.05,-0.42
971,1.68,-2.22,11.61,-0.00,0.09,-0.49
976,-0.46,0.65,8.50,-0.00,0.09,-0.49
980,-0.50,0.73,9.00,-0.00,0.09,-0.49
985,-0.50,0.73,9.00,-0.10,0.20,-0.62
991,-0.50,0.73,9.00,-0.11,0.19,-0.63
995,-0.50,0.73,9.00,-0.12,0.17,-0.64
1001,-0.50,0.73,9.00,-0.12,0.15,-0.65
1006,-0.50,0.73,9.00,-0.11,0.13,-0.66
1010,0.77,-1.49,9.00,-0.11,0.13,-0.66
1016,0.19,-0.88,8.70,-0.11,0.13,-0.66
1020,0.19,-0.88,8.70,-0.09,0.08,-0.63
1026,0.19,-0.88,8.70,-0.07,0.07,-0.62
1030,0.19,-0.88,8.70,-0.04,0.08,-0.62
1036,0.19,-0.88,8.70,-0.01,0.13,-0.63
1041,-0.61,0.15,11.03,-0.01,0.13,-0.63
1045,-0.92,-0.15,9.92,-0.01,0.13,-0.63
1050,-0.92,-0.15,9.92,0.01,0.24,-0.54
1056,-0.92,-0.15,9.92,-0.01,0.20,-0.53
1061,-0.92,-0.15,9.92,-0.03,0.12,-0.56
1066,3.68,-1.11,10.07,-0.03,0.12,-0.56
1070,4.79,-1.72,12.06,-0.03,0.12,-0.56
1076,4.79,-1.72,12.06,-0.06,-0.09,-0.62
1080,4.79,-1.72,12.06,-0.05,-0.06,-0.66
1086,4.79,-1.72,12.06,-0.05,0.09,-0.75
1091,4.79,-1.72,12.06,-0.04,0.31,-0.80
1095,4.79,-1.72,12.06,0.03,0.59,-0.65
1100,-7.66,-0.30,9.89,0.03,0.59,-0.65
1106,-7.66,-0.30,9.89,0.01,0.54,-0.55
1111,-7.66,-0.30,9.89,0.03,0.34,-0.49
1115,5.55,-1.42,9.50,0.03,0.34,-0.49
1120,5.48,-3.03,9.58,0.03,0.34,-0.49
1125,5.48,-3.03,9.58,-0.02,-0.21,-0.81
1130,5.48,-3.03,9.58,0.04,-0.22,-0.80
1137,5.48,-3.03,9.58,0.06,-0.12,-0.68
1141,5.48,-3.03,9.58,0.08,0.03,-0.54
1145,-2.34,3.64,11.50,0.08,0.03,-0.54
1150,-1.42,3.56,11.92,0.08,0.03,-0.54
1156,-1.42,3.56,11.92,0.02,0.37,-0.53
1161,-1.42,3.56,11.92,0.02,0.36,-0.61
1165,0.30,-1.46,7.78,0.02,0.36,-0.61
1170,0.50,-2.49,6.97,0.02,0.36,-0.61
1176,0.50,-2.49,6.97,0.08,0.18,-0.53
1180,-3.33,-2.22,5.55,0.08,0.18,-0.53
1185,-1.04,-1.38,7.55,0.08,0.18,-0.53
1190,-1.04,-1.38,7.55,0.09,-0.03,-0.16
1196,0.00,1.57,11.91,0.09,-0.03,-0.16
1201,0.00,1.57,11.91,0.05,-0.08,-0.28
1206,2.53,-1.68,14.94,0.05,-0.08,-0.28
1210,0.34,-3.52,11.57,0.05,-0.08,-0.28
1215,-1.11,-4.64,10.39,0.05,-0.08,-0.28
1220,-1.11,-4.64,10.39,0.19,0.15,-0.39
1226,-1.11,-4.64,10.39,0.20,0.27,-0.30
1230,-2.99,0.30,6.97,0.20,0.27,-0.30
1235,-2.99,1.34,7.78,0.20,0.27,-0.30
1241,-2.99,1.34,7.78,0.09,0.40,-0.18
1246,-2.99,1.34,7.78,0.03,0.34,-0.27
1250,-0.50,-1.23,8.89,0.03,0.34,-0.27
1255,-0.69,-2.72,10.07,0.03,0.34,-0.27
1261,-0.69,-2.72,10.07,0.08,0.08,-0.39
1266,-0.69,-2.72,10.07,0.15,0.07,-0.26
1270,-0.23,-2.57,9.58,0.15,0.07,-0.26
1275,-2.41,-1.65,9.20,0.15,0.07,-0.26
1280,-2.41,-1.65,9.20,0.20,0.09,0.01
1285,-2.41,-1.65,9.20,0.17,0.15,-0.06
1290,-2.41,-1.65,9.20,0.13,0.19,-0.09
1296,-2.41,-1.65,9.20,0.12,0.17,-0.03
1300,0.04,-0.38,10.00,0.12,0.17,-0.03
1305,-1.15,-0.88,8.96,0.12,0.17,-0.03
1310,-1.15,-0.88,8.96,0.07,-0.04,0.03
1316,-1.15,-0.88,8.96,0.08,-0.09,-0.01
1321,-1.15,-0.88,8.96,0.06,-0.10,-0.03
1326,0.15,-3.03,12.30,0.06,-0.10,-0.03
1330,-0.57,-1.84,12.18,0.06,-0.10,-0.03
1335,0.54,-0.38,10.80,0.06,-0.10,-0.03
1340,0.54,-0.38,10.80,0.11,0.11,-0.04
1346,0.54,-0.38,10.80,0.05,0.12,-0.07
1351,0.54,-0.38,10.80,0.02,0.16,-0.16
1355,-0.96,-0.50,7.17,0.02,0.16,-0.16
1360,-0.46,0.08,9.00,0.02,0.16,-0.16
1366,-0.46,0.08,9.00,-0.06,0.19,-0.33
1370,-1.15,0.23,8.81,-0.06,0.19,-0.33
1375,-1.42,0.73,9.46,-0.06,0.19,-0.33
1381,-1.49,0.61,8.39,-0.06,0.19,-0.33
1385,-1.61,-0.69,8.85,-0.06,0.19,-0.33
1390,-3.33,-0.15,7.81,-0.06,0.19,-0.33
1397,-3.33,-0.15,7.81,-0.09,0.09,-0.43
1401,-3.33,-0.15,7.81,-0.10,0.07,-0.41
1405,2.64,-0.30,10.57,-0.10,0.07,-0.41
1410,3.37,0.08,12.48,-0.10,0.07,-0.41
1416,3.95,-0.65,13.63,-0.10,0.07,-0.41
1420,1.91,-0.30,12.22,-0.10,0.07,-0.41
1425,-0.61,0.00,10.84,-0.10,0.07,-0.41
1430,-3.18,0.19,9.38,-0.10,0.07,-0.41
1436,-1.72,0.65,9.00,-0.10,0.07,-0.41
1440,-1.23,2.45,9.04,-0.10,0.07,-0.41
1445,-0.92,4.71,8.20,-0.10,0.07,-0.41
1450,1.95,3.10,9.73,-0.10,0.07,-0.41
1456,1.95,3.10,9.73,-0.22,0.29,-0.71
1460,3.71,1.65,11.41,-0.22,0.29,-0.71
1465,2.11,-0.30,11.07,-0.22,0.29,-0.71
1471,2.11,-0.30,11.07,-0.20,0.05,-0.92
1475,0.00,-1.88,10.91,-0.20,0.05,-0.92
1480,-0.88,-1.46,10.91,-0.20,0.05,-0.92
1486,0.54,-1.46,10.95,-0.20,0.05,-0.92
1490,1.15,0.65,10.80,-0.20,0.05,-0.92
1495,0.73,1.61,9.08,-0.20,0.05,-0.92
1500,1.11,0.73,9.34,-0.20,0.05,-0.92
1506,1.11,0.73,9.34,-0.15,0.19,-0.89
1510,-0.23,-1.38,9.88,-0.15,0.19,-0.89
1515,-0.23,-1.38,9.88,-0.08,0.25,-0.77
1520,0.57,-0.92,9.88,-0.08,0.25,-0.77
1526,-1.38,-0.50,10.49,-0.08,0.25,-0.77
1531,-1.38,-0.50,10.49,-0.03,0.28,-0.72
1535,-0.30,0.27,12.11,-0.03,0.28,-0.72
1540,1.04,-0.27,11.38,-0.03,0.28,-0.72
1545,1.04,-0.27,11.38,-0.02,0.22,-0.73
1551,1.04,-0.27,11.38,-0.02,0.18,-0.72
1556,1.04,-1.07,9.58,-0.02,0.18,-0.72
1560,-1.76,-1.04,9.35,-0.02,0.18,-0.72
1565,-2.07,-1.38,7.39,-0.02,0.18,-0.72
1570,-2.22,-0.88,7.32,-0.02,0.18,-0.72
1576,-2.26,-1.07,6.82,-0.02,0.18,-0.72
1580,-0.04,0.34,10.88,-0.02,0.18,-0.72
1585,0.88,-0.92,10.91,-0.02,0.18,-0.72
1591,0.88,-0.92,10.91,-0.03,0.20,-0.57
1595,0.11,-2.30,13.06,-0.03,0.20,-0.57
1600,-0.42,-2.91,12.38,-0.03,0.20,-0.57
1606,-1.72,-2.30,9.08,-0.03,0.20,-0.57
1610,-4.75,-1.34,8.01,-0.03,0.20,-0.57
1615,-2.87,-1.19,6.89,-0.03,0.20,-0.57
1620,-2.53,1.49,6.25,-0.03,0.20,-0.57
1626,-2.53,1.49,6.25,0.08,0.24,-0.13
1630,1.57,0.38,9.42,0.08,0.24,-0.13
1635,0.80,0.19,10.19,0.08,0.24,-0.13
1641,0.19,-1.23,10.57,0.08,0.24,-0.13
1646,0.65,-3.03,11.04,0.08,0.24,-0.13
1650,0.65,-3.03,11.04,0.13,0.07,-0.11
1655,-1.11,-2.38,10.84,0.13,0.07,-0.11
1661,-1.11,-2.38,10.84,0.16,0.15,0.01
1666,-0.61,-0.50,9.85,0.16,0.15,0.01
1670,-0.61,-0.50,9.85,0.11,0.29,-0.12
1675,-1.84,-0.80,9.27,0.11,0.29,-0.12
1680,-2.26,-0.84,7.43,0.11,0.29,-0.12
1685,-2.11,-0.34,7.36,0.11,0.29,-0.12
1691,-2.07,-1.61,8.23,0.11,0.29,-0.12
1695,-1.99,-2.11,7.16,0.11,0.29,-0.12
1700,-0.96,-1.72,8.46,0.11,0.29,-0.12
1705,-1.34,-1.42,9.69,0.11,0.29,-0.12
1710,-0.34,-2.30,10.41,0.11,0.29,-0.12
1716,-0.34,-2.30,10.41,0.02,-0.04,-0.19
1721,-2.11,-2.07,9.77,0.02,-0.04,-0.19
1725,0.19,-0.69,9.58,0.02,-0.04,-0.19
1730,-0.54,-0.57,10.38,0.02,-0.04,-0.19
1736,-0.54,-0.57,10.38,0.01,0.08,-0.20
1741,1.68,-0.84,9.43,0.01,0.08,-0.20
1745,-0.23,0.23,10.65,0.01,0.08,-0.20
1750,-0.96,0.38,11.38,0.01,0.08,-0.20
1755,-1.07,-0.04,10.23,0.01,0.08,-0.20
1761,-1.42,-0.69,9.93,0.01,0.08,-0.20
1765,-1.15,1.95,8.70,0.01,0.08,-0.20
1770,-1.23,2.95,7.93,0.01,0.08,-0.20
1777,-1.42,2.41,7.62,0.01,0.08,-0.20
1780,-1.53,2.26,6.47,0.01,0.08,-0.20
1785,-0.69,1.15,7.32,0.01,0.08,-0.20
1791,1.46,1.34,8.39,0.01,0.08,-0.20
1795,2.80,0.80,12.34,0.01,0.08,-0.20
1800,2.45,0.00,12.76,0.01,0.08,-0.20
1805,2.53,-0.38,12.45,0.01,0.08,-0.20
1810,0.69,0.30,10.80,0.01,0.08,-0.20
1816,-1.49,0.80,10.77,0.01,0.08,-0.20
1821,-0.88,1.49,9.65,0.01,0.08,-0.20
1825,-0.88,1.49,9.65,-0.16,0.32,-0.79
1830,-0.88,1.49,9.65,-0.22,0.33,-0.86
1835,1.46,2.87,8.96,-0.22,0.33,-0.86
1840,2.80,2.76,10.07,-0.22,0.33,-0.86
1846,2.72,1.11,10.57,-0.22,0.33,-0.86
1850,2.49,-0.34,10.80,-0.22,0.33,-0.86
1855,1.49,-1.04,12.14,-0.22,0.33,-0.86
1860,-0.38,-1.68,11.50,-0.22,0.33,-0.86
1866,-0.84,-2.57,10.95,-0.22,0.33,-0.86
1871,-0.30,-1.34,11.15,-0.22,0.33,-0.86
1875,-0.30,-1.34,11.15,-0.14,0.21,-1.01
1880,1.46,1.68,9.88,-0.14,0.21,-1.01
1885,2.41,0.96,11.26,-0.14,0.21,-1.01
1890,1.53,-0.80,10.53,-0.14,0.21,-1.01
1895,1.53,-0.80,10.53,-0.14,0.21,-1.17
1900,1.88,-1.42,10.57,-0.14,0.21,-1.17
1906,0.92,-2.61,11.11,-0.14,0.21,-1.17
1912,-0.15,-2.91,11.04,-0.14,0.21,-1.17
1915,0.23,-1.46,12.30,-0.14,0.21,-1.17
1920,1.95,-0.30,12.83,-0.14,0.21,-1.17
1925,2.03,-0.65,12.72,-0.14,0.21,-1.17
1930,1.84,-0.54,12.99,-0.14,0.21,-1.17
1936,1.15,-1.30,12.22,-0.14,0.21,-1.17
1941,-0.61,-1.91,10.73,-0.14,0.21,-1.17
1945,-0.61,-1.91,10.73,0.08,0.39,-0.95
1950,-0.61,-1.91,10.73,0.09,0.41,-0.86
1955,-2.76,-2.49,6.67,0.09,0.41,-0.86
1960,-1.99,0.08,8.04,0.09,0.41,-0.86
1965,0.38,-0.23,10.11,0.09,0.41,-0.86
1972,1.91,0.92,11.84,0.09,0.41,-0.86
1976,4.06,-1.88,13.52,0.09,0.41,-0.86
1980,4.06,-1.88,13.52,0.19,0.03,-0.67
1985,-1.53,-4.48,9.35,0.19,0.03,-0.67
1990,-3.29,-4.29,8.66,0.19,0.03,-0.67
1997,-3.29,-4.29,8.66,0.31,0.24,-0.54
2001,-4.25,-1.76,7.62,0.31,0.24,-0.54
2005,-0.11,1.00,9.69,0.31,0.24,-0.54
2010,0.30,0.84,9.69,0.31,0.24,-0.54
2015,1.11,-0.34,11.46,0.31,0.24,-0.54
2021,2.14,-1.65,11.68,0.31,0.24,-0.54
2026,0.04,-5.32,11.07,0.31,0.24,-0.54
2030,0.04,-5.32,11.07,0.31,0.19,-0.46
2035,-1.30,-4.41,9.96,0.31,0.19,-0.46
2040,-1.88,-4.67,9.08,0.31,0.19,-0.46
2047,-2.11,-2.53,8.66,0.31,0.19,-0.46
2050,-2.11,-2.53,8.66,0.32,0.30,-0.06
2055,-1.57,-0.15,9.08,0.32,0.30,-0.06
2060,-2.49,-0.57,8.50,0.32,0.30,-0.06
2065,-1.38,-1.61,8.32,0.32,0.30,-0.06
2071,-0.88,-2.41,8.96,0.32,0.30,-0.06
2077,-1.00,-3.41,8.54,0.32,0.30,-0.06
2080,-1.00,-3.41,8.54,0.33,0.12,0.07
2085,-1.00,-3.41,8.54,0.33,0.11,0.04
2091,-2.53,-2.38,8.35,0.33,0.11,0.04
2097,-0.84,-1.91,9.81,0.33,0.11,0.04
2100,-0.84,-1.91,9.81,0.35,0.09,0.02
2105,-1.19,-0.30,10.92,0.35,0.09,0.02
2110,1.99,-1.57,10.50,0.35,0.09,0.02
2116,1.15,-0.08,9.20,0.35,0.09,0.02
2120,1.15,-0.08,9.20,0.28,0.11,0.02
2125,1.49,-1.38,10.00,0.28,0.11,0.02
2130,-0.04,-1.11,9.20,0.28,0.11,0.02
2136,-1.95,-1.57,9.34,0.28,0.11,0.02
2140,-1.07,-0.92,8.01,0.28,0.11,0.02
2145,0.27,0.11,9.00,0.28,0.11,0.02
2150,-0.54,0.65,9.08,0.28,0.11,0.02
2156,-0.92,0.92,8.81,0.28,0.11,0.02
2160,-1.53,-0.92,8.82,0.28,0.11,0.02
2165,-2.26,-0.57,8.27,0.28,0.11,0.02
2172,-1.68,-1.76,7.97,0.28,0.11,0.02
2176,1.46,-1.76,9.69,0.28,0.11,0.02
2181,2.26,-2.07,11.88,0.28,0.11,0.02
2185,2.26,-2.07,11.88,0.16,-0.07,-0.25
2190,2.26,-2.07,11.88,0.16,-0.03,-0.33
2195,-2.07,-0.50,11.30,0.16,-0.03,-0.33
2201,-2.26,-0.50,11.30,0.16,-0.03,-0.33
2205,-2.26,-0.50,11.30,0.16,0.32,-0.39
2211,-2.26,-0.50,11.30,0.13,0.38,-0.37
2217,-2.03,2.41,7.73,0.13,0.38,-0.37
2220,-2.03,2.41,7.73,0.04,0.32,-0.41
2225,-2.03,2.41,7.73,-0.02,0.20,-0.46
2230,1.76,1.38,9.89,-0.02,0.20,-0.46
2236,1.65,0.46,11.11,-0.02,0.20,-0.46
2240,1.65,0.46,11.11,-0.00,-0.02,-0.60
2245,-1.65,-1.80,10.35,-0.00,-0.02,-0.60
2250,-2.45,-1.07,10.73,-0.00,-0.02,-0.60
2255,-2.45,-1.07,10.73,0.05,0.12,-0.52
2261,-2.45,-1.07,10.73,0.04,0.20,-0.47
2267,-1.91,1.11,9.20,0.04,0.20,-0.47
2270,-1.91,1.11,9.20,0.00,0.21,-0.49
2275,-1.91,1.11,9.20,-0.02,0.13,-0.52
2280,0.92,0.73,9.20,-0.02,0.13,-0.52
2286,2.03,-1.19,9.73,-0.02,0.13,-0.52
2290,2.03,-1.19,9.73,0.03,0.01,-0.50
2296,1.23,-2.41,11.26,0.03,0.01,-0.50
2301,0.50,-1.61,11.76,0.03,0.01,-0.50
2305,0.50,-1.61,11.76,0.11,0.16,-0.41
2310,0.50,-1.61,11.76,0.10,0.21,-0.45
2315,-0.15,0.00,9.89,0.10,0.21,-0.45
2321,0.88,-0.38,10.84,0.10,0.21,-0.45
2325,0.88,-0.38,10.84,0.07,0.25,-0.52
2331,0.88,-0.38,10.84,0.04,0.25,-0.51
2337,0.08,-0.80,8.36,0.04,0.25,-0.51
2340,0.08,-0.80,8.36,0.03,0.21,-0.48
2345,0.08,-0.80,8.36,0.01,0.17,-0.48
2350,0.08,-0.80,8.36,-0.00,0.12,-0.49
2355,2.84,-2.76,10.41,-0.00,0.12,-0.49
2361,2.41,-2.64,12.03,-0.00,0.12,-0.49
2365,1.57,-2.84,13.71,-0.00,0.12,-0.49
2370,2.22,-2.91,13.83,-0.00,0.12,-0.49
2377,0.11,-2.38,12.34,-0.00,0.12,-0.49
2381,0.11,-2.38,12.34,0.17,0.27,-0.49
2385,-1.88,-1.42,8.50,0.17,0.27,-0.49
2390,-2.07,-0.73,6.89,0.17,0.27,-0.49
2397,-1.72,0.00,6.97,0.17,0.27,-0.49
2401,0.54,0.46,7.39,0.17,0.27,-0.49
2406,1.42,-0.80,7.74,0.17,0.27,-0.49
2410,1.42,-0.80,7.74,0.02,0.03,-0.45
2415,1.42,-0.80,7.74,0.02,-0.04,-0.46
2420,1.07,-3.07,12.26,0.02,-0.04,-0.46
2426,-0.38,-3.48,12.53,0.02,-0.04,-0.46
2430,-0.38,-3.48,12.53,0.21,0.09,-0.26
2435,-0.34,-2.26,10.35,0.21,0.09,-0.26
2441,-1.80,-0.27,9.43,0.21,0.09,-0.26
2445,-1.80,-0.27,9.43,0.21,0.28,-0.20
2451,-1.80,-0.27,9.43,0.17,0.30,-0.22
2456,-2.53,0.84,7.81,0.17,0.30,-0.22
2461,-2.38,1.23,7.93,0.17,0.30,-0.22
2465,-2.38,1.23,7.93,0.10,0.20,-0.09
2470,-2.30,-0.46,8.35,0.10,0.20,-0.09
2476,-3.22,-0.15,7.47,0.10,0.20,-0.09
2480,-3.22,-0.15,7.47,0.08,0.05,-0.12
2485,-1.57,-0.92,10.19,0.08,0.05,-0.12
2490,-2.34,-1.04,10.38,0.08,0.05,-0.12
2497,-2.49,-0.80,10.30,0.08,0.05,-0.12
2501,-2.49,-0.80,10.30,0.11,0.01,-0.05
2505,1.04,0.46,10.80,0.11,0.01,-0.05
2510,-0.04,-0.08,9.96,0.11,0.01,-0.05
2516,-0.57,-0.42,9.85,0.11,0.01,-0.05
2521,-0.57,-0.42,9.85,0.05,0.09,-0.21
2527,-1.49,-0.11,8.20,0.05,0.09,-0.21
2530,-1.49,-0.11,8.20,0.00,0.16,-0.24
2535,-1.49,-0.11,8.20,-0.00,0.19,-0.24
2541,-1.00,0.65,9.16,-0.00,0.19,-0.24
2547,0.23,0.88,9.93,-0.00,0.19,-0.24
2550,0.23,0.88,9.93,-0.03,0.13,-0.34
2556,-1.68,-0.15,7.81,-0.03,0.13,-0.34
2561,-1.61,-1.04,8.70,-0.03,0.13,-0.34
2565,-1.61,-1.04,8.70,-0.05,0.06,-0.37
2570,-1.61,-1.04,8.70,-0.04,0.01,-0.32
2576,3.98,-1.11,13.29,-0.04,0.01,-0.32
2581,4.52,-0.80,14.18,-0.04,0.01,-0.32
2585,4.52,-0.80,14.18,-0.00,-0.05,-0.50
2591,4.52,-0.80,14.18,-0.02,0.05,-0.61
2597,-0.11,-0.77,11.22,-0.02,0.05,-0.61
2600,-0.11,-0.77,11.22,-0.00,0.31,-0.63
2605,-0.11,-0.77,11.22,-0.03,0.40,-0.61
2611,-0.11,-0.77,11.22,-0.09,0.45,-0.61
2616,-1.19,3.64,7.63,-0.09,0.45,-0.61
2620,-1.19,3.64,7.63,-0.17,0.33,-0.71
2625,1.57,2.07,9.77,-0.17,0.33,-0.71
2631,1.57,1.42,9.89,-0.17,0.33,-0.71
2636,1.57,1.42,9.89,-0.19,0.00,-0.84
2641,1.57,1.42,9.89,-0.18,-0.01,-0.81
2647,-1.95,-1.27,11.19,-0.18,-0.01,-0.81
2650,-1.95,-1.27,11.19,-0.09,0.11,-0.71
2655,-1.95,-1.27,11.19,-0.08,0.14,-0.66
2661,0.77,1.42,9.88,-0.08,0.14,-0.66
2666,1.19,2.45,9.96,-0.08,0.14,-0.66
2670,1.19,2.45,9.96,-0.16,0.09,-0.78
2675,1.19,2.45,9.96,-0.14,0.12,-0.83
2680,1.57,-0.30,10.92,-0.14,0.12,-0.83
2687,1.57,-0.30,10.92,-0.13,0.14,-0.82
2691,1.57,-0.30,10.92,-0.09,0.22,-0.71
2696,1.57,-0.30,10.92,-0.06,0.24,-0.68
2701,-1.19,-0.38,9.80,-0.06,0.24,-0.68
2705,-1.19,-0.38,9.80,-0.07,0.24,-0.74
2711,-1.19,-0.38,9.80,-0.06,0.22,-0.75
2716,-0.15,-1.11,10.54,-0.06,0.22,-0.75
2721,-0.15,-1.11,10.54,-0.06,0.19,-0.72
2725,-0.15,-1.11,10.54,-0.04,0.16,-0.69
2731,-0.15,-1.11,10.54,-0.02,0.15,-0.68
2736,-0.96,-2.76,7.55,-0.02,0.15,-0.68
2741,-0.96,-2.76,7.55,-0.04,0.16,-0.62
2746,-0.96,-2.76,7.55,-0.04,0.14,-0.60
2751,1.53,-1.38,11.50,-0.04,0.14,-0.60
2755,1.53,-1.38,11.50,0.01,0.10,-0.57
2760,1.53,-1.38,11.50,0.04,0.10,-0.56
2766,1.19,-1.91,14.48,0.04,0.10,-0.56
2772,0.57,-2.87,12.22,0.04,0.10,-0.56
2776,0.57,-2.87,12.22,0.15,0.30,-0.53
2781,0.57,-2.87,12.22,0.16,0.39,-0.46
2787,-2.87,-1.00,7.09,0.16,0.39,-0.46
2791,-2.87,-1.00,7.09,0.08,0.39,-0.33
2796,-2.87,-1.00,7.09,0.04,0.28,-0.30
2802,0.80,0.69,8.85,0.04,0.28,-0.30
2805,0.80,0.69,8.85,-0.01,0.02,-0.35
2810,0.80,0.69,8.85,0.02,-0.05,-0.36
2817,1.99,-2.18,11.22,0.02,-0.05,-0.36
2822,-0.15,-3.64,11.07,0.02,-0.05,-0.36
2825,-0.15,-3.64,11.07,0.16,0.00,-0.16
2831,-0.15,-3.64,11.07,0.19,0.06,-0.09
2837,-1.49,-1.30,8.50,0.19,0.06,-0.09
2840,-1.49,-1.30,8.50,0.16,0.18,-0.12
2845,-1.49,-1.30,8.50,0.12,0.19,-0.16
2851,-1.49,-1.30,8.50,0.10,0.19,-0.15
2856,-0.88,-0.11,8.96,0.10,0.19,-0.15
2861,-0.88,-0.11,8.96,0.06,0.14,-0.11
2865,-0.88,-0.11,8.96,0.05,0.10,-0.14
2871,-0.88,-0.11,8.96,0.02,0.07,-0.21
2876,0.77,-2.07,10.61,0.02,0.07,-0.21
2881,0.77,-2.07,10.61,0.03,0.04,-0.28
2886,0.77,-2.07,10.61,0.04,0.06,-0.29
2891,-0.04,-0.46,10.80,0.04,0.06,-0.29
2896,-0.04,-0.46,10.80,0.02,0.16,-0.30
2901,-0.04,-0.46,10.80,-0.01,0.21,-0.35
2907,-0.19,0.23,9.80,-0.01,0.21,-0.35
2911,-0.19,0.23,9.80,-0.06,0.23,-0.43
2916,-0.19,0.23,9.80,-0.07,0.22,-0.47
2921,-1.49,-0.46,9.84,-0.07,0.22,-0.47
2927,-2.34,-1.19,8.96,-0.07,0.22,-0.47
2931,-2.34,-1.19,8.96,-0.03,0.23,-0.45
2936,-2.34,-1.19,8.96,-0.02,0.21,-0.41
2942,-0.46,0.46,8.66,-0.02,0.21,-0.41
2945,-0.46,0.46,8.66,-0.03,0.13,-0.42
2951,-0.46,0.46,8.66,-0.04,0.09,-0.43
2957,-2.03,0.04,6.55,-0.04,0.09,-0.43
2960,-2.03,0.04,6.55,-0.05,0.11,-0.42
2965,-2.03,0.04,6.55,-0.07,0.15,-0.39
2971,-2.03,0.04,6.55,-0.03,0.13,-0.35
2976,0.96,1.68,12.61,-0.03,0.13,-0.35
2981,0.96,1.68,12.61,-0.04,0.08,-0.38
2985,0.96,1.68,12.61,-0.02,0.08,-0.44
2991,0.96,1.68,12.61,-0.05,0.13,-0.51
2998,-1.84,-1.23,10.73,-0.05,0.13,-0.51
3001,-1.84,-1.23,10.73,-0.08,0.26,-0.58
3006,-1.84,-1.23,10.73,-0.10,0.27,-0.58
3011,-2.72,1.95,7.97,-0.10,0.27,-0.58
3016,-2.72,1.95,7.97,-0.18,0.27,-0.65
3021,-2.72,1.95,7.97,-0.21,0.18,-0.68
3026,1.99,0.19,11.07,-0.21,0.18,-0.68
3032,2.57,-0.46,11.72,-0.21,0.18,-0.68
3036,2.57,-0.46,11.72,-0.19,0.08,-0.88
3041,2.57,-0.46,11.72,-0.13,0.12,-0.86
3046,-2.34,-3.71,9.54,-0.13,0.12,-0.86
3050,-2.34,-3.71,9.54,-0.06,0.27,-0.73
3055,-2.34,-3.71,9.54,-0.03,0.29,-0.67
3060,-0.84,0.92,9.50,-0.03,0.29,-0.67
3067,-0.11,1.42,8.70,-0.03,0.29,-0.67
3071,-0.11,1.42,8.70,-0.10,0.19,-0.76
3076,-0.11,1.42,8.70,-0.10,0.17,-0.79
3082,1.11,-1.00,11.54,-0.10,0.17,-0.79
3085,1.11,-1.00,11.54,-0.07,0.15,-0.71
3091,1.11,-1.00,11.54,-0.05,0.15,-0.70
3097,0.08,-1.91,11.50,-0.05,0.15,-0.70
3101,0.08,-1.91,11.50,-0.03,0.21,-0.72
3106,0.08,-1.91,11.50,-0.02,0.25,-0.73
3111,0.08,-1.91,11.50,-0.04,0.28,-0.72
3117,0.19,0.34,10.27,-0.04,0.28,-0.72
3120,0.19,0.34,10.27,-0.05,0.30,-0.73
3126,0.19,0.34,10.27,-0.06,0.31,-0.72
3132,0.19,0.34,10.27,-0.05,0.32,-0.70
3136,0.19,0.34,10.27,-0.07,0.33,-0.65
3141,0.19,0.34,10.27,-0.10,0.28,-0.60
3146,-1.34,0.30,7.78,-0.10,0.28,-0.60
3152,1.84,-0.73,10.80,-0.10,0.28,-0.60
3157,1.84,-0.73,10.80,-0.07,-0.09,-0.48
3161,1.84,-0.73,10.80,-0.03,-0.21,-0.49
3166,5.21,-3.26,16.77,-0.03,-0.21,-0.49
3171,5.21,-3.26,16.77,0.10,-0.13,-0.64
3175,5.21,-3.26,16.77,0.14,0.05,-0.67
3181,-3.79,-2.45,8.35,0.14,0.05,-0.67
3186,-3.95,-0.61,6.97,0.14,0.05,-0.67
3191,-3.95,-0.61,6.97,0.05,0.54,-0.51
3196,-3.95,-0.61,6.97,-0.02,0.52,-0.48
3201,2.49,2.18,9.77,-0.02,0.52,-0.48
3206,2.49,2.18,9.77,-0.15,0.32,-0.71
3211,2.49,2.18,9.77,-0.11,0.20,-0.85
3217,2.07,-4.67,12.30,-0.11,0.20,-0.85
3221,2.07,-4.67,12.30,0.05,0.14,-0.83
3226,2.07,-4.67,12.30,0.13,0.19,-0.68
3231,2.07,-4.67,12.30,0.16,0.24,-0.53
3237,-1.65,-0.61,9.46,0.16,0.24,-0.53
3241,-1.65,-0.61,9.46,0.12,0.35,-0.57
3245,-1.65,-0.61,9.46,0.07,0.39,-0.69
3250,-1.65,-0.61,9.46,0.04,0.38,-0.75
3257,-2.61,2.14,6.85,0.04,0.38,-0.75
3260,-2.61,2.14,6.85,-0.03,0.27,-0.61
3266,0.38,-0.34,8.39,-0.03,0.27,-0.61
3272,0.38,-0.34,8.39,-0.05,0.05,-0.55
3276,0.38,-0.34,8.39,-0.04,-0.02,-0.61
3281,0.38,-0.34,8.39,0.01,-0.05,-0.65
3286,0.50,-2.26,12.91,0.01,-0.05,-0.65
3291,0.50,-2.26,12.91,0.13,0.06,-0.56
3296,0.50,-2.26,12.91,0.17,0.18,-0.48
3301,-2.03,0.19,10.45,0.17,0.18,-0.48
3306,-0.73,0.88,9.46,0.17,0.18,-0.48
3310,-0.73,0.88,9.46,0.12,0.35,-0.49
3315,-0.73,0.88,9.46,0.06,0.31,-0.55
3320,-0.50,0.19,7.70,0.06,0.31,-0.55
3327,-0.50,0.19,7.70,0.02,0.26,-0.61
3331,-0.50,0.19,7.70,0.01,0.19,-0.60
3336,-0.50,0.19,7.70,0.01,0.19,-0.54
3342,-3.33,-1.04,7.43,0.01,0.19,-0.54
3346,-3.33,-1.04,7.43,0.04,0.16,-0.45
3351,-3.33,-1.04,7.43,0.05,0.11,-0.43
3357,-0.54,-1.34,11.57,0.05,0.11,-0.43
3361,-0.54,-1.34,11.57,0.07,0.00,-0.43
3366,-0.54,-1.34,11.57,0.10,-0.05,-0.43
3371,-0.54,-1.34,11.57,0.16,-0.07,-0.44
3376,6.55,-3.98,18.77,0.16,-0.07,-0.44
3381,6.55,-3.98,18.77,0.25,0.06,-0.53
3386,6.55,-3.98,18.77,0.28,0.26,-0.61
3392,-4.98,-1.88,6.70,0.28,0.26,-0.61
3396,-4.98,-1.88,6.70,0.18,0.68,-0.62
3401,-4.98,-1.88,6.70,0.11,0.77,-0.55
3406,-3.68,2.38,5.48,0.11,0.77,-0.55
3412,-1.84,2.80,6.40,0.11,0.77,-0.55
3416,-1.84,2.80,6.40,-0.09,0.38,-0.64
3421,-1.84,2.80,6.40,-0.06,0.13,-0.70
3426,2.53,-2.99,12.53,-0.06,0.13,-0.70
3431,2.53,-2.99,12.53,0.10,-0.15,-0.61
3436,2.53,-2.99,12.53,0.20,-0.14,-0.50
3442,1.34,-5.13,11.30,0.20,-0.14,-0.50
3445,1.34,-5.13,11.30,0.27,-0.04,-0.32
3451,1.34,-5.13,11.30,0.25,0.02,-0.33
3456,1.34,-5.13,11.30,0.21,0.09,-0.42
3461,1.91,0.23,10.03,0.21,0.09,-0.42
3466,1.91,0.23,10.03,0.12,0.14,-0.53
3471,1.91,0.23,10.03,0.07,0.17,-0.57
3476,-0.96,-1.04,7.70,0.07,0.17,-0.57
3481,-0.96,-1.04,7.70,0.01,0.28,-0.66
3486,-0.96,-1.04,7.70,0.04,0.30,-0.66
3491,-0.96,-1.04,7.70,0.06,0.31,-0.61
3497,-0.38,-1.95,9.65,0.06,0.31,-0.61
3501,-0.38,-1.95,9.65,0.13,0.23,-0.54
3506,-0.38,-1.95,9.65,0.14,0.17,-0.56
3511,-0.38,-1.95,9.65,0.18,0.10,-0.60
3516,-0.38,-1.95,9.65,0.21,0.06,-0.61
3521,-0.38,-1.95,9.65,0.21,0.06,-0.64
3526,-0.38,-1.95,9.65,0.23,0.14,-0.67
3531,-1.11,-1.19,7.81,0.23,0.14,-0.67
3536,-1.11,-1.19,7.81,0.18,0.34,-0.67
3541,-1.11,-1.19,7.81,0.11,0.42,-0.67
3547,-1.11,-1.19,7.81,0.07,0.43,-0.67
3551,-1.11,-1.19,7.81,0.02,0.35,-0.69
3556,-1.11,-1.19,7.81,0.01,0.22,-0.74
3561,-1.11,-1.19,7.81,0.02,0.12,-0.83
3566,1.95,-1.53,14.78,0.02,0.12,-0.83
3571,1.95,-1.53,14.78,0.13,0.15,-0.95
3576,1.95,-1.53,14.78,0.21,0.32,-0.92
3581,-10.15,-1.38,6.59,0.21,0.32,-0.92
3586,-10.15,-1.38,6.59,0.25,0.63,-0.69
3591,-10.15,-1.38,6.59,0.22,0.63,-0.56
3596,-10.15,-1.38,6.59,0.16,0.49,-0.48
3601,1.11,4.52,5.17,0.16,0.49,-0.48
3605,1.11,4.52,5.17,0.00,-0.05,-0.57
3610,1.11,4.52,5.17,-0.03,-0.32,-0.68
3615,4.83,-3.60,9.54,-0.03,-0.32,-0.68
3621,4.83,-3.60,9.54,-0.00,-0.50,-0.74
3626,4.33,-5.59,12.60,-0.00,-0.50,-0.74
3632,4.33,-5.59,12.60,0.19,-0.42,-0.48
3636,4.33,-5.59,12.60,0.31,-0.17,-0.44
3641,4.33,-5.59,12.60,0.26,0.31,-0.55
3646,4.33,-5.59,12.60,0.23,0.57,-0.63
3651,-2.64,0.80,9.23,0.23,0.57,-0.63
3656,-2.64,0.80,9.23,0.21,0.64,-0.71
3661,-2.64,0.80,9.23,0.16,0.63,-0.71
3666,-2.64,0.80,9.23,0.16,0.56,-0.64
3671,-2.64,0.80,9.23,0.10,0.40,-0.57
3676,-2.64,0.80,9.23,0.11,0.20,-0.54
3681,-2.64,0.80,9.23,0.15,-0.00,-0.56
3686,6.09,-3.26,15.48,0.15,-0.00,-0.56
3691,6.09,-3.26,15.48,0.21,-0.21,-0.69
3696,6.09,-3.26,15.48,0.29,-0.21,-0.71
3701,6.09,-3.26,15.48,0.34,-0.10,-0.69
3706,6.09,-3.26,15.48,0.34,0.09,-0.69
3711,6.09,-3.26,15.48,0.33,0.32,-0.72
3716,6.09,-3.26,15.48,0.31,0.54,-0.78
3722,-5.48,1.42,7.77,0.31,0.54,-0.78
3726,-5.48,1.42,7.77,0.23,0.82,-0.84
3731,-5.48,1.42,7.77,0.20,0.84,-0.81
3737,-5.48,1.42,7.77,0.19,0.79,-0.74
3741,-5.48,1.42,7.77,0.19,0.62,-0.64
3746,-5.48,1.42,7.77,0.21,0.38,-0.53
3751,-5.48,1.42,7.77,0.24,0.10,-0.46
3756,2.03,-4.37,9.43,0.24,0.10,-0.46
3761,2.03,-4.37,9.43,0.32,-0.31,-0.41
3766,2.03,-4.37,9.43,0.37,-0.36,-0.38
3771,2.03,-4.37,9.43,0.38,-0.30,-0.36
3776,2.03,-4.37,9.43,0.43,-0.15,-0.30
3781,2.03,-4.37,9.43,0.44,0.02,-0.21
3786,2.03,-4.37,9.43,0.42,0.17,-0.11
3791,-2.91,0.27,11.07,0.42,0.17,-0.11
3796,-2.91,0.27,11.07,0.39,0.30,-0.11
3801,-2.91,0.27,11.07,0.38,0.31,-0.21
3806,-2.91,0.27,11.07,0.39,0.30,-0.31
3811,-2.91,0.27,11.07,0.43,0.29,-0.34
3816,-2.91,0.27,11.07,0.45,0.27,-0.29
3821,-2.91,0.27,11.07,0.48,0.27,-0.20
3826,-2.91,0.27,11.07,0.49,0.28,-0.12
3831,-2.91,0.27,11.07,0.49,0.27,-0.07
3836,-2.91,0.27,11.07,0.43,0.23,-0.07
3841,0.34,0.73,8.39,0.43,0.23,-0.07
3846,0.34,0.73,8.39,0.33,0.20,-0.27
3851,0.34,0.73,8.39,0.34,0.19,-0.37
3856,0.34,0.73,8.39,0.36,0.20,-0.39
3861,0.34,0.73,8.39,0.39,0.21,-0.32
3866,0.34,0.73,8.39,0.42,0.27,-0.23
3871,0.34,0.73,8.39,0.46,0.35,-0.16
3876,-4.71,0.11,9.85,0.46,0.35,-0.16
3881,-4.71,0.11,9.85,0.47,0.45,-0.12
3886,-4.71,0.11,9.85,0.45,0.40,-0.13
3891,-4.71,0.11,9.85,0.41,0.32,-0.16
3896,-4.71,0.11,9.85,0.36,0.18,-0.19
3901,-4.71,0.11,9.85,0.34,0.03,-0.18
3906,-4.71,0.11,9.85,0.33,-0.12,-0.13
3912,2.03,-0.46,8.66,0.33,-0.12,-0.13
3916,2.03,-0.46,8.66,0.28,-0.28,-0.11
3921,2.03,-0.46,8.66,0.30,-0.27,-0.15
3926,2.03,-0.46,8.66,0.31,-0.20,-0.21
3931,2.03,-0.46,8.66,0.29,-0.06,-0.28
3936,2.03,-0.46,8.66,0.33,0.09,-0.30
3941,2.03,-0.46,8.66,0.36,0.19,-0.31
3946,2.53,-0.61,12.76,0.36,0.19,-0.31
3950,2.53,-0.61,12.76,0.36,0.26,-0.30
3956,2.11,0.27,10.49,0.36,0.26,-0.30
3961,2.11,0.27,10.49,0.34,0.25,-0.35
3966,1.99,-1.57,8.58,0.34,0.25,-0.35
3971,1.99,-1.57,8.58,0.26,0.13,-0.46
3975,1.99,-1.57,8.58,0.25,0.07,-0.43
3981,2.30,-2.07,11.19,0.25,0.07,-0.43
3986,2.30,-2.07,11.19,0.28,-0.00,-0.43
3991,2.30,-2.07,11.19,0.28,0.02,-0.52
3996,2.30,-2.07,11.19,0.29,0.09,-0.58
4001,2.30,-2.07,11.19,0.29,0.15,-0.57
4006,2.30,-2.07,11.19,0.29,0.19,-0.51
4010,2.30,-2.07,11.19,0.29,0.20,-0.45
4016,-0.61,1.53,7.24,0.29,0.20,-0.45
4021,-0.61,1.53,7.24,0.24,0.11,-0.43
4026,-0.61,1.53,7.24,0.23,0.02,-0.43
4031,-0.61,1.53,7.24,0.23,-0.05,-0.45
4036,-0.61,1.53,7.24,0.24,-0.12,-0.44
4041,-0.61,1.53,7.24,0.28,-0.17,-0.39
4045,-0.61,1.53,7.24,0.29,-0.20,-0.36
4051,2.61,-0.38,10.65,0.29,-0.20,-0.36
4056,2.61,-0.38,10.65,0.33,-0.19,-0.34
4061,2.61,-0.38,10.65,0.32,-0.15,-0.38
4066,2.61,-0.38,10.65,0.33,-0.08,-0.43
4071,2.61,-0.38,10.65,0.33,0.04,-0.49
4076,2.61,-0.38,10.65,0.32,0.20,-0.52
4081,2.61,-0.38,10.65,0.34,0.33,-0.49
4086,2.61,-0.38,10.65,0.38,0.40,-0.41
4091,2.61,-0.38,10.65,0.34,0.39,-0.34
4096,2.61,-0.38,10.65,0.32,0.31,-0.31
4101,2.61,-0.38,10.65,0.27,0.19,-0.36
4106,2.61,-0.38,10.65,0.30,0.05,-0.42
4111,2.61,-0.38,10.65,0.29,-0.06,-0.44
4116,2.61,-0.38,10.65,0.33,-0.12,-0.38
4121,2.61,-0.38,10.65,0.37,-0.14,-0.25
4126,2.61,-0.38,10.65,0.42,-0.09,-0.16
4131,2.61,-0.38,10.65,0.44,-0.01,-0.10
4136,2.61,-0.38,10.65,0.48,0.08,-0.10
4141,2.61,-0.38,10.65,0.51,0.19,-0.13
4146,2.61,-0.38,10.65,0.49,0.28,-0.16
4150,2.61,-0.38,10.65,0.49,0.28,-0.13
4156,-2.14,-1.07,6.40,0.49,0.28,-0.13
4161,-2.14,-1.07,6.40,0.44,0.22,-0.03
4165,-2.14,-1.07,6.40,0.42,0.16,0.04
4171,-6.55,-1.95,5.05,0.42,0.16,0.04
4176,-6.55,-1.95,5.05,0.37,0.07,0.15
4181,-6.55,-1.95,5.05,0.38,-0.02,0.21
4185,-6.55,-1.95,5.05,0.43,-0.15,0.30
4191,0.34,-1.72,10.30,0.43,-0.15,0.30
4196,0.34,-1.72,10.30,0.43,-0.33,0.34
4200,0.34,-1.72,10.30,0.48,-0.36,0.37
4206,-0.08,-4.60,11.26,0.48,-0.36,0.37
4211,-0.08,-4.60,11.26,0.53,-0.21,0.41
4216,-0.08,-4.60,11.26,0.53,-0.17,0.46
4220,-0.08,-4.60,11.26,0.58,-0.10,0.50
4226,-1.57,-1.53,11.50,0.58,-0.10,0.50
4231,-1.57,-1.53,11.50,0.52,0.07,0.45
4235,-1.57,-1.53,11.50,0.50,0.12,0.44
4241,-2.22,-1.38,10.61,0.50,0.12,0.44
4246,-2.22,-1.38,10.61,0.38,0.19,0.32
4251,-2.22,-1.38,10.61,0.45,0.15,0.32
4255,-2.22,-1.38,10.61,0.45,0.10,0.34
4261,-1.49,-4.33,10.11,0.45,0.10,0.34
4266,-1.49,-4.33,10.11,0.48,0.07,0.44
4270,-1.49,-4.33,10.11,0.52,0.06,0.48
4276,-2.99,-1.46,9.16,0.52,0.06,0.48
4281,-2.99,-1.46,9.16,0.41,0.13,0.40
4286,-2.99,-1.46,9.16,0.41,0.14,0.37
4291,-2.99,-1.46,9.16,0.38,0.14,0.38
4296,-5.74,0.30,4.52,0.38,0.14,0.38
4301,-5.74,0.30,4.52,0.29,0.09,0.47
4305,-5.74,0.30,4.52,0.26,0.02,0.53
4310,-2.80,-0.46,6.02,0.26,0.02,0.53
4316,-2.80,-0.46,6.02,0.27,-0.05,0.52
4321,-2.80,-0.46,6.02,0.29,-0.18,0.54
4326,-2.80,-0.46,6.02,0.29,-0.22,0.58
4331,-2.80,-0.46,6.02,0.30,-0.20,0.62
4336,-2.80,-0.46,6.02,0.32,-0.17,0.64
4340,-2.80,-0.46,6.02,0.29,-0.12,0.66
4346,-1.42,-1.23,8.46,0.29,-0.12,0.66
4351,-1.42,-1.23,8.46,0.27,-0.09,0.70
4356,-1.42,-1.23,8.46,0.25,-0.10,0.67
4361,-1.42,-1.23,8.46,0.24,-0.12,0.61
4366,-1.42,-1.23,8.46,0.27,-0.14,0.58
4371,-1.42,-1.23,8.46,0.25,-0.16,0.55
4375,-1.42,-1.23,8.46,0.20,-0.17,0.48
4381,4.33,-3.64,11.80,0.20,-0.17,0.48
4386,4.33,-3.64,11.80,0.23,-0.19,0.35
4390,4.33,-3.64,11.80,0.23,-0.16,0.27
4396,4.33,-3.64,11.80,0.21,-0.10,0.18
4401,4.33,-3.64,11.80,0.19,-0.02,0.10
4406,4.33,-3.64,11.80,0.14,0.09,0.01
4410,4.33,-3.64,11.80,0.10,0.23,-0.10
4416,-1.11,0.34,10.15,0.10,0.23,-0.10
4421,-1.11,0.34,10.15,0.06,0.33,-0.19
4425,-1.11,0.34,10.15,0.07,0.30,-0.21
4431,0.19,1.34,11.34,0.07,0.30,-0.21
4436,0.19,1.34,11.34,0.05,0.15,-0.27
4441,0.19,1.34,11.34,0.03,0.05,-0.29
4445,0.19,1.34,11.34,0.01,-0.04,-0.30
4451,0.19,2.26,7.39,0.01,-0.04,-0.30
4456,0.19,2.26,7.39,-0.03,-0.09,-0.29
4460,0.19,2.26,7.39,-0.06,-0.08,-0.29
4466,-1.27,3.87,8.62,-0.06,-0.08,-0.29
4471,-1.27,3.87,8.62,-0.11,-0.08,-0.29
4476,-1.27,3.87,8.62,-0.11,-0.10,-0.33
4481,-1.27,3.87,8.62,-0.11,-0.11,-0.38
4486,2.26,3.26,10.69,-0.11,-0.11,-0.38
4491,2.26,3.26,10.69,-0.12,-0.15,-0.41
4495,2.26,3.26,10.69,-0.12,-0.16,-0.42
4501,2.41,2.03,11.34,-0.12,-0.16,-0.42
4506,2.41,2.03,11.34,-0.13,-0.12,-0.47
4511,2.41,2.03,11.34,-0.14,-0.12,-0.50
4516,2.41,2.03,11.34,-0.16,-0.10,-0.56
4521,2.64,0.69,9.77,-0.16,-0.10,-0.56
4526,2.64,0.69,9.77,-0.19,-0.09,-0.69
4530,2.64,0.69,9.77,-0.21,-0.08,-0.76
4536,3.71,-0.50,9.46,-0.21,-0.08,-0.76
4541,3.71,-0.50,9.46,-0.24,-0.05,-0.89
4545,3.71,-0.50,9.46,-0.25,0.01,-0.97
4551,3.71,-0.50,9.46,-0.25,0.06,-1.01
4556,0.69,0.00,9.65,-0.25,0.06,-1.01
4561,0.69,0.00,9.65,-0.18,0.16,-1.00
4565,0.69,0.00,9.65,-0.16,0.18,-1.01
4571,1.15,0.11,10.19,-0.16,0.18,-1.01
4576,1.15,0.11,10.19,-0.11,0.20,-1.09
4580,1.15,0.11,10.19,-0.11,0.23,-1.13
4586,1.15,0.11,10.19,-0.09,0.28,-1.12
4591,-4.90,0.69,7.89,-0.09,0.28,-1.12
4596,-4.90,0.69,7.89,-0.06,0.33,-0.99
4600,-4.90,0.69,7.89,-0.06,0.29,-0.93
4606,-2.22,1.65,6.93,-0.06,0.29,-0.93
4611,-2.22,1.65,6.93,-0.04,0.10,-0.90
4615,-2.22,1.65,6.93,-0.02,0.03,-0.91
4622,-2.22,1.65,6.93,-0.01,-0.02,-0.86
4626,-2.22,1.65,6.93,0.05,-0.04,-0.78
4631,-2.22,1.65,6.93,0.11,-0.05,-0.70
4636,-2.22,1.65,6.93,0.18,-0.04,-0.61
4641,0.00,0.08,9.89,0.18,-0.04,-0.61
4646,0.00,0.08,9.89,0.21,-0.04,-0.45
4650,0.00,0.08,9.89,0.17,-0.04,-0.43
4656,0.00,0.08,9.89,0.19,-0.04,-0.44
4660,0.00,0.08,9.89,0.20,-0.04,-0.44
4666,0.00,0.08,9.89,0.21,-0.05,-0.39
4671,0.00,0.08,9.89,0.24,-0.04,-0.33
4676,-0.88,-1.61,11.84,0.24,-0.04,-0.33
4681,-0.88,-1.61,11.84,0.35,0.08,-0.20
4685,-0.88,-1.61,11.84,0.35,0.18,-0.17
4691,-0.88,-1.61,11.84,0.37,0.23,-0.13
4696,-0.88,-1.61,11.84,0.35,0.21,-0.11
4701,-0.88,-1.61,11.84,0.34,0.13,-0.10
4705,-0.88,-1.61,11.84,0.34,0.03,-0.09
4711,-1.07,-2.38,7.86,0.34,0.03,-0.09
4716,-1.07,-2.38,7.86,0.37,-0.12,0.04
4720,-1.07,-2.38,7.86,0.40,-0.14,0.12
4726,-1.30,-3.48,10.54,0.40,-0.14,0.12
4731,-1.30,-3.48,10.54,0.43,-0.11,0.16
4735,-1.30,-3.48,10.54,0.45,-0.08,0.15
4741,-1.30,-3.48,10.54,0.46,-0.04,0.14
4746,-1.61,-3.71,9.92,0.46,-0.04,0.14
4751,-1.61,-3.71,9.92,0.48,0.06,0.20
4755,-1.61,-3.71,9.92,0.49,0.07,0.27
4761,-1.88,-1.30,9.27,0.49,0.07,0.27
4766,-1.88,-1.30,9.27,0.47,0.02,0.35
4770,-1.88,-1.30,9.27,0.45,-0.02,0.37
4776,-1.88,-1.30,9.27,0.42,-0.05,0.39
4781,-1.46,-1.34,10.35,0.42,-0.05,0.39
4786,-1.46,-1.34,10.35,0.46,-0.07,0.43
4790,-1.46,-1.34,10.35,0.46,-0.05,0.48
4796,-0.50,-1.49,10.54,0.46,-0.05,0.48
4800,-0.50,-1.49,10.54,0.49,-0.05,0.60
4805,-0.50,-1.49,10.54,0.49,-0.05,0.62
4811,-0.50,-1.49,10.54,0.48,-0.04,0.63
4816,-1.72,-0.46,10.03,0.48,-0.04,0.63
4821,-1.72,-0.46,10.03,0.47,-0.03,0.67
4826,-1.72,-0.46,10.03,0.45,-0.03,0.67
4831,-0.73,-1.49,8.46,0.45,-0.03,0.67
4836,-0.73,-1.49,8.46,0.43,-0.09,0.69
4840,-0.73,-1.49,8.46,0.42,-0.12,0.65
4845,-0.73,-1.49,8.46,0.41,-0.12,0.61
4850,-2.11,-1.57,7.21,0.41,-0.12,0.61
4856,-2.11,-1.57,7.21,0.39,-0.10,0.61
4861,-2.11,-1.57,7.21,0.38,-0.04,0.65
4866,-1.19,-2.14,9.65,0.38,-0.04,0.65
4871,-1.19,-2.14,9.65,0.35,-0.06,0.60
4875,-1.19,-2.14,9.65,0.37,-0.10,0.55
4881,2.38,-2.80,13.29,0.37,-0.10,0.55
4886,2.38,-2.80,13.29,0.41,-0.12,0.44
4891,2.38,-2.80,13.29,0.40,-0.06,0.38
4896,2.38,-2.80,13.29,0.39,0.03,0.35
4901,-2.30,-0.38,8.12,0.39,0.03,0.35
4906,-2.30,-0.38,8.12,0.35,0.16,0.32
4910,-2.30,-0.38,8.12,0.28,0.19,0.26
4916,0.08,1.57,8.04,0.28,0.19,0.26
4921,0.08,1.57,8.04,0.17,0.10,0.15
4826,-1.72,-0.46,10.03,0.45,-0.03,0.67
4831,-0.73,-1.49,8.46,0.45,-0.03,0.67
4836,-0.73,-1.49,8.46,0.43,-0.09,0.69
4840,-0.73,-1.49,8.46,0.42,-0.12,0.65
4845,-0.73,-1.49,8.46,0.41,-0.12,0.61
4850,-2.11,-1.57,7.21,0.41,-0.12,0.61
4856,-2.11,-1.57,7.21,0.39,-0.10,0.61
4861,-2.11,-1.57,7.21,0.38,-0.04,0.65
4866,-1.19,-2.14,9.65,0.38,-0.04,0.65
4871,-1.19,-2.14,9.65,0.35,-0.06,0.60
4875,-1.19,-2.14,9.65,0.37,-0.10,0.55
4881,2.38,-2.80,13.29,0.37,-0.10,0.55
4886,2.38,-2.80,13.29,0.41,-0.12,0.44
4891,2.38,-2.80,13.29,0.40,-0.06,0.38
4896,2.38,-2.80,13.29,0.39,0.03,0.35
4901,-2.30,-0.38,8.12,0.39,0.03,0.35
