timestamp,accX,accY,accZ,gyroX,gyroY,gyroZ
Break
7,-4.86,-1.76,8.81,0.02,-0.27,0.09
19,-4.86,-1.76,8.81,0.01,-0.29,0.10
20,-1.11,-3.18,12.34,0.01,-0.29,0.10
22,-0.57,-3.56,10.88,0.01,-0.29,0.10
26,-0.57,-3.56,10.88,0.36,0.04,0.36
31,-0.38,-3.26,9.69,0.36,0.04,0.36
36,-0.38,-3.26,9.69,0.35,0.05,0.38
41,-0.38,-3.26,9.69,0.33,0.04,0.39
46,-0.38,-3.26,9.69,0.30,0.03,0.37
52,-1.04,-1.49,7.93,0.30,0.03,0.37
56,-1.04,-1.49,7.93,0.26,0.01,0.30
61,-1.04,-1.49,7.93,0.27,0.02,0.31
67,-1.04,-1.49,7.93,0.27,0.06,0.34
71,-1.04,-1.49,7.93,0.29,0.07,0.38
76,-1.04,-1.49,7.93,0.26,0.08,0.39
81,-1.04,-1.49,7.93,0.26,0.05,0.39
87,-1.30,-0.23,6.86,0.26,0.05,0.39
91,-1.30,-0.23,6.86,0.24,-0.02,0.40
96,-1.30,-0.23,6.86,0.25,-0.05,0.43
102,-1.30,-0.23,6.86,0.24,-0.08,0.45
106,-1.30,-0.23,6.86,0.21,-0.09,0.44
111,-1.30,-0.23,6.86,0.21,-0.07,0.44
116,-1.30,-0.23,6.86,0.22,-0.03,0.43
122,-1.72,-0.57,10.69,0.22,-0.03,0.43
126,-1.72,-0.57,10.69,0.22,0.07,0.40
131,-1.72,-0.57,10.69,0.23,0.12,0.38
137,-1.72,-0.57,10.69,0.21,0.15,0.36
141,-1.72,-0.57,10.69,0.20,0.13,0.34
146,-1.72,-0.57,10.69,0.17,0.06,0.32
152,-1.72,-0.57,10.69,0.16,-0.03,0.29
156,-1.72,-0.57,10.69,0.17,-0.09,0.28
161,-1.72,-0.57,10.69,0.16,-0.13,0.28
166,-1.72,-0.57,10.69,0.16,-0.14,0.29
171,-1.15,-1.19,10.15,0.16,-0.14,0.29
176,-1.15,-1.19,10.15,0.21,-0.02,0.26
181,-1.15,-1.19,10.15,0.19,0.07,0.27
186,-1.15,-1.19,10.15,0.18,0.09,0.28
191,-1.15,-1.19,10.15,0.15,0.07,0.26
196,-1.15,-1.19,10.15,0.10,0.04,0.23
201,-1.15,-1.19,10.15,0.08,-0.03,0.20
206,-1.15,-1.19,10.15,0.05,-0.11,0.18
211,-0.30,0.92,7.89,0.05,-0.11,0.18
217,-0.30,0.92,7.89,0.02,-0.16,0.17
222,-0.30,0.92,7.89,0.02,-0.17,0.15
226,-0.30,0.92,7.89,0.01,-0.16,0.17
231,-0.30,0.92,7.89,0.02,-0.15,0.18
236,-0.30,0.92,7.89,0.04,-0.12,0.18
242,-0.30,0.92,7.89,0.06,-0.08,0.17
246,-0.30,0.92,7.89,0.08,-0.02,0.16
251,-0.30,0.92,7.89,0.09,0.04,0.16
256,-0.30,0.92,7.89,0.08,0.08,0.16
261,-0.30,0.92,7.89,0.07,0.09,0.16
266,-0.30,0.92,7.89,0.05,0.05,0.16
271,-0.30,0.92,7.89,0.06,-0.01,0.16
277,-0.27,0.50,9.54,0.06,-0.01,0.16
281,-0.27,0.50,9.54,0.04,-0.03,0.18
286,-0.27,0.50,9.54,0.02,0.01,0.18
291,-0.27,0.50,9.54,0.01,0.03,0.17
296,-0.27,0.50,9.54,-0.00,0.06,0.15
301,-0.27,0.50,9.54,-0.01,0.06,0.18
306,-0.27,0.50,9.54,-0.01,0.05,0.21
312,-0.27,0.23,8.04,-0.01,0.05,0.21
316,-0.27,0.23,8.04,-0.04,-0.03,0.19
321,-0.27,0.23,8.04,-0.06,-0.06,0.18
326,-0.27,0.23,8.04,-0.05,-0.07,0.19
331,-0.27,0.23,8.04,-0.05,-0.05,0.21
336,-0.27,0.23,8.04,-0.05,-0.01,0.23
341,-0.27,0.23,8.04,-0.04,0.01,0.22
347,-1.95,0.08,8.23,-0.04,0.01,0.22
351,-1.95,0.08,8.23,-0.03,0.06,0.21
356,-1.95,0.08,8.23,-0.01,0.04,0.23
361,-1.95,0.08,8.23,-0.02,0.01,0.24
366,-1.95,0.08,8.23,-0.02,0.00,0.22
371,-1.95,0.08,8.23,-0.03,-0.01,0.21
376,-1.95,0.08,8.23,-0.02,0.00,0.20
382,-1.42,-1.30,10.88,-0.02,0.00,0.20
386,-1.42,-1.30,10.88,-0.02,0.03,0.20
392,-1.42,-1.30,10.88,-0.01,0.03,0.19
396,-1.42,-1.30,10.88,-0.01,0.02,0.18
401,-1.42,-1.30,10.88,-0.01,0.00,0.18
406,-1.42,-1.30,10.88,-0.02,-0.02,0.18
411,-1.42,-1.30,10.88,-0.03,-0.04,0.17
416,-1.42,-1.30,10.88,-0.05,-0.06,0.15
421,-1.42,-1.30,10.88,-0.06,-0.07,0.14
426,-1.42,-1.30,10.88,-0.05,-0.07,0.13
432,-0.23,0.15,11.19,-0.05,-0.07,0.13
436,-0.23,0.15,11.19,-0.06,0.00,0.13
441,-0.23,0.15,11.19,-0.06,0.04,0.10
446,-0.23,0.15,11.19,-0.07,0.07,0.09
451,-0.23,0.15,11.19,-0.06,0.10,0.06
456,-0.23,0.15,11.19,-0.08,0.10,0.04
461,-0.23,0.15,11.19,-0.08,0.09,0.04
467,-0.04,-0.54,7.05,-0.08,0.09,0.04
471,-0.04,-0.54,7.05,-0.12,0.06,0.05
476,-0.04,-0.54,7.05,-0.14,0.07,0.02
481,-0.04,-0.54,7.05,-0.16,0.06,-0.00
486,-0.04,-0.54,7.05,-0.17,0.04,-0.03
491,-0.04,-0.54,7.05,-0.16,0.02,-0.05
496,-0.04,-0.54,7.05,-0.15,0.00,-0.04
502,-0.11,1.07,9.50,-0.15,0.00,-0.04
506,-0.11,1.07,9.50,-0.14,-0.06,-0.04
511,-0.11,1.07,9.50,-0.16,-0.09,-0.05
516,-0.11,1.07,9.50,-0.17,-0.13,-0.07
522,2.64,0.04,10.84,-0.17,-0.13,-0.07
526,2.64,0.04,10.84,-0.15,-0.13,-0.12
531,2.64,0.04,10.84,-0.15,-0.09,-0.13
537,1.65,-1.15,11.15,-0.15,-0.09,-0.13
541,1.65,-1.15,11.15,-0.12,0.07,-0.12
546,1.65,-1.15,11.15,-0.12,0.14,-0.13
551,1.65,-1.15,11.15,-0.13,0.20,-0.16
556,1.65,-1.15,11.15,-0.15,0.22,-0.18
561,1.65,-1.15,11.15,-0.17,0.22,-0.19
566,1.65,-1.15,11.15,-0.20,0.18,-0.19
572,0.46,-0.77,8.36,-0.20,0.18,-0.19
576,0.46,-0.77,8.36,-0.20,0.04,-0.18
581,0.46,-0.77,8.36,-0.18,-0.04,-0.15
587,0.46,-0.77,8.36,-0.17,-0.06,-0.13
592,1.19,-1.27,10.50,-0.17,-0.06,-0.13
596,1.19,-1.27,10.50,-0.15,-0.09,-0.13
601,1.19,-1.27,10.50,-0.12,-0.06,-0.14
607,-1.00,-1.34,9.08,-0.12,-0.06,-0.14
611,-1.00,-1.34,9.08,-0.05,0.04,-0.12
616,-1.00,-1.34,9.08,-0.06,0.08,-0.08
622,-1.00,-1.34,9.08,-0.08,0.08,-0.08
626,-1.00,-1.34,9.08,-0.09,0.06,-0.12
632,-1.00,-1.34,9.08,-0.10,0.02,-0.15
636,-1.00,-1.34,9.08,-0.10,-0.01,-0.19
642,-2.45,-0.11,10.00,-0.10,-0.01,-0.19
646,-2.45,-0.11,10.00,-0.09,0.03,-0.21
651,-2.45,-0.11,10.00,-0.08,0.05,-0.19
657,-2.45,-0.11,10.00,-0.07,0.09,-0.17
661,-2.45,-0.11,10.00,-0.07,0.09,-0.17
666,-2.45,-0.11,10.00,-0.09,0.05,-0.17
671,-2.45,-0.11,10.00,-0.11,-0.01,-0.17
677,2.07,-1.57,10.61,-0.11,-0.01,-0.17
681,2.07,-1.57,10.61,-0.08,-0.08,-0.15
686,2.07,-1.57,10.61,-0.06,-0.03,-0.12
692,-2.38,-0.30,9.12,-0.06,-0.03,-0.12
696,-2.38,-0.30,9.12,-0.09,0.11,-0.03
701,-2.38,-0.30,9.12,-0.12,0.11,-0.01
706,-2.38,-0.30,9.12,-0.14,0.05,-0.02
712,0.15,-0.73,8.35,-0.14,0.05,-0.02
716,0.15,-0.73,8.35,-0.12,-0.08,0.01
721,0.15,-0.73,8.35,-0.11,-0.14,0.07
727,2.30,-2.61,11.34,-0.11,-0.14,0.07
731,2.30,-2.61,11.34,-0.06,-0.16,0.11
736,2.30,-2.61,11.34,-0.03,-0.10,0.11
742,2.30,-2.61,11.34,0.01,0.01,0.12
747,-1.95,-1.38,11.15,0.01,0.01,0.12
751,-1.95,-1.38,11.15,0.07,0.21,0.16
756,-1.95,-1.38,11.15,0.07,0.26,0.15
762,-2.64,-0.19,8.39,0.07,0.26,0.15
766,-2.64,-0.19,8.39,0.02,0.19,0.08
772,-2.64,-0.19,8.39,-0.01,0.07,0.04
776,-2.64,-0.19,8.39,-0.02,-0.05,0.02
782,0.19,-1.00,8.20,-0.02,-0.05,0.02
786,0.19,-1.00,8.20,-0.05,-0.16,0.03
791,0.19,-1.00,8.20,-0.04,-0.13,0.02
797,0.50,-0.54,8.12,-0.04,-0.13,0.02
801,0.50,-0.54,8.12,-0.02,-0.05,0.05
806,0.50,-0.54,8.12,-0.01,-0.03,0.05
811,0.50,-0.54,8.12,-0.02,-0.03,0.04
817,1.15,-0.04,10.69,-0.02,-0.03,0.04
821,1.15,-0.04,10.69,-0.03,-0.01,-0.01
826,1.15,-0.04,10.69,-0.01,0.04,-0.02
832,-0.38,-0.84,10.99,-0.01,0.04,-0.02
836,-0.38,-0.84,10.99,0.02,0.13,0.03
841,-0.38,-0.84,10.99,0.02,0.15,0.03
847,-0.38,-0.84,10.99,0.03,0.13,0.01
851,-0.38,-0.84,10.99,0.01,0.07,-0.00
856,-0.38,-0.84,10.99,-0.01,-0.01,-0.04
861,-0.38,-0.84,10.99,-0.01,-0.07,-0.05
867,0.30,0.15,7.97,-0.01,-0.07,-0.05
871,0.30,0.15,7.97,-0.06,-0.11,-0.08
876,0.30,0.15,7.97,-0.09,-0.11,-0.10
882,0.30,0.15,7.97,-0.11,-0.11,-0.12
886,0.30,0.15,7.97,-0.12,-0.08,-0.14
892,0.30,0.15,7.97,-0.12,-0.03,-0.16
896,0.30,0.15,7.97,-0.11,0.04,-0.18
902,0.65,-0.46,10.49,-0.11,0.04,-0.18
906,0.65,-0.46,10.49,-0.06,0.09,-0.20
911,0.65,-0.46,10.49,-0.05,0.09,-0.20
917,0.65,-0.46,10.49,-0.04,0.09,-0.20
921,0.65,-0.46,10.49,-0.05,0.10,-0.21
926,0.65,-0.46,10.49,-0.06,0.10,-0.24
931,0.65,-0.46,10.49,-0.09,0.10,-0.27
937,0.96,1.04,8.70,-0.09,0.10,-0.27
941,0.96,1.04,8.70,-0.11,0.09,-0.31
946,0.96,1.04,8.70,-0.12,0.08,-0.33
952,0.46,1.30,8.96,-0.12,0.08,-0.33
956,0.46,1.30,8.96,-0.12,0.03,-0.34
961,0.46,1.30,8.96,-0.13,0.00,-0.35
966,0.46,1.30,8.96,-0.13,-0.01,-0.36
972,0.61,0.80,10.19,-0.13,-0.01,-0.36
976,0.61,0.80,10.19,-0.12,0.01,-0.36
981,0.61,0.80,10.19,-0.10,0.04,-0.36
987,0.54,0.00,9.20,-0.10,0.04,-0.36
991,0.54,0.00,9.20,-0.07,0.01,-0.35
996,0.54,0.00,9.20,-0.06,-0.02,-0.34
1001,0.54,0.00,9.20,-0.08,-0.05,-0.35
1007,2.76,0.42,9.77,-0.08,-0.05,-0.35
1011,2.76,0.42,9.77,-0.10,-0.06,-0.38
1016,2.76,0.42,9.77,-0.11,-0.04,-0.38
1022,1.76,-0.11,9.85,-0.11,-0.04,-0.38
1026,1.76,-0.11,9.85,-0.12,0.00,-0.37
1031,1.76,-0.11,9.85,-0.10,0.00,-0.37
1036,1.76,-0.11,9.85,-0.09,0.02,-0.38
1042,1.23,-1.11,10.19,-0.09,0.02,-0.38
1046,1.23,-1.11,10.19,-0.03,0.08,-0.35
1051,1.23,-1.11,10.19,-0.01,0.08,-0.32
1057,0.69,-0.80,9.65,-0.01,0.08,-0.32
1061,0.69,-0.80,9.65,0.01,0.09,-0.30
1066,0.69,-0.80,9.65,0.02,0.09,-0.30
1071,0.69,-0.80,9.65,0.03,0.08,-0.29
1077,0.61,-0.04,8.12,0.03,0.08,-0.29
1081,0.61,-0.04,8.12,0.02,0.01,-0.23
1086,0.61,-0.04,8.12,0.01,-0.03,-0.21
1092,2.72,-0.92,9.65,0.01,-0.03,-0.21
1096,2.72,-0.92,9.65,-0.03,-0.09,-0.20
1101,2.72,-0.92,9.65,-0.00,-0.05,-0.18
1107,2.72,-0.92,9.65,0.02,-0.01,-0.15
1111,2.72,-0.92,9.65,0.05,0.04,-0.13
1116,2.72,-0.92,9.65,0.07,0.05,-0.11
1122,2.72,-0.92,9.65,0.09,0.04,-0.10
1127,1.04,-1.99,9.77,0.09,0.04,-0.10
1131,1.04,-1.99,9.77,0.06,-0.07,-0.06
1136,1.04,-1.99,9.77,0.06,-0.14,-0.02
1142,1.04,-1.99,9.77,0.06,-0.18,0.02
1146,1.04,-1.99,9.77,0.06,-0.17,0.06
1151,1.04,-1.99,9.77,0.10,-0.11,0.09
1156,1.04,-1.99,9.77,0.15,0.01,0.13
1162,-1.49,-1.76,9.50,0.15,0.01,0.13
1166,-1.49,-1.76,9.50,0.21,0.18,0.13
1171,-1.49,-1.76,9.50,0.21,0.16,0.13
1177,0.19,-1.00,8.54,0.21,0.16,0.13
1181,0.19,-1.00,8.54,0.16,0.01,0.19
1186,0.19,-1.00,8.54,0.14,-0.07,0.22
1191,0.19,-1.00,8.54,0.11,-0.14,0.25
1197,1.42,-0.57,8.88,0.11,-0.14,0.25
1201,1.42,-0.57,8.88,0.07,-0.18,0.25
1206,1.42,-0.57,8.88,0.08,-0.16,0.24
1212,-0.96,-2.38,11.07,0.08,-0.16,0.24
1216,-0.96,-2.38,11.07,0.12,-0.05,0.29
1221,-0.96,-2.38,11.07,0.15,-0.01,0.32
1226,-0.96,-2.38,11.07,0.18,0.01,0.33
1231,-0.11,-2.38,9.31,0.18,0.01,0.33
1236,-0.11,-2.38,9.31,0.20,-0.04,0.35
1241,-0.11,-2.38,9.31,0.20,-0.10,0.38
1247,2.11,-2.53,9.00,0.20,-0.10,0.38
1251,2.11,-2.53,9.00,0.18,-0.16,0.43
1256,2.11,-2.53,9.00,0.18,-0.14,0.43
1261,2.11,-2.53,9.00,0.19,-0.09,0.42
1267,-1.68,-1.34,9.50,0.19,-0.09,0.42
1271,-1.68,-1.34,9.50,0.19,0.04,0.40
1276,-1.68,-1.34,9.50,0.19,0.07,0.40
1282,-1.68,-1.34,9.50,0.18,0.04,0.41
1286,-1.68,-1.34,9.50,0.15,0.00,0.42
1291,-1.68,-1.34,9.50,0.12,-0.07,0.41
1296,-1.68,-1.34,9.50,0.09,-0.13,0.37
1302,1.07,-1.30,9.16,0.09,-0.13,0.37
1306,1.07,-1.30,9.16,0.09,-0.17,0.32
1311,1.07,-1.30,9.16,0.11,-0.13,0.33
1317,1.23,-2.38,10.92,0.11,-0.13,0.33
1321,1.23,-2.38,10.92,0.13,-0.03,0.36
1326,1.23,-2.38,10.92,0.12,0.03,0.34
1332,-0.80,-0.04,10.31,0.12,0.03,0.34
1336,-0.80,-0.04,10.31,0.12,0.10,0.30
1341,-0.80,-0.04,10.31,0.11,0.11,0.30
1346,-0.80,-0.04,10.31,0.08,0.09,0.30
1352,-0.11,0.15,8.01,0.08,0.09,0.30
1356,-0.11,0.15,8.01,0.03,-0.03,0.27
1361,-0.11,0.15,8.01,0.02,-0.10,0.26
1367,0.84,-0.38,9.12,0.02,-0.10,0.26
1371,0.84,-0.38,9.12,0.01,-0.14,0.30
1376,0.84,-0.38,9.12,-0.00,-0.14,0.32
1381,0.84,-0.38,9.12,-0.00,-0.13,0.32
1387,2.95,-0.73,11.53,-0.00,-0.13,0.32
1391,2.95,-0.73,11.53,-0.00,-0.05,0.32
1396,2.95,-0.73,11.53,0.01,0.04,0.31
1402,2.95,-0.73,11.53,0.03,0.12,0.28
1406,2.95,-0.73,11.53,0.05,0.18,0.24
1411,2.95,-0.73,11.53,0.04,0.18,0.23
1416,2.95,-0.73,11.53,0.03,0.14,0.23
1422,1.53,-0.69,8.92,0.03,0.14,0.23
1426,1.53,-0.69,8.92,-0.04,-0.03,0.21
1431,1.53,-0.69,8.92,-0.06,-0.09,0.17
1437,1.42,0.50,8.08,-0.06,-0.09,0.17
1441,1.42,0.50,8.08,-0.11,-0.11,0.07
1446,1.42,0.50,8.08,-0.10,-0.07,0.04
1451,1.42,0.50,8.08,-0.10,-0.04,0.01
1457,1.30,-0.11,9.73,-0.10,-0.04,0.01
1461,1.30,-0.11,9.73,-0.10,0.02,-0.02
1467,1.30,-0.11,9.73,-0.09,0.07,-0.05
1472,0.50,0.57,9.50,-0.09,0.07,-0.05
1476,0.50,0.57,9.50,-0.10,0.11,-0.11
1481,0.50,0.57,9.50,-0.10,0.09,-0.13
1486,0.50,0.57,9.50,-0.09,0.07,-0.14
1491,0.04,-0.38,9.16,-0.09,0.07,-0.14
1496,0.04,-0.38,9.16,-0.09,0.03,-0.17
1501,0.04,-0.38,9.16,-0.11,-0.01,-0.19
1507,0.34,-0.08,9.77,-0.11,-0.01,-0.19
1511,0.34,-0.08,9.77,-0.12,-0.04,-0.19
1516,0.34,-0.08,9.77,-0.11,-0.03,-0.20
1522,0.34,-0.08,9.77,-0.12,-0.03,-0.21
1526,0.34,-0.08,9.77,-0.12,-0.02,-0.24
1531,0.34,-0.08,9.77,-0.12,-0.02,-0.25
1536,0.34,-0.08,9.77,-0.12,0.02,-0.25
1542,0.34,-0.08,9.77,-0.12,0.06,-0.26
1546,0.34,-0.08,9.77,-0.13,0.09,-0.27
1551,0.34,-0.08,9.77,-0.12,0.10,-0.26
1556,-0.11,-0.42,9.88,-0.12,0.10,-0.26
1562,-0.73,0.57,8.96,-0.12,0.10,-0.26
1566,-0.73,0.57,8.96,-0.07,0.11,-0.21
1571,-0.73,0.57,8.96,-0.09,0.06,-0.19
1577,2.45,-0.04,10.92,-0.09,0.06,-0.19
1581,2.45,-0.04,10.92,-0.12,-0.07,-0.15
1586,2.45,-0.04,10.92,-0.12,-0.09,-0.13
1592,1.38,-0.73,8.70,-0.12,-0.09,-0.13
1596,1.38,-0.73,8.70,-0.09,-0.08,-0.08
1601,1.38,-0.73,8.70,-0.06,-0.06,-0.05
1606,1.38,-0.73,8.70,-0.02,-0.03,-0.02
1612,0.30,-0.15,9.43,-0.02,-0.03,-0.02
1616,0.30,-0.15,9.43,-0.00,0.06,0.03
1621,0.30,-0.15,9.43,-0.00,0.10,0.02
1627,-1.07,-0.34,10.07,-0.00,0.10,0.02
1631,-1.07,-0.34,10.07,-0.03,0.09,-0.03
1636,-1.07,-0.34,10.07,-0.04,0.04,-0.01
1642,-1.07,-0.34,10.07,-0.05,-0.03,0.02
1646,-1.07,-0.34,10.07,-0.06,-0.10,0.05
1651,-1.07,-0.34,10.07,-0.07,-0.15,0.04
1656,-1.07,-0.34,10.07,-0.07,-0.19,0.03
1662,-1.07,-0.34,10.07,-0.07,-0.17,0.01
1666,-1.07,-0.34,10.07,-0.04,-0.11,0.03
1671,-1.07,-0.34,10.07,-0.02,-0.04,0.05
1676,-1.07,-0.34,10.07,-0.00,0.04,0.07
1682,-0.23,-0.80,12.06,-0.00,0.04,0.07
1686,-0.23,-0.80,12.06,0.00,0.14,0.07
1691,-0.23,-0.80,12.06,-0.00,0.12,0.06
1697,2.14,-1.95,9.12,-0.00,0.12,0.06
1701,2.14,-1.95,9.12,0.01,0.01,0.08
1706,2.14,-1.95,9.12,0.02,-0.02,0.10
1712,2.14,-1.95,9.12,0.03,-0.03,0.11
1716,2.14,-1.95,9.12,0.03,-0.02,0.10
1721,2.14,-1.95,9.12,0.02,-0.03,0.07
1726,2.14,-1.95,9.12,0.02,-0.02,0.06
1732,-0.15,-1.15,9.77,0.02,-0.02,0.06
1736,-0.15,-1.15,9.77,-0.01,-0.02,0.02
1741,-0.15,-1.15,9.77,-0.01,-0.02,-0.00
1747,-0.15,-1.15,9.77,-0.02,-0.03,-0.02
1751,-0.15,-1.15,9.77,-0.03,-0.05,-0.03
1756,-0.15,-1.15,9.77,-0.02,-0.08,-0.02
1761,-0.15,-1.15,9.77,-0.02,-0.08,-0.02
1767,1.95,-1.88,10.96,-0.02,-0.08,-0.02
1771,1.95,-1.88,10.96,0.00,-0.05,0.00
1776,1.95,-1.88,10.96,0.01,-0.00,0.02
1782,1.95,-1.88,10.96,0.03,0.07,0.03
1786,1.95,-1.88,10.96,0.04,0.10,0.03
1791,1.95,-1.88,10.96,0.05,0.12,0.03
1796,1.95,-1.88,10.96,0.06,0.12,0.04
1802,1.95,-1.88,10.96,0.07,0.09,0.05
1806,1.95,-1.88,10.96,0.05,0.03,0.06
1811,1.95,-1.88,10.96,0.04,-0.03,0.08
1816,0.50,-0.04,9.85,0.04,-0.03,0.08
1821,1.11,-0.50,10.34,0.04,-0.03,0.08
1826,1.11,-0.50,10.34,0.02,-0.05,0.10
1832,1.11,-0.50,10.34,0.01,-0.04,0.10
1836,1.11,-0.50,10.34,0.03,-0.02,0.10
1841,1.11,-0.50,10.34,0.04,-0.01,0.11
1846,1.11,-0.50,10.34,0.07,-0.01,0.13
1851,0.27,-0.38,9.73,0.07,-0.01,0.13
1856,0.27,-0.38,9.73,0.08,-0.00,0.16
1861,0.27,-0.38,9.73,0.06,-0.00,0.16
1866,0.27,-0.38,9.73,0.05,-0.01,0.15
1871,0.27,-0.38,9.73,0.03,-0.04,0.15
1876,0.27,-0.38,9.73,0.02,-0.05,0.16
1881,0.27,-0.38,9.73,0.03,-0.06,0.17
1887,1.49,-0.77,9.89,0.03,-0.06,0.17
1891,1.49,-0.77,9.89,0.03,-0.04,0.18
1896,1.49,-0.77,9.89,0.03,0.00,0.18
1901,1.49,-0.77,9.89,0.03,0.07,0.17
1906,1.49,-0.77,9.89,0.04,0.11,0.16
1911,1.49,-0.77,9.89,0.03,0.12,0.15
1916,1.49,-0.77,9.89,0.04,0.10,0.16
1921,1.49,-0.77,9.89,0.04,0.07,0.18
1926,1.49,-0.77,9.89,0.03,0.03,0.20
1931,1.49,-0.77,9.89,0.03,0.00,0.21
1936,1.49,-0.77,9.89,0.01,-0.04,0.21
1941,0.04,-0.96,8.28,0.01,-0.04,0.21
1946,0.04,-0.96,8.28,0.00,-0.16,0.21
1951,0.04,-0.96,8.28,-0.01,-0.21,0.23
1956,1.19,-0.42,10.19,-0.01,-0.21,0.23
1961,1.19,-0.42,10.19,-0.02,-0.18,0.26
1966,1.19,-0.42,10.19,-0.04,-0.13,0.25
1971,1.19,-0.42,10.19,-0.02,-0.04,0.23
1976,1.19,-0.42,10.19,-0.01,0.02,0.23
1981,1.19,-0.42,10.19,0.01,0.08,0.25
1986,1.19,-0.42,10.19,0.01,0.11,0.27
1991,0.65,-0.80,11.00,0.01,0.11,0.27
1996,0.65,-0.80,11.00,0.02,0.17,0.26
2001,0.65,-0.80,11.00,0.02,0.20,0.25
2006,0.65,-0.80,11.00,0.04,0.20,0.24
2011,0.65,-0.80,11.00,0.03,0.18,0.24
2016,0.65,-0.80,11.00,-0.00,0.12,0.24
2021,0.65,-0.80,11.00,-0.03,0.04,0.24
2027,1.42,-0.57,8.46,-0.03,0.04,0.24
2031,1.42,-0.57,8.46,-0.08,-0.15,0.24
2036,1.42,-0.57,8.46,-0.10,-0.21,0.23
2041,1.42,-0.57,8.46,-0.12,-0.24,0.22
2046,1.42,-0.57,8.46,-0.13,-0.21,0.22
2051,1.42,-0.57,8.46,-0.11,-0.17,0.22
2056,1.42,-0.57,8.46,-0.10,-0.11,0.22
2061,1.42,-0.57,8.46,-0.08,-0.02,0.20
2066,1.42,-0.57,8.46,-0.08,0.05,0.18
2071,1.42,-0.57,8.46,-0.07,0.11,0.15
2076,1.42,-0.57,8.46,-0.06,0.14,0.12
2081,-0.23,-0.65,9.23,-0.06,0.14,0.12
2086,-0.23,-0.65,9.23,-0.06,0.12,0.13
2091,-0.23,-0.65,9.23,-0.07,0.07,0.13
2096,-0.23,-0.65,9.23,-0.09,0.01,0.12
2101,-0.23,-0.65,9.23,-0.10,-0.03,0.10
2106,-0.23,-0.65,9.23,-0.10,-0.04,0.08
2112,0.38,-0.23,9.54,-0.10,-0.04,0.08
2116,0.38,-0.23,9.54,-0.11,0.02,0.06
2121,1.30,-0.96,10.42,-0.11,0.02,0.06
2126,1.30,-0.96,10.42,-0.11,0.06,0.06
2131,1.30,-0.96,10.42,-0.12,0.06,0.06
2136,-0.23,-0.38,9.54,-0.12,0.06,0.06
2141,-0.23,-0.38,9.54,-0.11,0.06,0.05
2146,0.54,-1.00,9.20,-0.11,0.06,0.05
2151,0.54,-1.00,9.20,-0.12,0.01,0.05
2156,0.54,-1.00,9.20,-0.13,-0.02,0.04
2162,0.54,-1.00,9.20,-0.14,-0.04,0.03
2167,0.54,-1.00,9.20,-0.14,-0.04,0.01
2171,0.46,-0.77,9.69,-0.14,-0.04,0.01
2176,0.96,-1.34,9.61,-0.14,-0.04,0.01
2181,0.96,-1.34,9.61,-0.15,-0.00,0.00
2186,0.96,-1.34,9.61,-0.15,-0.01,0.00
2191,0.96,-1.34,9.61,-0.16,-0.01,-0.01
2196,0.96,-1.34,9.61,-0.15,0.00,-0.02
2202,0.96,-1.34,9.61,-0.14,0.02,-0.02
2206,0.96,-1.34,9.61,-0.13,0.05,-0.01
2211,0.80,-0.30,10.39,-0.13,0.05,-0.01
2216,0.80,-0.30,10.39,-0.15,0.09,-0.02
2221,0.80,-0.30,10.39,-0.15,0.10,-0.03
2226,0.80,-0.30,10.39,-0.15,0.11,-0.04
2232,0.80,-0.30,10.39,-0.16,0.10,-0.04
2237,0.80,-0.30,10.39,-0.17,0.07,-0.04
2241,1.61,-0.96,8.93,-0.17,0.07,-0.04
2246,1.46,-0.08,9.42,-0.17,0.07,-0.04
2252,1.46,-0.08,9.42,-0.19,-0.04,-0.08
2256,0.96,1.00,9.04,-0.19,-0.04,-0.08
2261,0.77,0.92,8.82,-0.19,-0.04,-0.08
2267,0.77,0.92,8.82,-0.19,0.01,-0.12
2271,0.77,0.92,8.82,-0.21,0.03,-0.15
2276,0.84,0.30,9.81,-0.21,0.03,-0.15
2281,0.88,0.11,9.69,-0.21,0.03,-0.15
2286,0.88,0.11,9.69,-0.22,0.07,-0.26
2291,0.88,0.11,9.69,-0.23,0.05,-0.27
2296,0.88,0.11,9.69,-0.24,0.04,-0.29
2302,0.88,0.11,9.69,-0.25,0.02,-0.31
2307,0.88,0.11,9.69,-0.25,0.01,-0.35
2311,1.80,0.15,9.77,-0.25,0.01,-0.35
2316,1.57,0.54,9.85,-0.25,0.01,-0.35
2322,1.57,0.54,9.85,-0.27,0.03,-0.45
2327,1.57,0.54,9.85,-0.28,0.07,-0.47
2331,-0.27,-0.38,9.39,-0.28,0.07,-0.47
2336,-0.34,-0.42,10.31,-0.28,0.07,-0.47
2341,-0.34,-0.42,10.31,-0.26,0.17,-0.52
2346,-0.34,-0.42,10.31,-0.25,0.15,-0.53
2351,-0.34,-0.42,10.31,-0.26,0.11,-0.54
2357,-0.34,-0.42,10.31,-0.25,0.06,-0.55
2361,2.03,0.08,10.46,-0.25,0.06,-0.55
2366,1.42,-0.65,9.89,-0.25,0.06,-0.55
2371,1.42,-0.65,9.89,-0.29,-0.05,-0.58
2376,1.00,-0.92,9.50,-0.29,-0.05,-0.58
2381,1.19,-1.72,9.04,-0.29,-0.05,-0.58
2387,1.19,-1.72,9.04,-0.25,0.02,-0.59
2391,1.19,-1.72,9.04,-0.23,0.05,-0.60
2396,0.46,-1.46,8.85,-0.23,0.05,-0.60
2402,0.46,-1.46,8.85,-0.21,0.10,-0.61
2407,0.46,-1.46,8.85,-0.20,0.11,-0.63
2411,-1.04,-1.27,9.23,-0.20,0.11,-0.63
2416,-0.80,-1.65,8.70,-0.20,0.11,-0.63
2421,-0.80,-1.65,8.70,-0.19,0.07,-0.64
2426,-0.80,-1.65,8.70,-0.19,0.04,-0.64
2431,0.50,-1.27,8.46,-0.19,0.04,-0.64
2438,0.50,-1.27,8.46,-0.17,-0.04,-0.62
2442,1.57,-1.57,9.35,-0.17,-0.04,-0.62
2446,1.57,-1.57,9.35,-0.16,-0.04,-0.59
2451,1.68,-0.84,10.46,-0.16,-0.04,-0.59
2456,1.68,-0.84,10.46,-0.15,-0.00,-0.58
2462,1.68,-0.84,10.46,-0.14,0.05,-0.57
2467,1.68,-0.84,10.46,-0.12,0.11,-0.58
2471,-0.27,-2.22,10.99,-0.12,0.11,-0.58
2476,-0.08,-2.18,10.42,-0.12,0.11,-0.58
2481,0.61,-2.34,10.27,-0.12,0.11,-0.58
2486,0.61,-2.34,10.27,-0.09,0.12,-0.52
2492,0.61,-2.34,10.27,-0.09,0.08,-0.51
2496,0.61,-3.07,8.66,-0.09,0.08,-0.51
2501,0.04,-3.07,7.86,-0.09,0.08,-0.51
2507,0.04,-3.07,7.86,-0.02,-0.01,-0.43
2511,0.04,-3.07,7.86,0.02,0.00,-0.39
2516,-0.23,-1.61,9.65,0.02,0.00,-0.39
2521,-0.27,-1.88,9.85,0.02,0.00,-0.39
2527,-0.27,-1.88,9.85,0.03,0.04,-0.33
2531,-0.27,-1.88,9.85,0.03,0.05,-0.33
2536,0.57,-2.14,9.30,0.03,0.05,-0.33
2541,0.92,-1.57,9.20,0.03,0.05,-0.33
2546,0.11,-1.68,8.54,0.03,0.05,-0.33
2551,0.11,-1.68,8.54,0.05,0.01,-0.25
2556,0.11,-1.68,8.54,0.07,0.00,-0.23
2562,0.11,-1.68,8.54,0.08,-0.00,-0.21
2566,-0.46,-1.91,9.81,0.08,-0.00,-0.21
2571,0.42,-1.04,9.84,0.08,-0.00,-0.21
2576,0.42,-1.04,9.84,0.12,0.02,-0.15
2581,0.42,-1.04,9.84,0.11,0.04,-0.14
2587,0.42,-1.04,9.84,0.11,0.04,-0.15
2591,0.46,-0.54,9.27,0.11,0.04,-0.15
2596,0.00,-0.80,9.54,0.11,0.04,-0.15
2601,-0.23,-1.38,9.65,0.11,0.04,-0.15
2606,-0.23,-1.38,9.65,0.10,-0.00,-0.11
2611,-0.23,-1.38,9.65,0.10,-0.01,-0.11
2616,-0.23,-1.38,9.65,0.10,-0.02,-0.11
2621,0.96,-0.38,9.85,0.10,-0.02,-0.11
2626,0.88,-0.57,10.04,0.10,-0.02,-0.11
2631,0.88,-0.57,10.04,0.09,-0.02,-0.12
2636,0.50,0.08,9.73,0.09,-0.02,-0.12
2641,0.50,0.08,9.73,0.09,0.03,-0.14
2646,0.50,0.08,9.73,0.08,0.05,-0.15
2652,0.50,0.08,9.73,0.07,0.05,-0.15
2656,-0.23,-0.27,9.46,0.07,0.05,-0.15
2661,-0.27,0.00,9.61,0.07,0.05,-0.15
2666,-0.27,0.00,9.61,0.04,0.03,-0.17
2671,0.42,0.15,9.43,0.04,0.03,-0.17
2676,0.42,0.73,9.27,0.04,0.03,-0.17
2681,0.42,0.00,9.31,0.04,0.03,-0.17
2686,0.11,0.00,8.42,0.04,0.03,-0.17
2691,-0.19,-0.27,8.16,0.04,0.03,-0.17
2696,-0.19,-0.27,8.16,0.04,0.00,-0.19
2702,-0.19,-0.27,8.16,0.04,-0.01,-0.19
2706,0.27,0.15,9.77,0.04,-0.01,-0.19
2711,0.27,0.15,9.77,0.01,-0.02,-0.23
2716,0.34,0.30,10.11,0.01,-0.02,-0.23
2721,0.73,0.15,9.65,0.01,-0.02,-0.23
2726,1.42,-0.54,9.96,0.01,-0.02,-0.23
2731,1.68,-0.08,9.81,0.01,-0.02,-0.23
2736,1.68,-0.08,9.81,-0.01,-0.05,-0.28
2741,1.23,-0.23,10.46,-0.01,-0.05,-0.28
2746,1.27,0.00,10.92,-0.01,-0.05,-0.28
2751,1.23,-0.30,10.77,-0.01,-0.05,-0.28
2756,0.38,-0.42,10.96,-0.01,-0.05,-0.28
2761,0.61,0.23,10.61,-0.01,-0.05,-0.28
2767,0.61,0.23,10.61,-0.02,0.13,-0.39
2771,0.61,0.23,10.61,-0.02,0.15,-0.40
2776,-0.15,0.30,8.96,-0.02,0.15,-0.40
2781,0.57,0.34,8.62,-0.02,0.15,-0.40
2786,0.69,0.54,8.50,-0.02,0.15,-0.40
2791,1.00,0.54,9.23,-0.02,0.15,-0.40
2796,1.11,1.00,9.54,-0.02,0.15,-0.40
2801,-0.27,0.69,9.34,-0.02,0.15,-0.40
2806,-0.27,0.69,9.34,-0.09,0.03,-0.48
2811,-0.27,0.69,9.34,-0.09,0.06,-0.50
2816,-0.96,0.00,8.96,-0.09,0.06,-0.50
2821,-0.50,0.15,8.70,-0.09,0.06,-0.50
2826,0.61,0.65,8.96,-0.09,0.06,-0.50
2831,1.46,-0.04,8.78,-0.09,0.06,-0.50
2837,1.72,0.11,9.00,-0.09,0.06,-0.50
2841,1.34,-0.11,9.54,-0.09,0.06,-0.50
2846,1.11,-0.30,9.89,-0.09,0.06,-0.50
2851,0.77,-0.73,9.81,-0.09,0.06,-0.50
2856,0.00,0.15,10.11,-0.09,0.06,-0.50
2861,-0.27,0.15,10.95,-0.09,0.06,-0.50
2866,0.46,-0.11,10.35,-0.09,0.06,-0.50
2871,0.46,0.27,10.15,-0.09,0.06,-0.50
2876,0.92,0.54,9.69,-0.09,0.06,-0.50
2881,0.50,0.23,9.81,-0.09,0.06,-0.50
2886,1.07,0.50,9.00,-0.09,0.06,-0.50
2891,0.96,0.73,9.30,-0.09,0.06,-0.50
2896,0.69,1.04,9.46,-0.09,0.06,-0.50
2901,0.69,1.04,9.46,-0.13,0.02,-0.58
2906,0.65,0.96,9.96,-0.13,0.02,-0.58
2911,0.96,1.65,9.81,-0.13,0.02,-0.58
2917,0.96,1.65,9.81,-0.15,0.05,-0.57
2922,0.38,1.61,9.12,-0.15,0.05,-0.57
2926,0.08,1.30,8.77,-0.15,0.05,-0.57
2931,-0.50,0.73,8.35,-0.15,0.05,-0.57
2936,-0.46,0.65,8.01,-0.15,0.05,-0.57
2941,-0.73,0.54,8.42,-0.15,0.05,-0.57
2946,-0.04,0.65,9.65,-0.15,0.05,-0.57
2951,-0.11,0.84,9.92,-0.15,0.05,-0.57
2956,0.11,1.07,9.65,-0.15,0.05,-0.57
2961,0.23,1.61,9.39,-0.15,0.05,-0.57
2966,0.30,0.92,8.96,-0.15,0.05,-0.57
2971,0.30,0.92,8.96,-0.16,-0.02,-0.49
2976,0.30,0.92,8.96,-0.15,-0.03,-0.50
2981,0.69,-0.69,10.07,-0.15,-0.03,-0.50
2986,0.50,-0.42,10.50,-0.15,-0.03,-0.50
2991,1.04,-0.80,10.46,-0.15,-0.03,-0.50
2996,0.77,-0.92,10.34,-0.15,-0.03,-0.50
3001,0.57,-1.46,9.88,-0.15,-0.03,-0.50
3006,0.46,-1.19,9.39,-0.15,-0.03,-0.50
3011,0.34,-2.22,9.00,-0.15,-0.03,-0.50
3016,1.19,-2.30,8.70,-0.15,-0.03,-0.50
3021,0.61,-2.22,9.39,-0.15,-0.03,-0.50
3026,0.65,-2.38,9.04,-0.15,-0.03,-0.50
3031,0.50,-2.68,9.89,-0.15,-0.03,-0.50
3036,1.27,-2.80,9.54,-0.15,-0.03,-0.50
3041,0.77,-2.87,10.23,-0.15,-0.03,-0.50
3046,0.73,-3.45,9.39,-0.15,-0.03,-0.50
3051,0.65,-2.95,9.39,-0.15,-0.03,-0.50
3056,0.65,-2.95,9.39,-0.10,0.05,-0.67
3061,1.80,-3.52,10.34,-0.10,0.05,-0.67
3066,1.80,-3.52,10.34,-0.08,0.04,-0.66
3071,1.11,-3.26,10.03,-0.08,0.04,-0.66
3076,1.11,-3.26,10.03,-0.03,0.08,-0.62
3081,1.11,-3.68,9.96,-0.03,0.08,-0.62
3086,1.11,-3.52,10.80,-0.03,0.08,-0.62
3091,0.69,-3.52,10.07,-0.03,0.08,-0.62
3096,0.69,-3.87,9.54,-0.03,0.08,-0.62
3101,0.11,-3.64,8.85,-0.03,0.08,-0.62
3106,0.30,-3.71,9.16,-0.03,0.08,-0.62
3111,0.00,-3.64,9.30,-0.03,0.08,-0.62
3116,0.23,-3.87,8.84,-0.03,0.08,-0.62
3121,0.23,-3.87,8.84,0.06,0.05,-0.63
3127,0.57,-3.18,9.31,0.06,0.05,-0.63
3131,0.77,-2.53,9.04,0.06,0.05,-0.63
3136,0.84,-2.41,9.84,0.06,0.05,-0.63
3141,0.54,-2.34,9.27,0.06,0.05,-0.63
3146,0.65,-1.99,9.54,0.06,0.05,-0.63
3151,1.11,-1.88,10.11,0.06,0.05,-0.63
3156,0.42,-1.53,9.89,0.06,0.05,-0.63
3161,0.42,-1.53,9.89,0.17,0.06,-0.44
3166,0.27,-1.76,9.54,0.17,0.06,-0.44
3171,0.54,-1.88,9.39,0.17,0.06,-0.44
3176,0.96,-1.95,9.84,0.17,0.06,-0.44
3182,0.54,-1.88,9.54,0.17,0.06,-0.44
3186,1.15,-1.49,9.80,0.17,0.06,-0.44
3191,1.19,-1.57,9.23,0.17,0.06,-0.44
3197,1.27,-1.34,9.23,0.17,0.06,-0.44
3201,1.11,-1.49,9.39,0.17,0.06,-0.44
3206,1.23,-1.49,9.69,0.17,0.06,-0.44
3211,0.92,-1.46,9.69,0.17,0.06,-0.44
3216,0.11,-1.30,9.50,0.17,0.06,-0.44
3221,0.69,-1.34,10.00,0.17,0.06,-0.44
3226,0.38,-1.49,9.31,0.17,0.06,-0.44
3231,0.38,-1.49,9.31,0.24,0.09,-0.14
3236,0.38,-1.49,9.31,0.23,0.07,-0.11
3241,1.34,-1.23,9.50,0.23,0.07,-0.11
3246,1.34,-1.23,9.50,0.24,0.00,-0.05
3251,0.92,-1.00,8.62,0.24,0.00,-0.05
3257,0.92,-1.00,8.62,0.24,-0.01,-0.03
3261,0.57,-1.15,9.23,0.24,-0.01,-0.03
3266,0.57,-1.15,9.23,0.24,0.00,0.03
3271,0.77,-1.46,10.15,0.24,0.00,0.03
3276,0.54,-0.88,9.80,0.24,0.00,0.03
3281,0.46,-1.00,9.54,0.24,0.00,0.03
3287,0.50,-0.88,9.65,0.24,0.00,0.03
3291,0.88,-1.04,9.50,0.24,0.00,0.03
3296,0.88,-1.04,9.50,0.22,-0.01,0.12
3301,1.27,-1.11,9.73,0.22,-0.01,0.12
3306,1.68,-1.34,9.84,0.22,-0.01,0.12
3312,1.15,-1.23,9.23,0.22,-0.01,0.12
3316,1.15,-1.23,9.23,0.21,-0.05,0.21
3321,0.42,-1.38,9.38,0.21,-0.05,0.21
3326,0.65,-1.65,9.93,0.21,-0.05,0.21
3332,0.11,-1.53,9.50,0.21,-0.05,0.21
3336,0.11,-1.53,9.50,0.26,0.02,0.30
3341,0.50,-1.11,9.58,0.26,0.02,0.30
3347,0.15,-0.65,8.81,0.26,0.02,0.30
3351,0.15,-0.65,8.81,0.22,-0.02,0.33
3357,0.15,-0.65,8.81,0.21,-0.05,0.34
3361,1.61,-1.19,9.84,0.21,-0.05,0.34
3366,1.61,-1.19,9.84,0.19,-0.12,0.38
3371,1.61,-1.19,9.84,0.18,-0.14,0.39
3376,0.88,-1.53,9.16,0.18,-0.14,0.39
3382,0.80,-1.72,10.07,0.18,-0.14,0.39
3386,0.80,-1.72,10.07,0.22,-0.02,0.41
3391,0.46,-1.99,9.96,0.22,-0.02,0.41
3396,0.73,-1.72,9.89,0.22,-0.02,0.41
3401,0.30,-1.76,9.50,0.22,-0.02,0.41
3406,0.34,-1.84,9.46,0.22,-0.02,0.41
3411,-0.27,-1.49,8.93,0.22,-0.02,0.41
3416,0.38,-1.95,9.50,0.22,-0.02,0.41
3422,0.00,-1.38,8.74,0.22,-0.02,0.41
3426,-0.57,-2.22,9.08,0.22,-0.02,0.41
3431,0.08,-1.95,9.31,0.22,-0.02,0.41
3436,-0.04,-1.99,9.61,0.22,-0.02,0.41
3441,0.00,-1.88,9.65,0.22,-0.02,0.41
3446,0.08,-1.88,9.23,0.22,-0.02,0.41
3452,0.23,-1.57,9.31,0.22,-0.02,0.41
3456,0.23,-1.57,9.31,0.21,-0.05,0.38
3461,-0.15,-1.68,9.65,0.21,-0.05,0.38
3466,-0.27,-2.18,9.61,0.21,-0.05,0.38
3471,-0.61,-2.03,9.69,0.21,-0.05,0.38
3477,-0.61,-2.03,9.69,0.22,-0.01,0.38
3482,-0.69,-1.68,9.77,0.22,-0.01,0.38
3486,-0.69,-1.68,9.77,0.23,-0.03,0.40
3491,-0.69,-1.68,9.77,0.22,-0.03,0.41
3496,-0.69,-1.68,9.77,0.21,-0.04,0.41
3502,0.04,-2.07,9.77,0.21,-0.04,0.41
3506,0.04,-2.07,9.77,0.22,-0.06,0.43
3511,-0.88,-1.68,8.82,0.22,-0.06,0.43
3516,-0.96,-1.72,9.39,0.22,-0.06,0.43
3522,-0.65,-1.61,9.61,0.22,-0.06,0.43
3526,-0.65,-1.61,9.61,0.24,-0.03,0.52
3531,-0.77,-1.27,9.65,0.24,-0.03,0.52
3537,-0.77,-1.65,8.92,0.24,-0.03,0.52
3541,-0.77,-1.65,8.92,0.24,-0.06,0.58
3546,0.27,-0.73,9.20,0.24,-0.06,0.58
3551,0.50,-1.23,9.35,0.24,-0.06,0.58
3556,0.50,-1.23,9.35,0.23,-0.07,0.64
3561,0.50,-1.23,9.35,0.23,-0.05,0.66
3566,-0.23,-0.73,10.07,0.23,-0.05,0.66
3572,-0.08,-0.38,10.27,0.23,-0.05,0.66
3576,-0.08,-0.38,10.27,0.22,-0.04,0.72
3581,0.19,0.11,9.84,0.22,-0.04,0.72
3587,0.30,0.77,9.23,0.22,-0.04,0.72
3591,0.30,0.77,9.23,0.19,-0.03,0.75
3596,0.30,0.77,9.23,0.18,-0.04,0.74
3601,1.23,0.27,9.04,0.18,-0.04,0.74
3607,1.00,0.15,9.12,0.18,-0.04,0.74
3611,1.00,0.15,9.12,0.14,-0.04,0.75
3616,0.57,1.19,9.50,0.14,-0.04,0.75
3622,0.46,0.80,10.00,0.14,-0.04,0.75
3626,0.46,0.80,10.00,0.10,-0.00,0.74
3631,0.46,0.80,10.00,0.10,-0.01,0.74
3636,0.73,1.00,9.85,0.10,-0.01,0.74
3641,0.73,1.00,9.85,0.09,-0.01,0.74
3646,0.73,1.00,9.85,0.07,-0.01,0.71
3651,1.27,1.00,9.12,0.07,-0.01,0.71
3657,1.34,1.34,8.96,0.07,-0.01,0.71
3661,1.34,1.34,8.96,0.05,-0.04,0.69
3667,1.34,1.34,8.96,0.04,-0.04,0.68
3671,1.19,1.00,10.35,0.04,-0.04,0.68
3676,1.19,1.00,10.35,0.01,-0.01,0.62
3681,1.19,1.00,10.35,-0.00,-0.00,0.58
3686,1.49,1.27,9.61,-0.00,-0.00,0.58
3691,1.34,0.08,9.65,-0.00,-0.00,0.58
3696,1.34,0.08,9.65,-0.05,-0.01,0.46
3702,1.34,0.08,9.65,-0.06,-0.02,0.41
3707,2.30,-0.27,9.65,-0.06,-0.02,0.41
3711,2.30,-0.27,9.65,-0.07,-0.02,0.34
3716,2.30,-0.27,9.65,-0.08,-0.00,0.32
3721,0.77,-0.11,9.69,-0.08,-0.00,0.32
3727,0.80,-0.27,9.93,-0.08,-0.00,0.32
3731,0.80,-0.27,9.93,-0.11,0.05,0.18
3737,0.80,-0.27,9.93,-0.11,0.04,0.15
3742,1.23,-1.04,9.42,-0.11,0.04,0.15
3746,1.23,-1.04,9.42,-0.12,0.01,0.12
3751,1.23,-1.04,9.42,-0.13,-0.00,0.09
3756,1.23,-1.04,9.42,-0.14,-0.00,0.04
3762,1.76,-0.96,9.69,-0.14,-0.00,0.04
3766,1.76,-0.96,9.69,-0.16,0.01,-0.01
3771,1.46,-0.73,9.96,-0.16,0.01,-0.01
3776,1.46,-0.73,9.96,-0.16,0.04,-0.04
3782,0.88,-0.80,9.84,-0.16,0.04,-0.04
3786,0.88,-0.80,9.84,-0.18,0.07,-0.07
3791,0.46,-1.23,9.58,-0.18,0.07,-0.07
3796,0.57,-1.23,9.38,-0.18,0.07,-0.07
3802,1.11,-1.34,9.54,-0.18,0.07,-0.07
3806,0.73,-1.07,9.81,-0.18,0.07,-0.07
3812,1.07,-1.04,9.46,-0.18,0.07,-0.07
3816,1.07,-1.04,9.46,-0.17,0.01,-0.07
3822,1.07,-1.04,9.46,-0.17,0.02,-0.07
3827,0.69,-0.54,9.69,-0.17,0.02,-0.07
3831,0.69,-0.54,9.69,-0.16,0.03,-0.07
3836,0.69,-0.54,9.69,-0.17,0.04,-0.06
3841,0.46,-0.27,9.58,-0.17,0.04,-0.06
3847,0.15,-0.08,9.61,-0.17,0.04,-0.06
3851,0.15,-0.08,9.61,-0.17,0.06,-0.06
3856,0.15,-0.08,9.61,-0.17,0.06,-0.05
3862,0.11,-0.38,9.58,-0.17,0.06,-0.05
3866,0.11,-0.38,9.58,-0.16,0.05,-0.04
3871,0.11,-0.38,9.58,-0.16,0.04,-0.03
3876,0.11,-0.38,9.58,-0.16,0.02,-0.03
3882,-0.04,-0.50,9.00,-0.16,0.02,-0.03
3886,-0.04,-0.50,9.00,-0.16,0.02,-0.01
3891,0.00,-0.69,9.27,-0.16,0.02,-0.01
3896,-0.19,-0.54,9.00,-0.16,0.02,-0.01
3902,-0.84,-0.38,9.42,-0.16,0.02,-0.01
3906,-0.84,-0.38,9.42,-0.16,0.05,-0.02
3912,-0.80,-0.34,9.73,-0.16,0.05,-0.02
3917,-0.80,-0.50,9.65,-0.16,0.05,-0.02
3921,-0.80,-0.50,9.65,-0.17,0.05,-0.00
3926,0.15,-0.34,9.73,-0.17,0.05,-0.00
3931,0.19,-0.30,9.42,-0.17,0.05,-0.00
3936,0.19,-0.30,9.42,-0.19,-0.00,-0.01
3941,0.19,-0.30,9.42,-0.19,0.01,-0.00
3946,-0.19,-0.77,9.27,-0.19,0.01,-0.00
3952,-0.08,-0.77,9.73,-0.19,0.01,-0.00
3957,-0.08,-0.77,9.73,-0.18,0.05,0.00
3961,-0.08,-0.77,9.73,-0.18,0.05,0.00
3967,-0.65,-0.88,9.92,-0.18,0.05,0.00
3971,-0.65,-0.88,9.92,-0.20,0.05,-0.00
3976,-0.65,-0.88,9.92,-0.20,0.04,-0.02
3981,-0.15,-1.07,9.69,-0.20,0.04,-0.02
3987,0.23,-1.38,9.34,-0.20,0.04,-0.02
3991,0.23,-1.38,9.34,-0.21,-0.02,-0.02
3996,0.23,-1.38,9.34,-0.20,-0.02,-0.03
4002,0.38,-1.42,9.23,-0.20,-0.02,-0.03
4006,0.38,-1.42,9.23,-0.19,0.01,-0.01
4011,0.38,-1.42,9.23,-0.18,0.03,-0.01
4016,0.38,-1.42,9.23,-0.18,0.05,-0.01
4022,-0.54,-1.11,9.73,-0.18,0.05,-0.01
4027,-0.54,-1.11,9.73,-0.18,0.08,-0.00
4032,-0.54,-1.11,9.73,-0.18,0.07,0.01
4037,-0.15,-1.61,10.00,-0.18,0.07,0.01
4042,-0.15,-1.61,10.00,-0.18,0.01,0.04
4047,-0.15,-1.61,10.00,-0.19,-0.03,0.05
4052,1.80,-1.61,9.16,-0.19,-0.03,0.05
4056,1.80,-1.61,9.16,-0.19,-0.06,0.08
4061,1.80,-1.61,9.16,-0.17,-0.05,0.07
4066,1.30,-1.57,9.38,-0.17,-0.05,0.07
4072,0.57,-1.34,9.96,-0.17,-0.05,0.07
4077,0.57,-1.34,9.96,-0.13,0.12,0.10
4082,0.57,-1.34,9.96,-0.13,0.18,0.11
4087,-1.49,-1.07,10.49,-0.13,0.18,0.11
4091,-1.49,-1.07,10.49,-0.13,0.20,0.13
4096,-1.49,-1.07,10.49,-0.15,0.14,0.14
4101,0.73,-1.27,8.66,-0.15,0.14,0.14
4107,1.15,-1.34,8.43,-0.15,0.14,0.14
4111,1.15,-1.34,8.43,-0.18,-0.08,0.19
4116,1.15,-1.34,8.43,-0.18,-0.12,0.21
4122,1.42,-0.73,8.81,-0.18,-0.12,0.21
4127,1.42,-0.73,8.81,-0.15,-0.07,0.23
4131,1.42,-0.73,8.81,-0.15,0.01,0.23
4136,1.42,-0.73,8.81,-0.15,0.08,0.24
4142,-1.23,0.04,10.45,-0.15,0.08,0.24
4146,-1.23,0.04,10.45,-0.16,0.15,0.24
4151,-1.23,0.04,10.45,-0.18,0.12,0.25
4156,-1.23,0.04,10.45,-0.19,0.07,0.27
4162,1.49,-0.46,8.32,-0.19,0.07,0.27
4166,1.49,-0.46,8.32,-0.20,-0.00,0.28
4171,0.23,-0.46,9.16,-0.20,-0.00,0.28
4177,-0.54,-0.65,9.39,-0.20,-0.00,0.28
4181,-0.54,-0.65,9.39,-0.18,0.07,0.29
4186,-0.54,-0.65,9.39,-0.17,0.10,0.31
4192,-2.07,-0.61,10.35,-0.17,0.10,0.31
4197,-2.07,-0.61,10.35,-0.17,0.11,0.33
4202,-2.07,-0.61,10.35,-0.17,0.08,0.33
4207,0.04,-1.95,9.23,-0.17,0.08,0.33
4211,0.04,-1.95,9.23,-0.17,-0.01,0.33
4216,0.04,-1.95,9.23,-0.17,-0.03,0.34
4221,0.04,-1.95,9.23,-0.16,-0.03,0.34
4227,-0.11,-2.45,9.23,-0.16,-0.03,0.34
4231,-0.11,-2.45,9.23,-0.17,-0.01,0.31
4236,-0.11,-2.45,9.23,-0.16,0.01,0.30
4242,-1.00,-2.61,10.35,-0.16,0.01,0.30
4246,-1.00,-2.61,10.35,-0.15,0.07,0.29
4251,-1.00,-2.61,10.35,-0.16,0.07,0.27
4256,-1.00,-2.61,10.35,-0.15,0.06,0.24
4262,0.08,-3.68,9.46,-0.15,0.06,0.24
4266,0.08,-3.68,9.46,-0.13,0.02,0.21
4271,0.08,-3.68,9.46,-0.12,0.00,0.21
4276,0.08,-3.68,9.46,-0.09,-0.01,0.22
4282,0.30,-3.79,10.07,-0.09,-0.01,0.22
4286,0.30,-3.79,10.07,-0.06,0.00,0.22
4291,0.30,-3.79,10.07,-0.05,0.02,0.21
4298,0.54,-3.41,9.81,-0.05,0.02,0.21
4301,0.54,-3.41,9.81,-0.05,0.05,0.19
4306,0.54,-3.41,9.81,-0.06,0.05,0.18
4312,0.50,-2.61,9.23,-0.06,0.05,0.18
4316,0.50,-2.61,9.23,-0.06,0.04,0.17
4321,0.50,-2.61,9.23,-0.06,0.03,0.17
4326,0.34,-2.34,9.43,-0.06,0.03,0.17
4332,0.46,-2.34,9.27,-0.06,0.03,0.17
4336,0.46,-2.34,9.27,-0.05,0.02,0.15
4341,0.46,-2.34,9.27,-0.06,0.02,0.14
4347,0.50,-2.07,8.92,-0.06,0.02,0.14
4351,0.50,-2.07,8.92,-0.04,0.01,0.14
4356,0.50,-2.07,8.92,-0.04,0.01,0.14
4361,0.69,-1.46,9.61,-0.04,0.01,0.14
4368,0.61,-1.57,9.35,-0.04,0.01,0.14
4371,0.61,-1.57,9.35,-0.04,0.01,0.16
4376,0.61,-1.57,9.35,-0.05,0.02,0.15
4383,0.42,-0.54,9.12,-0.05,0.02,0.15
4387,0.42,-0.54,9.12,-0.08,0.03,0.12
4392,0.42,-0.54,9.12,-0.08,0.03,0.12
4397,0.42,-0.54,9.12,-0.09,0.04,0.12
4401,0.42,-0.54,9.12,-0.09,0.03,0.12
4407,0.42,-0.54,9.12,-0.10,0.04,0.11
4411,0.42,-0.54,9.12,-0.09,0.04,0.09
4417,0.46,-0.65,9.50,-0.09,0.04,0.09
4421,0.46,-0.65,9.50,-0.12,0.03,0.06
4426,0.46,-0.65,9.50,-0.11,0.03,0.05
4431,0.46,-1.46,9.46,-0.11,0.03,0.05
4438,0.54,-1.53,9.46,-0.11,0.03,0.05
4441,0.54,-1.53,9.46,-0.11,-0.00,-0.00
4446,0.27,-1.65,9.50,-0.11,-0.00,-0.00
4452,0.42,-1.65,9.50,-0.11,-0.00,-0.00
4456,0.42,-1.65,9.50,-0.12,0.02,-0.06
4461,0.42,-1.65,9.50,-0.13,0.02,-0.08
4467,0.57,-1.99,9.50,-0.13,0.02,-0.08
4471,0.57,-1.99,9.50,-0.15,0.03,-0.12
4476,0.57,-1.99,9.50,-0.14,0.03,-0.14
4481,0.57,-1.99,9.50,-0.14,0.03,-0.16
4487,0.73,-1.72,9.35,-0.14,0.03,-0.16
4491,0.73,-1.72,9.35,-0.15,0.04,-0.17
4496,0.73,-1.72,9.35,-0.16,0.04,-0.17
4502,0.88,-1.91,9.73,-0.16,0.04,-0.17
4507,0.88,-1.91,9.73,-0.16,0.04,-0.19
4512,0.88,-1.91,9.73,-0.16,0.04,-0.19
4516,0.88,-1.91,9.73,-0.16,0.04,-0.19
4522,1.00,-2.30,9.61,-0.16,0.04,-0.19
4526,1.00,-2.30,9.61,-0.15,0.03,-0.19
4531,1.00,-2.30,9.61,-0.14,0.03,-0.19
4537,1.00,-2.30,9.61,-0.15,0.03,-0.19
4541,1.00,-2.30,9.61,-0.14,0.03,-0.17
4546,1.00,-2.30,9.61,-0.14,0.04,-0.18
4551,0.54,-2.38,9.46,-0.14,0.04,-0.18
4558,0.46,-2.30,9.39,-0.14,0.04,-0.18
4561,0.46,-2.30,9.39,-0.14,0.05,-0.17
4566,0.46,-2.30,9.39,-0.14,0.05,-0.16
4572,0.46,-2.38,9.38,-0.14,0.05,-0.16
4576,0.46,-2.38,9.38,-0.15,0.03,-0.15
4581,0.46,-2.38,9.38,-0.14,0.02,-0.14
4587,0.42,-2.38,9.46,-0.14,0.02,-0.14
4591,0.42,-2.38,9.46,-0.13,0.03,-0.12
4596,0.42,-2.38,9.46,-0.12,0.04,-0.10
4601,0.42,-2.38,9.46,-0.12,0.04,-0.09
4606,-0.04,-2.14,9.58,-0.12,0.04,-0.09
4611,-0.04,-2.14,9.58,-0.11,0.05,-0.07
4616,-0.04,-2.14,9.58,-0.10,0.04,-0.07
4622,-0.38,-2.22,9.23,-0.10,0.04,-0.07
4627,-0.38,-2.22,9.23,-0.10,0.04,-0.05
4632,-0.38,-2.22,9.23,-0.09,0.04,-0.05
4636,-0.38,-2.22,9.23,-0.09,0.04,-0.04
4642,-0.88,-2.22,9.30,-0.09,0.04,-0.04
4646,-0.88,-2.22,9.30,-0.09,0.02,-0.04
4651,-0.88,-2.22,9.30,-0.08,0.01,-0.04
4656,-0.88,-2.22,9.30,-0.09,0.00,-0.04
4662,-0.88,-2.53,9.27,-0.09,0.00,-0.04
4666,-0.88,-2.53,9.27,-0.08,0.01,-0.05
4671,-0.88,-2.53,9.27,-0.08,0.01,-0.05
4677,-0.96,-2.22,9.50,-0.08,0.01,-0.05
4681,-0.96,-2.22,9.50,-0.06,0.02,-0.05
4686,-0.96,-2.22,9.50,-0.07,0.03,-0.04
4691,-1.30,-2.18,9.50,-0.07,0.03,-0.04
4698,-1.34,-2.11,9.39,-0.07,0.03,-0.04
4702,-1.34,-2.11,9.39,-0.06,0.04,-0.04
4707,-1.15,-2.11,9.31,-0.06,0.04,-0.04
4711,-1.15,-2.11,9.31,-0.05,0.03,-0.04
4716,-1.15,-2.11,9.31,-0.05,0.02,-0.02
4721,-1.15,-2.11,9.31,-0.05,0.01,-0.01
4727,-1.00,-2.07,9.35,-0.05,0.01,-0.01
4731,-1.00,-2.07,9.35,-0.05,0.01,0.00
4736,-1.00,-2.07,9.35,-0.04,0.00,0.01
4741,-1.00,-2.07,9.35,-0.04,0.00,0.01
4747,-0.61,-1.99,9.31,-0.04,0.00,0.01
4751,-0.61,-1.99,9.31,-0.04,0.01,0.04
4756,-0.61,-1.99,9.31,-0.04,0.01,0.04
4762,-1.04,-1.76,9.27,-0.04,0.01,0.04
4766,-1.04,-1.76,9.27,-0.04,0.02,0.06
4771,-1.04,-1.76,9.27,-0.04,0.02,0.06
4776,-1.04,-1.76,9.27,-0.03,0.02,0.07
4782,-0.61,-1.84,9.50,-0.03,0.02,0.07
4786,-0.61,-1.84,9.50,-0.02,0.01,0.09
4791,-0.61,-1.84,9.50,-0.02,0.00,0.09
4797,0.08,-1.99,9.43,-0.02,0.00,0.09
4801,0.08,-1.99,9.43,-0.01,-0.00,0.09
4806,0.08,-1.99,9.43,-0.01,-0.01,0.10
4812,0.08,-1.99,9.43,-0.02,-0.00,0.10
4816,0.08,-1.99,9.43,-0.02,0.00,0.09
4821,0.08,-1.99,9.43,-0.02,0.01,0.08
4826,0.08,-1.99,9.43,-0.03,0.01,0.07
4832,0.27,-1.38,9.50,-0.03,0.01,0.07
4836,0.27,-1.38,9.50,-0.04,0.02,0.07
4842,0.27,-1.38,9.50,-0.05,0.02,0.06
4846,0.27,-1.38,9.50,-0.05,0.01,0.05
4851,0.27,-1.38,9.50,-0.05,0.00,0.04
4856,0.27,-1.38,9.50,-0.06,0.00,0.04
4861,0.27,-1.38,9.50,-0.05,0.00,0.04
4867,0.61,-1.53,9.38,-0.05,0.00,0.04
4871,0.61,-1.53,9.38,-0.06,-0.00,0.03
4876,0.61,-1.53,9.38,-0.06,0.00,0.02
4882,0.61,-1.53,9.38,-0.06,0.01,0.02
4886,0.61,-1.53,9.38,-0.06,0.01,0.01
4891,0.61,-1.53,9.38,-0.06,0.02,0.00
4896,0.61,-1.53,9.38,-0.06,0.02,-0.00
4902,0.23,-1.38,9.38,-0.06,0.02,-0.00
4906,0.23,-1.38,9.38,-0.07,0.02,-0.02
4911,0.23,-1.38,9.38,-0.08,0.02,-0.03
4916,0.23,-1.38,9.38,-0.09,0.02,-0.04
4921,0.00,-1.38,9.39,-0.09,0.02,-0.04
4826,0.08,-1.99,9.43,-0.03,0.01,0.07
4832,0.27,-1.38,9.50,-0.03,0.01,0.07
4836,0.27,-1.38,9.50,-0.04,0.02,0.07
4842,0.27,-1.38,9.50,-0.05,0.02,0.06
4846,0.27,-1.38,9.50,-0.05,0.01,0.05
4851,0.27,-1.38,9.50,-0.05,0.00,0.04
4856,0.27,-1.38,9.50,-0.06,0.00,0.04
4861,0.27,-1.38,9.50,-0.05,0.00,0.04
4867,0.61,-1.53,9.38,-0.05,0.00,0.04
4871,0.61,-1.53,9.38,-0.06,-0.00,0.03
4876,0.61,-1.53,9.38,-0.06,0.00,0.02
4882,0.61,-1.53,9.38,-0.06,0.01,0.02
4886,0.61,-1.53,9.38,-0.06,0.01,0.01
4891,0.61,-1.53,9.38,-0.06,0.02,0.00
4896,0.61,-1.53,9.38,-0.06,0.02,-0.00
4902,0.23,-1.38,9.38,-0.06,0.02,-0.00
