timestamp,accX,accY,accZ,gyroX,gyroY,gyroZ
Straight
6,3.98,-3.48,11.03,0.04,-0.27,0.09
18,3.98,-3.48,11.03,0.07,-0.20,0.08
20,3.98,-3.48,11.03,-0.23,0.28,-0.24
22,3.98,-3.48,11.03,-0.06,-0.10,-0.03
26,-4.41,0.15,9.20,-0.06,-0.10,-0.03
31,-4.41,0.15,9.20,-0.02,-0.14,-0.01
36,-1.91,0.80,10.19,-0.02,-0.14,-0.01
42,-0.27,3.71,10.50,-0.02,-0.14,-0.01
47,-0.27,3.71,10.50,-0.04,-0.13,0.12
51,5.67,0.96,8.74,-0.04,-0.13,0.12
56,5.67,0.96,8.74,-0.11,-0.19,0.05
61,5.67,0.96,8.74,-0.07,-0.25,0.05
66,5.67,0.96,8.74,-0.06,-0.23,0.06
72,5.67,0.96,8.74,-0.01,-0.17,0.09
77,5.67,0.96,8.74,0.01,-0.06,0.10
81,-4.25,-0.69,11.76,0.01,-0.06,0.10
86,-1.57,-1.34,11.38,0.01,-0.06,0.10
91,-1.57,-1.34,11.38,-0.08,0.32,-0.06
96,-1.57,-1.34,11.38,-0.07,0.30,-0.08
101,-1.57,-1.34,11.38,-0.07,0.25,-0.12
107,-1.57,-1.34,11.38,-0.09,0.18,-0.14
112,-1.57,-1.34,11.38,-0.11,0.13,-0.11
116,-3.33,-1.61,10.53,-0.11,0.13,-0.11
121,-4.25,-1.65,11.34,-0.11,0.13,-0.11
126,-4.25,-1.65,11.34,-0.07,0.10,0.00
131,-4.25,-1.65,11.34,-0.04,0.06,0.03
136,-4.25,-1.65,11.34,-0.00,-0.01,0.05
142,-4.25,-1.65,11.34,-0.01,-0.05,0.01
147,-4.25,-1.65,11.34,-0.03,-0.04,-0.05
151,-1.04,-0.73,5.82,-0.03,-0.04,-0.05
156,-2.38,0.77,5.75,-0.03,-0.04,-0.05
162,-2.38,0.77,5.75,-0.09,0.07,0.03
167,-2.38,0.77,5.75,-0.13,0.09,0.04
172,-5.63,0.61,9.61,-0.13,0.09,0.04
176,-1.57,-1.80,10.07,-0.13,0.09,0.04
181,-1.57,-1.80,10.07,-0.16,0.08,-0.04
186,-1.57,-1.80,10.07,-0.10,-0.02,0.03
192,-1.57,-1.80,10.07,-0.06,-0.10,0.07
197,-1.57,-1.80,10.07,-0.06,-0.15,0.04
201,1.68,-1.00,10.34,-0.06,-0.15,0.04
206,0.65,-0.84,10.19,-0.06,-0.15,0.04
212,0.65,-0.84,10.19,-0.04,-0.12,0.06
216,0.92,-1.04,12.64,-0.04,-0.12,0.06
221,0.15,-0.34,12.41,-0.04,-0.12,0.06
226,-0.15,-0.15,11.68,-0.04,-0.12,0.06
231,-0.15,-0.15,11.68,-0.06,0.15,-0.07
236,-0.15,-0.15,11.68,-0.07,0.18,-0.09
242,-0.15,-0.15,11.68,-0.09,0.21,-0.11
247,-0.15,-0.15,11.68,-0.14,0.19,-0.12
251,-0.27,1.11,6.40,-0.14,0.19,-0.12
256,-0.69,1.11,7.86,-0.14,0.19,-0.12
261,0.69,0.11,9.27,-0.14,0.19,-0.12
266,0.69,0.11,9.27,-0.15,-0.10,-0.09
271,0.69,0.11,9.27,-0.11,-0.12,-0.04
276,0.69,0.11,9.27,-0.11,-0.09,-0.06
282,0.69,0.11,9.27,-0.11,-0.05,-0.09
286,3.95,-5.02,12.79,-0.11,-0.05,-0.09
291,3.33,-4.33,13.07,-0.11,-0.05,-0.09
296,3.33,-4.33,13.07,0.02,-0.08,-0.08
302,3.33,-4.33,13.07,0.04,-0.03,-0.11
307,3.33,-4.33,13.07,0.09,0.07,-0.09
312,1.84,4.25,14.98,0.09,0.07,-0.09
316,-3.71,2.30,8.66,0.09,0.07,-0.09
321,-4.02,0.42,6.24,0.09,0.07,-0.09
326,-4.02,0.42,6.24,-0.24,0.53,-0.46
332,-4.02,0.42,6.24,-0.23,0.50,-0.49
337,-4.02,0.42,6.24,-0.21,0.40,-0.39
341,-3.03,1.91,1.04,-0.21,0.40,-0.39
346,-2.61,3.33,3.75,-0.21,0.40,-0.39
352,-2.61,3.33,3.75,-0.28,-0.25,-0.08
356,3.37,-1.49,14.33,-0.28,-0.25,-0.08
361,2.87,-3.75,17.24,-0.28,-0.25,-0.08
367,2.87,-3.75,17.24,-0.10,-0.52,-0.22
372,2.87,-3.75,17.24,0.04,-0.38,-0.06
376,-0.27,-2.11,10.95,0.04,-0.38,-0.06
381,0.80,3.83,8.74,0.04,-0.38,-0.06
386,0.80,3.83,8.74,-0.04,0.06,-0.00
391,0.80,3.83,8.74,-0.14,0.13,-0.19
396,0.80,3.83,8.74,-0.17,0.13,-0.28
402,0.80,3.83,8.74,-0.19,0.07,-0.23
406,0.15,-0.61,8.78,-0.19,0.07,-0.23
411,2.72,-1.38,11.84,-0.19,0.07,-0.23
416,2.72,-1.38,11.84,-0.19,-0.17,-0.33
422,2.72,-1.38,11.84,-0.15,-0.15,-0.33
426,2.72,-1.42,14.33,-0.15,-0.15,-0.33
431,0.92,-0.30,15.94,-0.15,-0.15,-0.33
437,0.92,-0.30,15.94,-0.04,0.16,-0.19
442,0.92,-0.30,15.94,-0.02,0.23,-0.26
446,-2.22,0.23,8.82,-0.02,0.23,-0.26
451,-1.68,0.57,9.23,-0.02,0.23,-0.26
456,-1.68,0.57,9.23,-0.07,0.31,-0.22
461,-1.68,0.57,9.23,-0.08,0.25,-0.21
467,-1.68,0.57,9.23,-0.16,0.20,-0.28
472,-1.68,0.57,9.23,-0.25,0.13,-0.38
476,0.65,-1.00,7.97,-0.25,0.13,-0.38
481,-0.69,0.04,8.58,-0.25,0.13,-0.38
487,-0.69,0.04,8.58,-0.17,-0.16,-0.34
492,-0.69,0.04,8.58,-0.14,-0.17,-0.32
496,0.27,1.23,9.92,-0.14,-0.17,-0.32
501,-2.95,1.61,10.73,-0.14,-0.17,-0.32
507,-2.95,1.61,10.73,-0.07,0.03,-0.20
511,-6.93,-1.68,9.30,-0.07,0.03,-0.20
516,-3.95,-0.92,7.62,-0.07,0.03,-0.20
522,-3.95,-0.92,7.62,-0.07,0.21,-0.11
527,-3.95,-0.92,7.62,-0.06,0.01,-0.10
531,-3.33,2.76,8.89,-0.06,0.01,-0.10
536,-1.30,2.72,8.96,-0.06,0.01,-0.10
542,0.84,1.19,9.27,-0.06,0.01,-0.10
546,5.32,-0.50,10.65,-0.06,0.01,-0.10
551,7.82,-1.80,11.22,-0.06,0.01,-0.10
556,8.01,-3.48,11.80,-0.06,0.01,-0.10
561,5.02,-4.29,13.03,-0.06,0.01,-0.10
566,5.02,-4.29,13.03,-0.03,-0.29,-0.15
572,5.02,-4.29,13.03,-0.04,-0.14,-0.14
577,5.02,-4.29,13.03,-0.02,0.02,-0.12
581,-2.49,0.30,9.89,-0.02,0.02,-0.12
586,-1.07,-0.19,9.23,-0.02,0.02,-0.12
592,-1.07,-0.19,9.23,-0.15,0.43,-0.19
597,-1.07,-0.19,9.23,-0.15,0.43,-0.21
601,-1.23,-1.76,9.61,-0.15,0.43,-0.21
606,1.23,-2.57,9.39,-0.15,0.43,-0.21
612,1.23,-2.57,9.39,-0.06,0.09,-0.23
616,0.27,-1.23,8.74,-0.06,0.09,-0.23
621,1.68,-0.61,8.36,-0.06,0.09,-0.23
627,0.46,-0.57,8.27,-0.06,0.09,-0.23
631,-0.34,-0.96,10.57,-0.06,0.09,-0.23
636,-0.61,-0.23,10.80,-0.06,0.09,-0.23
641,-3.87,-0.46,11.34,-0.06,0.09,-0.23
647,-3.87,-0.46,11.34,-0.06,0.13,-0.11
651,-1.38,-1.49,10.04,-0.06,0.13,-0.11
656,-2.38,0.27,9.08,-0.06,0.13,-0.11
662,-2.38,0.27,9.08,-0.03,0.17,-0.27
667,-1.38,1.88,8.35,-0.03,0.17,-0.27
671,-1.38,1.88,8.35,-0.12,0.06,-0.33
676,-1.38,1.88,8.35,-0.14,0.04,-0.40
681,-0.46,0.92,9.69,-0.14,0.04,-0.40
687,-0.46,0.92,9.69,-0.14,0.00,-0.41
692,-2.72,0.38,9.58,-0.14,0.00,-0.41
696,3.79,0.00,10.38,-0.14,0.00,-0.41
701,2.64,0.34,10.11,-0.14,0.00,-0.41
706,1.04,1.88,10.11,-0.14,0.00,-0.41
712,0.73,1.65,10.04,-0.14,0.00,-0.41
716,-1.57,0.73,9.69,-0.14,0.00,-0.41
721,-2.76,1.27,9.12,-0.14,0.00,-0.41
726,-1.88,-0.27,9.46,-0.14,0.00,-0.41
732,-1.88,-0.27,9.46,-0.06,0.23,-0.19
736,-0.88,-0.15,9.20,-0.06,0.23,-0.19
741,-1.19,-0.65,9.00,-0.06,0.23,-0.19
747,0.11,-1.68,8.62,-0.06,0.23,-0.19
751,1.23,-1.42,7.73,-0.06,0.23,-0.19
756,-1.91,-1.68,6.89,-0.06,0.23,-0.19
762,-1.91,-1.68,6.89,-0.01,-0.08,-0.09
767,-1.91,-1.68,6.89,-0.04,-0.06,-0.09
772,-0.77,-1.53,8.62,-0.04,-0.06,-0.09
776,-0.77,-1.53,8.62,0.02,0.05,-0.12
781,-2.38,-2.45,9.42,0.02,0.05,-0.12
786,-2.14,-2.53,9.69,0.02,0.05,-0.12
791,-1.19,-2.87,8.77,0.02,0.05,-0.12
796,-0.61,-0.50,9.20,0.02,0.05,-0.12
802,1.72,-0.19,8.93,0.02,0.05,-0.12
806,1.49,-1.49,9.27,0.02,0.05,-0.12
811,1.99,-2.22,9.81,0.02,0.05,-0.12
816,1.95,-1.95,9.80,0.02,0.05,-0.12
822,0.30,-1.80,10.45,0.02,0.05,-0.12
826,-3.87,-1.38,7.70,0.02,0.05,-0.12
832,-1.23,-1.99,8.66,0.02,0.05,-0.12
836,-0.96,-0.57,9.34,0.02,0.05,-0.12
841,0.73,-0.08,10.00,0.02,0.05,-0.12
846,0.73,-0.08,10.00,0.02,0.04,-0.16
851,2.57,0.04,11.15,0.02,0.04,-0.16
857,2.57,0.04,11.15,0.01,-0.13,-0.14
862,1.30,-1.30,10.84,0.01,-0.13,-0.14
866,-3.37,-0.11,10.34,0.01,-0.13,-0.14
871,-2.61,-0.42,10.00,0.01,-0.13,-0.14
876,-1.84,-0.42,10.50,0.01,-0.13,-0.14
881,-1.38,-0.65,10.91,0.01,-0.13,-0.14
887,-1.65,-0.42,11.49,0.01,-0.13,-0.14
892,3.07,-1.34,10.57,0.01,-0.13,-0.14
896,3.07,-1.34,10.57,0.04,-0.19,-0.03
901,1.23,-0.30,7.85,0.04,-0.19,-0.03
906,0.15,-0.30,8.50,0.04,-0.19,-0.03
911,-1.34,-1.34,7.89,0.04,-0.19,-0.03
916,-2.64,-0.69,8.24,0.04,-0.19,-0.03
922,-3.52,-1.11,8.39,0.04,-0.19,-0.03
927,-1.15,-2.22,9.50,0.04,-0.19,-0.03
931,-1.15,-2.22,9.50,-0.01,-0.04,-0.11
936,-1.15,-2.22,9.50,-0.00,-0.08,-0.14
941,1.42,-1.53,10.50,-0.00,-0.08,-0.14
946,1.68,-1.07,10.11,-0.00,-0.08,-0.14
951,0.08,-0.92,10.57,-0.00,-0.08,-0.14
957,-0.38,0.27,10.84,-0.00,-0.08,-0.14
962,1.68,-0.96,9.81,-0.00,-0.08,-0.14
966,1.68,-0.96,9.81,-0.00,0.02,-0.21
971,-0.57,-0.65,7.55,-0.00,0.02,-0.21
976,-2.41,-1.04,6.36,-0.00,0.02,-0.21
981,-3.26,0.77,5.25,-0.00,0.02,-0.21
987,-2.84,-0.57,5.63,-0.00,0.02,-0.21
991,-1.34,0.92,6.59,-0.00,0.02,-0.21
996,0.19,0.23,7.43,-0.00,0.02,-0.21
1001,1.30,0.11,8.88,-0.00,0.02,-0.21
1007,1.04,-0.11,9.04,-0.00,0.02,-0.21
1012,2.68,-0.04,9.85,-0.00,0.02,-0.21
1016,2.68,-0.04,9.85,0.00,-0.17,-0.21
1021,-4.59,-0.30,4.06,0.00,-0.17,-0.21
1026,-4.45,-0.46,6.40,0.00,-0.17,-0.21
1031,-1.30,-1.11,7.47,0.00,-0.17,-0.21
1037,0.84,0.30,8.39,0.00,-0.17,-0.21
1041,3.37,-0.34,13.25,0.00,-0.17,-0.21
1046,5.63,-0.57,16.36,0.00,-0.17,-0.21
1051,6.09,-1.49,17.13,0.00,-0.17,-0.21
1056,3.56,-1.76,16.09,0.00,-0.17,-0.21
1062,1.49,-2.22,15.71,0.00,-0.17,-0.21
1067,0.80,-2.07,11.84,0.00,-0.17,-0.21
1071,0.80,-2.07,11.84,0.10,0.38,-0.16
1076,0.80,-2.07,11.84,0.13,0.47,-0.12
1081,-4.25,0.69,10.07,0.13,0.47,-0.12
1086,-2.18,0.54,12.83,0.13,0.47,-0.12
1092,-2.72,1.53,10.91,0.13,0.47,-0.12
1096,-2.14,-1.00,10.84,0.13,0.47,-0.12
1101,-1.04,-1.49,11.50,0.13,0.47,-0.12
1106,1.49,-1.42,10.65,0.13,0.47,-0.12
1112,-0.92,-1.57,8.01,0.13,0.47,-0.12
1117,-3.10,0.15,6.16,0.13,0.47,-0.12
1121,-3.10,0.15,6.16,0.05,-0.00,-0.13
1126,-1.99,0.65,8.43,0.05,-0.00,-0.13
1131,-0.80,0.11,9.50,0.05,-0.00,-0.13
1136,0.77,-0.54,10.27,0.05,-0.00,-0.13
1141,1.34,-0.19,10.84,0.05,-0.00,-0.13
1147,1.42,-1.57,10.41,0.05,-0.00,-0.13
1152,-0.19,-0.96,10.73,0.05,-0.00,-0.13
1156,-0.19,-0.96,10.73,0.05,0.02,-0.22
1161,-2.80,-0.04,8.92,0.05,0.02,-0.22
1166,-2.68,0.57,9.54,0.05,0.02,-0.22
1171,-1.38,0.61,7.93,0.05,0.02,-0.22
1176,-2.84,0.38,7.59,0.05,0.02,-0.22
1182,-2.76,0.38,7.47,0.05,0.02,-0.22
1187,0.50,-0.04,7.93,0.05,0.02,-0.22
1191,0.50,-0.04,7.93,-0.01,-0.16,-0.32
1197,0.50,-0.04,7.93,-0.02,-0.18,-0.32
1202,2.49,-1.00,9.93,-0.02,-0.18,-0.32
1206,2.49,-1.00,9.93,0.00,-0.10,-0.29
1211,2.49,-1.00,9.93,0.04,-0.02,-0.28
1216,3.33,-2.03,10.30,0.04,-0.02,-0.28
1222,4.37,-0.69,10.27,0.04,-0.02,-0.28
1226,4.37,-0.69,10.27,0.08,0.08,-0.23
1231,1.91,-0.38,11.04,0.08,0.08,-0.23
1236,0.61,-1.34,9.73,0.08,0.08,-0.23
1242,-1.91,-0.69,9.04,0.08,0.08,-0.23
1247,-1.91,-0.88,8.43,0.08,0.08,-0.23
1252,-2.45,-0.73,8.36,0.08,0.08,-0.23
1256,-2.45,-0.73,8.36,0.12,0.18,-0.11
1261,-2.45,-0.73,8.36,0.12,0.03,-0.08
1266,1.72,0.19,9.08,0.12,0.03,-0.08
1271,0.34,-0.08,9.30,0.12,0.03,-0.08
1276,0.08,0.30,9.08,0.12,0.03,-0.08
1282,-4.33,0.08,11.15,0.12,0.03,-0.08
1286,-7.97,0.19,10.23,0.12,0.03,-0.08
1292,-8.31,-0.61,9.42,0.12,0.03,-0.08
1296,-8.31,-0.61,9.42,0.11,0.32,-0.06
1301,-0.88,0.04,8.08,0.11,0.32,-0.06
1307,0.00,1.00,7.47,0.11,0.32,-0.06
1311,0.00,1.00,7.47,0.09,-0.23,-0.07
1317,0.00,1.00,7.47,0.05,-0.33,-0.06
1322,-2.18,0.19,6.79,0.05,-0.33,-0.06
1326,-2.18,0.19,6.79,0.03,-0.22,-0.02
1331,-2.18,0.19,6.79,0.04,-0.17,0.02
1336,-2.18,0.19,6.79,0.05,-0.17,0.04
1341,-1.99,-1.42,14.33,0.05,-0.17,0.04
1347,1.76,-1.88,15.70,0.05,-0.17,0.04
1351,6.55,-1.27,13.87,0.05,-0.17,0.04
1356,3.79,-1.76,11.72,0.05,-0.17,0.04
1362,2.07,-2.61,8.89,0.05,-0.17,0.04
1366,2.07,-2.61,8.89,0.16,0.10,0.08
1371,-2.76,-2.99,6.89,0.16,0.10,0.08
1376,-3.26,-3.33,7.55,0.16,0.10,0.08
1382,-2.57,-3.07,8.96,0.16,0.10,0.08
1386,-1.11,-3.33,10.80,0.16,0.10,0.08
1391,-0.96,-1.95,10.31,0.16,0.10,0.08
1396,0.15,-2.68,10.49,0.16,0.10,0.08
1402,1.53,-2.07,10.11,0.16,0.10,0.08
1406,1.99,-1.49,8.78,0.16,0.10,0.08
1412,-1.19,-0.77,5.10,0.16,0.10,0.08
1416,-1.19,-0.77,5.10,0.14,-0.02,0.07
1421,1.65,-1.04,8.32,0.14,-0.02,0.07
1426,-0.34,-0.77,8.93,0.14,-0.02,0.07
1432,0.04,-1.07,10.34,0.14,-0.02,0.07
1436,0.04,-1.07,10.34,0.13,-0.01,-0.01
1441,-1.23,-0.50,10.99,0.13,-0.01,-0.01
1447,-0.27,-1.23,10.99,0.13,-0.01,-0.01
1451,-0.27,-1.23,10.99,0.14,0.03,-0.01
1456,-1.11,-0.92,9.12,0.14,0.03,-0.01
1461,-1.27,-0.27,8.50,0.14,0.03,-0.01
1467,-0.30,0.42,8.46,0.14,0.03,-0.01
1471,-0.30,0.42,8.46,0.10,-0.07,-0.02
1476,-2.22,0.15,8.31,0.10,-0.07,-0.02
1482,1.27,-1.23,9.69,0.10,-0.07,-0.02
1486,1.27,-1.23,9.69,0.09,-0.09,0.01
1491,-0.15,-1.38,9.96,0.09,-0.09,0.01
1497,0.84,-1.42,10.77,0.09,-0.09,0.01
1501,0.84,-1.42,10.77,0.13,0.01,0.05
1507,-1.23,-0.54,10.39,0.13,0.01,0.05
1512,-1.49,-0.19,10.41,0.13,0.01,0.05
1516,-1.49,-0.19,10.41,0.14,0.13,0.09
1521,-1.49,-0.19,10.41,0.14,0.13,0.09
1526,-2.84,-0.73,8.46,0.14,0.13,0.09
1532,-1.91,0.34,8.27,0.14,0.13,0.09
1536,-1.91,0.34,8.27,0.14,-0.01,0.13
1542,-2.34,0.00,7.12,0.14,-0.01,0.13
1547,1.00,-0.84,7.97,0.14,-0.01,0.13
1551,1.00,-0.84,7.97,0.07,-0.10,0.09
1556,1.00,-0.84,7.97,0.05,-0.07,0.06
1561,-1.88,-0.54,10.19,0.05,-0.07,0.06
1567,-2.38,-1.46,10.84,0.05,-0.07,0.06
1571,-2.38,-1.46,10.84,0.05,0.12,0.02
1576,-2.38,-1.46,10.84,0.05,0.14,-0.01
1582,-1.23,-0.46,9.92,0.05,0.14,-0.01
1586,-1.23,-0.46,9.92,0.07,0.03,-0.01
1591,-1.23,-0.46,9.92,0.07,-0.04,-0.01
1597,-1.23,-0.46,9.92,0.07,-0.09,-0.03
1602,2.95,-0.88,10.03,0.07,-0.09,-0.03
1606,2.95,-0.88,10.03,0.05,-0.03,-0.04
1611,0.08,-1.68,10.27,0.05,-0.03,-0.04
1616,-0.69,-0.57,9.96,0.05,-0.03,-0.04
1622,-1.68,-1.11,9.42,0.05,-0.03,-0.04
1627,-1.68,-1.11,9.42,0.05,0.15,-0.03
1631,-0.92,0.42,9.58,0.05,0.15,-0.03
1636,-1.07,1.07,9.30,0.05,0.15,-0.03
1642,-0.69,0.42,9.42,0.05,0.15,-0.03
1646,1.76,0.08,9.12,0.05,0.15,-0.03
1651,2.91,-0.30,9.80,0.05,0.15,-0.03
1656,2.91,-0.30,9.80,0.02,-0.07,-0.04
1662,2.91,-0.30,9.80,0.02,-0.03,-0.06
1667,-0.27,0.15,9.23,0.02,-0.03,-0.06
1671,-0.27,0.15,9.23,0.00,0.07,-0.06
1676,-0.27,0.15,9.23,0.02,0.11,-0.07
1681,-1.00,-0.27,9.16,0.02,0.11,-0.07
1687,0.00,-0.54,9.89,0.02,0.11,-0.07
1691,0.00,-0.54,9.89,0.03,0.01,-0.08
1697,0.00,-0.54,9.89,0.03,-0.02,-0.10
1702,-1.34,0.80,8.77,0.03,-0.02,-0.10
1706,-1.34,0.80,8.77,0.00,0.06,-0.12
1711,-1.34,0.80,8.77,0.00,0.09,-0.11
1717,-1.34,0.80,8.77,0.00,0.05,-0.09
1722,-0.84,0.42,8.36,0.00,0.05,-0.09
1726,-0.84,0.42,8.36,-0.01,-0.06,-0.09
1731,0.11,0.04,9.89,-0.01,-0.06,-0.09
1736,-1.80,-0.11,9.88,-0.01,-0.06,-0.09
1742,1.11,-0.92,10.69,-0.01,-0.06,-0.09
1747,1.11,-0.92,10.69,0.01,0.00,-0.09
1751,0.61,-0.61,9.77,0.01,0.00,-0.09
1756,0.27,-0.96,10.61,0.01,0.00,-0.09
1762,0.57,-0.69,10.00,0.01,0.00,-0.09
1766,-1.53,-0.11,9.08,0.01,0.00,-0.09
1772,-1.57,-0.46,8.54,0.01,0.00,-0.09
1776,-1.57,-0.46,8.54,0.02,0.07,-0.05
1781,-1.57,-0.46,8.54,0.01,0.04,-0.03
1787,-1.46,-0.54,7.21,0.01,0.04,-0.03
1792,-1.61,-0.69,8.35,0.01,0.04,-0.03
1797,-1.61,-0.69,8.35,0.01,-0.07,-0.04
1801,-1.61,-0.69,8.35,0.01,-0.07,-0.05
1806,0.42,-0.77,11.99,0.01,-0.07,-0.05
1811,1.00,-1.04,11.57,0.01,-0.07,-0.05
1817,1.00,-1.04,11.57,0.02,-0.07,-0.07
1823,0.34,-1.53,9.84,0.02,-0.07,-0.07
1826,0.34,-1.53,9.84,0.04,-0.02,-0.09
1831,0.34,-1.53,9.84,0.04,0.03,-0.08
1836,0.34,-1.53,9.84,0.04,0.06,-0.06
1842,-1.76,-0.61,8.35,0.04,0.06,-0.06
1847,-1.76,-0.61,8.35,0.02,0.02,-0.04
1851,-1.76,-0.61,8.35,0.02,-0.03,-0.06
1856,-1.76,-0.61,8.35,0.01,-0.06,-0.08
1862,0.57,-1.42,10.57,0.01,-0.06,-0.08
1867,0.57,-1.42,10.57,0.02,-0.05,-0.06
1872,0.57,-1.42,10.57,0.05,0.00,-0.03
1877,0.11,-0.30,10.54,0.05,0.00,-0.03
1882,0.11,-0.30,10.54,0.08,0.02,-0.02
1887,0.11,-0.30,10.54,0.08,0.03,-0.02
1892,-1.38,-0.77,7.05,0.08,0.03,-0.02
1897,-1.38,-0.77,7.05,0.07,0.02,-0.01
1901,-1.38,-0.77,7.05,0.04,0.03,-0.02
1906,-3.87,1.23,5.52,0.04,0.03,-0.02
1912,-1.65,-0.08,6.89,0.04,0.03,-0.02
1917,-1.65,-0.08,6.89,0.01,-0.15,0.02
1922,-1.65,-0.08,6.89,0.00,-0.26,-0.01
1927,3.29,-0.15,11.50,0.00,-0.26,-0.01
1931,3.29,-0.15,11.50,-0.01,-0.35,-0.06
1936,3.29,-0.15,11.50,0.03,-0.28,-0.08
1942,1.19,-1.42,9.27,0.03,-0.28,-0.08
1947,1.91,-2.14,8.46,0.03,-0.28,-0.08
1951,1.91,-2.14,8.46,0.04,-0.05,-0.02
1956,1.91,-2.14,8.46,0.02,-0.01,-0.04
1962,1.23,-1.38,10.84,0.02,-0.01,-0.04
1967,1.23,-1.38,10.84,0.02,-0.03,-0.07
1971,1.23,-1.38,10.84,0.04,-0.03,-0.06
1976,1.23,-1.38,10.84,0.06,0.01,-0.04
1982,0.77,-0.15,10.69,0.06,0.01,-0.04
1987,0.77,-0.15,10.69,0.13,0.10,0.01
1992,0.77,-0.15,10.69,0.13,0.14,0.02
1997,1.91,3.18,12.64,0.13,0.14,0.02
2002,1.91,3.18,12.64,0.11,0.08,0.06
2007,1.91,3.18,12.64,0.02,0.03,0.02
2011,0.00,-2.45,9.38,0.02,0.03,0.02
2017,-1.57,-2.38,8.12,0.02,0.03,0.02
2021,-1.57,-2.38,8.12,-0.02,-0.01,-0.11
2026,-1.57,-2.38,8.12,0.01,0.01,-0.05
2032,-1.72,-2.30,8.81,0.01,0.01,-0.05
2037,-1.72,-2.30,8.81,0.01,0.05,-0.01
2042,-1.72,-2.30,8.81,0.01,0.06,-0.07
2048,-1.30,0.73,9.20,0.01,0.06,-0.07
2051,-1.30,0.73,9.20,0.02,0.07,-0.08
2057,-1.30,0.73,9.20,0.04,0.04,-0.05
2061,0.42,0.88,9.46,0.04,0.04,-0.05
2067,-0.34,0.38,10.41,0.04,0.04,-0.05
2071,-0.34,0.38,10.41,0.04,-0.06,0.00
2076,-0.34,0.38,10.41,0.07,-0.04,0.01
2083,-0.69,-0.46,9.88,0.07,-0.04,0.01
2086,-0.69,-0.46,9.88,0.08,0.10,0.05
2091,-0.69,-0.46,9.88,0.08,0.15,0.07
2096,-0.69,-0.46,9.88,0.08,0.15,0.06
2102,-4.02,-0.46,7.47,0.08,0.15,0.06
2106,-4.02,-0.46,7.47,0.04,0.09,0.01
2111,-4.02,-0.46,7.47,0.03,0.04,0.02
2116,-4.02,-0.46,7.47,0.01,-0.02,0.03
2122,1.65,-0.34,10.15,0.01,-0.02,0.03
2126,1.65,-0.34,10.15,-0.00,-0.19,0.00
2131,1.65,-0.34,10.15,-0.02,-0.20,-0.02
2138,-0.04,-1.15,5.36,-0.02,-0.20,-0.02
2142,-0.04,-1.15,5.36,0.01,-0.06,-0.01
2146,-0.04,-1.15,5.36,0.04,-0.01,0.05
2152,-1.04,-0.96,6.75,0.04,-0.01,0.05
2156,-1.04,-0.96,6.75,0.04,0.12,0.12
2162,-1.04,-0.96,6.75,0.02,0.17,0.09
2168,-1.76,-0.73,11.64,0.02,0.17,0.09
2171,-1.76,-0.73,11.64,0.03,0.13,0.04
2177,-1.76,-0.73,11.64,0.04,0.10,0.05
2181,-1.76,-0.73,11.64,0.07,0.03,0.08
2187,2.14,-1.68,9.92,0.07,0.03,0.08
2191,2.14,-1.68,9.92,0.11,-0.01,0.12
2197,2.14,-1.68,9.92,0.09,0.06,0.12
2203,-5.90,-0.08,7.59,0.09,0.06,0.12
2206,-5.90,-0.08,7.59,0.04,0.18,0.05
2211,-5.90,-0.08,7.59,0.03,0.17,0.04
2216,-5.90,-0.08,7.59,0.01,0.11,0.04
2222,1.15,-1.34,11.88,0.01,0.11,0.04
2226,1.15,-1.34,11.88,0.02,-0.04,0.02
2231,1.15,-1.34,11.88,0.04,-0.05,0.01
2237,1.15,-1.34,11.88,0.04,0.00,0.04
2242,1.15,-1.34,11.88,0.05,0.07,0.06
2247,1.15,-1.34,11.88,0.04,0.13,0.08
2252,-3.26,0.00,6.97,0.04,0.13,0.08
2257,-3.83,0.77,8.39,0.04,0.13,0.08
2261,-3.83,0.77,8.39,-0.00,0.10,0.04
2267,-3.83,0.77,8.39,-0.04,0.04,0.03
2271,3.87,1.00,15.20,-0.04,0.04,0.03
2278,5.98,1.27,14.40,-0.04,0.04,0.03
2281,5.98,1.27,14.40,-0.02,-0.27,0.02
2286,6.21,-1.34,11.60,-0.02,-0.27,0.02
2292,0.69,-1.38,7.47,-0.02,-0.27,0.02
2296,0.69,-1.38,7.47,0.01,0.09,0.04
2302,0.69,-1.38,7.47,-0.01,0.32,0.09
2307,-9.42,0.46,7.43,-0.01,0.32,0.09
2311,-9.42,0.46,7.43,-0.03,0.46,0.09
2316,-9.42,0.46,7.43,-0.09,0.33,0.04
2321,-9.42,0.46,7.43,-0.11,0.05,-0.03
2327,5.79,-1.42,8.85,-0.11,0.05,-0.03
2331,5.79,-1.42,8.85,-0.11,-0.48,-0.18
2337,5.79,-1.42,8.85,-0.12,-0.53,-0.21
2343,6.40,-2.34,9.61,-0.12,-0.53,-0.21
2346,6.40,-2.34,9.61,-0.06,-0.42,-0.12
2351,6.40,-2.34,9.61,-0.04,-0.23,-0.09
2356,6.40,-2.34,9.61,-0.05,-0.01,-0.08
2363,-3.64,1.00,10.69,-0.05,-0.01,-0.08
2366,-3.64,1.00,10.69,-0.03,0.29,-0.13
2371,-3.64,1.00,10.69,0.01,0.31,-0.12
2376,-3.64,1.00,10.69,0.01,0.24,-0.09
2383,5.02,-0.88,9.42,0.01,0.24,-0.09
2386,5.02,-0.88,9.42,0.02,-0.06,-0.04
2391,2.14,0.23,8.54,0.02,-0.06,-0.04
2397,0.77,0.34,8.36,0.02,-0.06,-0.04
2401,0.77,0.34,8.36,-0.01,0.11,-0.09
2406,0.77,0.34,8.36,-0.04,0.25,-0.10
2412,-5.71,-0.11,8.78,-0.04,0.25,-0.10
2416,-5.71,-0.11,8.78,-0.03,0.25,-0.12
2421,-5.71,-0.11,8.78,-0.05,0.14,-0.13
2427,0.84,-0.77,9.54,-0.05,0.14,-0.13
2431,0.84,-0.77,9.54,-0.05,-0.19,-0.20
2436,0.84,-0.77,9.54,-0.06,-0.27,-0.21
2442,0.84,-0.77,9.54,-0.05,-0.24,-0.20
2447,1.27,-0.77,10.27,-0.05,-0.24,-0.20
2451,1.27,-0.77,10.27,-0.04,-0.05,-0.13
2456,1.27,-0.77,10.27,-0.03,0.09,-0.10
2462,-3.22,-0.42,10.19,-0.03,0.09,-0.10
2467,-3.22,-0.42,10.19,0.01,0.28,-0.12
2472,-3.22,-0.42,10.19,0.00,0.29,-0.11
2476,-3.22,-0.42,10.19,0.03,0.20,-0.07
2482,0.11,-0.57,7.39,0.03,0.20,-0.07
2486,0.11,-0.57,7.39,-0.01,-0.06,-0.06
2491,0.11,-0.57,7.39,-0.01,-0.14,-0.07
2496,0.11,-0.57,7.39,-0.02,-0.15,-0.06
2502,-2.72,-0.42,7.55,-0.02,-0.15,-0.06
2506,-2.72,-0.42,7.55,-0.04,-0.03,-0.04
2511,-2.72,-0.42,7.55,-0.05,0.04,-0.06
2517,-2.72,-0.65,9.81,-0.05,0.04,-0.06
2521,-2.72,-0.65,9.81,-0.07,-0.04,-0.11
2527,-2.72,-0.65,9.81,-0.05,-0.19,-0.10
2532,2.87,-1.15,12.64,-0.05,-0.19,-0.10
2536,2.87,-1.15,12.64,-0.05,-0.33,-0.11
2542,2.87,-1.15,12.64,-0.01,-0.30,-0.09
2546,2.57,-2.07,9.65,-0.01,-0.30,-0.09
2552,0.46,-0.96,8.92,-0.01,-0.30,-0.09
2556,0.46,-0.96,8.92,0.01,0.12,0.00
2561,0.46,-0.96,8.92,0.01,0.24,0.01
2567,-1.15,-0.73,10.50,0.01,0.24,0.01
2571,-1.15,-0.73,10.50,0.02,0.24,-0.01
2576,-1.15,-0.73,10.50,0.02,0.13,-0.02
2581,-1.15,-0.73,10.50,0.02,0.05,-0.03
2587,-0.73,-0.15,10.73,0.02,0.05,-0.03
2591,-0.73,-0.15,10.73,0.02,0.00,-0.03
2596,-0.73,-0.15,10.73,0.02,-0.02,-0.03
2602,-2.45,0.30,8.04,0.02,-0.02,-0.03
2606,-2.45,0.30,8.04,0.00,-0.08,-0.06
2611,-2.45,0.30,8.04,-0.01,-0.16,-0.07
2616,-2.45,0.30,8.04,-0.02,-0.21,-0.09
2622,1.07,-1.61,9.04,-0.02,-0.21,-0.09
2626,1.07,-1.61,9.04,-0.03,-0.17,-0.11
2631,1.07,-1.61,9.04,-0.01,-0.09,-0.09
2637,-1.68,-0.57,10.00,-0.01,-0.09,-0.09
2641,-1.68,-0.57,10.00,0.02,0.11,0.01
2646,-1.68,-0.57,10.00,0.02,0.15,0.01
2652,-1.68,-0.57,10.00,0.04,0.11,0.00
2657,-1.68,-0.57,10.00,0.02,0.05,-0.01
2661,-1.68,-0.57,10.00,0.03,-0.02,-0.01
2666,-1.68,-0.57,10.00,0.04,-0.07,0.02
2672,-3.87,-0.34,6.13,0.04,-0.07,0.02
2676,-3.87,-0.34,6.13,0.03,-0.03,0.06
2681,-3.87,-0.34,6.13,0.03,-0.02,0.06
2687,-3.87,-0.34,6.13,0.03,-0.04,0.05
2691,-3.87,-0.34,6.13,0.01,-0.07,0.04
2696,-3.87,-0.34,6.13,0.02,-0.07,0.03
2701,-3.87,-0.34,6.13,0.01,-0.05,0.02
2707,-0.69,-1.80,10.27,0.01,-0.05,0.02
2711,-0.69,-1.80,10.27,0.03,0.06,0.03
2716,-0.69,-1.80,10.27,0.04,0.09,0.05
2722,-2.03,-0.57,7.51,0.04,0.09,0.05
2726,-2.03,-0.57,7.51,0.04,0.06,0.07
2731,-2.03,-0.57,7.51,0.04,-0.01,0.07
2736,-2.03,-0.57,7.51,0.03,-0.06,0.05
2743,0.84,-1.34,9.69,0.03,-0.06,0.05
2747,0.84,-1.34,9.69,0.00,-0.11,0.03
2751,0.84,-1.34,9.69,0.01,-0.10,0.03
2757,0.84,-1.34,9.69,0.02,-0.06,0.02
2761,0.84,-1.34,9.69,0.03,0.02,0.02
2766,0.84,-1.34,9.69,0.03,0.09,0.00
2771,0.84,-1.34,9.69,0.04,0.16,0.00
2777,-3.60,0.23,8.96,0.04,0.16,0.00
2781,-3.60,0.23,8.96,0.03,0.15,-0.00
2786,-3.60,0.23,8.96,0.01,0.07,-0.01
2792,-3.60,0.23,8.96,-0.01,-0.02,-0.04
2796,-3.60,0.23,8.96,-0.03,-0.09,-0.07
2801,-3.60,0.23,8.96,-0.03,-0.12,-0.09
2806,-3.60,0.23,8.96,-0.03,-0.09,-0.09
2812,0.54,-1.00,10.07,-0.03,-0.09,-0.09
2816,0.54,-1.00,10.07,-0.01,-0.00,-0.08
2821,0.54,-1.00,10.07,0.00,0.04,-0.07
2827,0.23,0.84,11.26,0.00,0.04,-0.07
2831,0.23,0.84,11.26,-0.00,0.06,-0.10
2836,0.23,0.84,11.26,-0.01,0.03,-0.12
2842,0.23,0.84,11.26,-0.01,0.01,-0.12
2847,0.23,0.84,11.26,-0.01,-0.01,-0.12
2851,0.23,0.84,11.26,0.00,0.00,-0.10
2856,0.23,0.84,11.26,0.01,-0.01,-0.09
2862,-1.53,2.53,8.04,0.01,-0.01,-0.09
2866,-1.53,2.53,8.04,-0.02,-0.18,-0.03
2871,-1.53,2.53,8.04,-0.05,-0.25,-0.05
2877,-1.53,2.53,8.04,-0.10,-0.27,-0.12
2881,-1.53,2.53,8.04,-0.13,-0.19,-0.21
2886,-1.53,2.53,8.04,-0.12,-0.06,-0.28
2891,-1.53,2.53,8.04,-0.05,0.02,-0.24
2898,-0.96,-3.18,8.46,-0.05,0.02,-0.24
2901,-0.96,-3.18,8.46,0.05,0.16,-0.01
2906,-0.96,-3.18,8.46,0.05,0.22,0.03
2911,-0.96,-3.18,8.46,0.02,0.26,-0.02
2917,0.65,0.88,9.54,0.02,0.26,-0.02
2921,0.65,0.88,9.54,-0.05,0.14,-0.20
2926,0.65,0.88,9.54,-0.04,0.04,-0.24
2932,0.27,-0.88,7.66,-0.04,0.04,-0.24
2936,0.27,-0.88,7.66,0.04,-0.04,-0.07
2941,0.27,-0.88,7.66,0.05,-0.01,-0.00
2947,0.27,-0.88,7.66,0.02,0.00,-0.02
2951,0.27,-0.88,7.66,0.00,-0.01,-0.10
2956,0.27,-0.88,7.66,-0.04,-0.04,-0.18
2961,0.27,-0.88,7.66,-0.05,-0.10,-0.21
2967,0.65,0.04,10.27,-0.05,-0.10,-0.21
2971,0.65,0.04,10.27,-0.04,-0.20,-0.19
2976,0.65,0.04,10.27,-0.03,-0.18,-0.19
2982,0.65,0.04,10.27,-0.01,-0.13,-0.18
2986,0.65,0.04,10.27,-0.02,-0.05,-0.16
2991,0.65,0.04,10.27,0.00,0.03,-0.15
2996,0.65,0.04,10.27,0.00,0.11,-0.14
3002,-0.84,-0.04,10.77,0.00,0.11,-0.14
3006,-0.84,-0.04,10.77,0.03,0.14,-0.12
3011,-0.84,-0.04,10.77,0.03,0.12,-0.11
3017,-0.84,-0.04,10.77,0.05,0.06,-0.09
3021,-0.84,-0.04,10.77,0.07,0.03,-0.06
3026,-0.84,-0.04,10.77,0.09,0.01,-0.03
3031,-0.84,-0.04,10.77,0.09,0.04,0.00
3037,-2.11,-0.38,8.31,0.09,0.04,0.00
3041,-2.11,-0.38,8.31,0.08,0.13,-0.02
3046,-2.11,-0.38,8.31,0.09,0.16,-0.03
3052,-2.11,-0.38,8.31,0.07,0.14,-0.03
3056,-2.11,-0.38,8.31,0.06,0.09,-0.03
3061,-2.11,-0.38,8.31,0.05,0.03,-0.03
3067,-2.11,-0.38,8.31,0.04,-0.04,-0.04
3071,-2.11,-0.38,8.31,0.04,-0.11,-0.06
3076,-2.11,-0.38,8.31,0.03,-0.12,-0.09
3081,-2.11,-0.38,8.31,0.03,-0.13,-0.10
3087,0.50,-1.91,10.00,0.03,-0.13,-0.10
3091,0.50,-1.91,10.00,0.04,-0.05,-0.09
3096,0.50,-1.91,10.00,0.05,0.02,-0.09
3102,0.50,-1.91,10.00,0.05,0.08,-0.07
3106,0.50,-1.91,10.00,0.06,0.12,-0.06
3111,0.50,-1.91,10.00,0.07,0.12,-0.07
3116,0.50,-1.91,10.00,0.08,0.14,-0.08
3122,-6.21,0.42,10.42,0.08,0.14,-0.08
3127,-6.21,0.42,10.42,0.08,0.31,-0.12
3131,-6.21,0.42,10.42,0.07,0.26,-0.10
3137,-6.21,0.42,10.42,0.07,0.12,-0.10
3142,-6.21,0.42,10.42,0.06,0.02,-0.12
3146,-6.21,0.42,10.42,0.03,-0.01,-0.15
3151,-6.21,0.42,10.42,0.02,-0.07,-0.16
3157,1.72,-1.84,7.51,0.02,-0.07,-0.16
3161,1.72,-1.84,7.51,0.01,-0.24,-0.16
3167,1.72,-1.84,7.51,-0.01,-0.29,-0.21
3172,1.72,-1.84,7.51,-0.02,-0.28,-0.26
3176,1.72,-1.84,7.51,-0.03,-0.21,-0.30
3181,1.72,-1.84,7.51,0.01,-0.06,-0.29
3186,1.72,-1.84,7.51,0.04,0.10,-0.25
3192,-1.34,1.11,10.31,0.04,0.10,-0.25
3196,-1.34,1.11,10.31,0.10,0.31,-0.15
3201,-1.34,1.11,10.31,0.11,0.32,-0.14
3207,-1.34,1.11,10.31,0.10,0.27,-0.14
3211,-1.34,1.11,10.31,0.11,0.19,-0.14
3216,-1.34,1.11,10.31,0.07,0.08,-0.14
3221,-1.34,1.11,10.31,0.07,-0.08,-0.12
3227,0.69,0.30,9.20,0.07,-0.08,-0.12
3231,0.69,0.30,9.20,0.04,-0.32,-0.07
3236,0.69,0.30,9.20,0.03,-0.35,-0.09
3242,0.69,0.30,9.20,0.04,-0.31,-0.11
3246,0.69,0.30,9.20,0.06,-0.20,-0.12
3251,0.69,0.30,9.20,0.09,-0.02,-0.09
3256,0.69,0.30,9.20,0.12,0.17,-0.02
3261,-4.02,-1.23,8.81,0.12,0.17,-0.02
3267,-4.02,-1.23,8.81,0.17,0.32,0.05
3272,-4.02,-1.23,8.81,0.19,0.38,0.09
3277,-4.02,-1.23,8.81,0.19,0.26,0.11
3281,-4.02,-1.23,8.81,0.14,0.12,0.10
3286,-4.02,-1.23,8.81,0.15,-0.02,0.10
3291,-4.02,-1.23,8.81,0.16,-0.11,0.13
3297,-0.34,-2.49,9.23,0.16,-0.11,0.13
3301,-0.34,-2.49,9.23,0.18,-0.08,0.20
3307,-0.34,-2.49,9.23,0.19,-0.05,0.22
3312,-0.34,-2.49,9.23,0.18,0.00,0.24
3316,-0.34,-2.49,9.23,0.18,0.04,0.23
3321,-0.34,-2.49,9.23,0.17,0.06,0.20
3327,-0.34,-2.49,9.23,0.16,0.06,0.19
3331,-0.34,-2.49,9.23,0.15,0.02,0.20
3336,-0.34,-2.49,9.23,0.17,-0.06,0.23
3341,-0.34,-2.49,9.23,0.18,-0.12,0.27
3347,-1.00,-1.95,9.84,0.18,-0.12,0.27
3351,-1.00,-1.95,9.84,0.16,-0.10,0.25
3356,-1.00,-1.95,9.84,0.17,-0.11,0.25
3362,-1.00,-1.95,9.84,0.17,-0.10,0.25
3366,-1.00,-1.95,9.84,0.15,-0.07,0.24
3371,-1.00,-1.95,9.84,0.16,-0.05,0.24
3376,-1.00,-1.95,9.84,0.16,-0.01,0.24
3382,-1.99,-2.03,8.62,0.16,-0.01,0.24
3386,-1.99,-2.03,8.62,0.15,0.04,0.23
3391,-1.99,-2.03,8.62,0.14,-0.00,0.21
3396,-1.99,-2.03,8.62,0.15,-0.06,0.21
3402,0.34,-0.84,9.42,0.15,-0.06,0.21
3406,0.34,-0.84,9.42,0.15,-0.07,0.21
3411,0.34,-0.84,9.42,0.15,-0.03,0.20
3417,-4.64,-0.65,3.10,0.15,-0.03,0.20
3421,-4.64,-0.65,3.10,0.15,0.05,0.19
3427,-4.64,-0.65,3.10,0.16,-0.03,0.23
3431,-4.64,-0.65,3.10,0.14,-0.17,0.24
3437,3.91,-0.38,13.64,0.14,-0.17,0.24
3441,3.91,-0.38,13.64,0.05,-0.19,0.09
3446,3.91,-0.38,13.64,0.05,-0.08,0.03
3452,-1.65,-4.67,10.88,0.05,-0.08,0.03
3456,-1.65,-4.67,10.88,0.16,0.15,0.10
3461,-1.65,-4.67,10.88,0.21,0.20,0.24
3467,-1.65,-4.67,10.88,0.23,0.19,0.32
3472,-2.45,2.30,6.89,0.23,0.19,0.32
3476,-2.45,2.30,6.89,0.12,0.18,0.17
3481,-2.45,2.30,6.89,0.05,0.17,0.06
3487,-2.57,-1.34,10.19,0.05,0.17,0.06
3491,-2.57,-1.34,10.19,0.08,0.08,0.07
3496,-2.57,-1.34,10.19,0.11,0.01,0.17
3502,-2.57,-1.34,10.19,0.12,-0.06,0.22
3507,2.30,0.80,10.46,0.12,-0.06,0.22
3511,2.30,0.80,10.46,0.10,-0.17,0.12
3516,2.30,0.80,10.46,0.05,-0.14,0.04
3522,-2.84,-0.19,6.51,0.05,-0.14,0.04
3526,-2.84,-0.19,6.51,0.04,-0.04,0.02
3531,-2.84,-0.19,6.51,0.05,-0.02,0.08
3537,-2.84,-0.19,6.51,0.05,-0.02,0.12
3541,-2.84,-0.19,6.51,0.03,-0.04,0.10
3547,-2.84,-0.19,6.51,0.03,-0.09,0.06
3551,-2.84,-0.19,6.51,0.04,-0.07,0.03
3557,-0.34,-0.57,9.04,0.04,-0.07,0.03
3561,-0.34,-0.57,9.04,0.06,-0.02,0.08
3566,-0.34,-0.57,9.04,0.07,-0.03,0.11
3572,-0.34,-0.57,9.04,0.07,-0.04,0.12
3576,-0.34,-0.57,9.04,0.04,-0.08,0.11
3581,-0.34,-0.57,9.04,0.03,-0.17,0.10
3586,-0.34,-0.57,9.04,0.01,-0.24,0.08
3592,1.04,-0.65,9.20,0.01,-0.24,0.08
3596,1.04,-0.65,9.20,0.01,-0.29,0.07
3601,1.04,-0.65,9.20,0.01,-0.25,0.04
3607,1.04,-0.65,9.20,0.04,-0.18,0.02
3611,1.04,-0.65,9.20,0.04,-0.10,0.02
3616,1.04,-0.65,9.20,0.05,-0.07,0.03
3621,1.04,-0.65,9.20,0.08,-0.05,0.03
3627,-2.22,1.38,2.52,0.08,-0.05,0.03
3631,-2.22,1.38,2.52,0.06,-0.07,0.03
3636,-2.22,1.38,2.52,0.03,-0.09,0.03
3642,-0.38,-1.07,2.60,0.03,-0.09,0.03
3646,-0.38,-1.07,2.60,-0.06,-0.36,0.03
3651,-0.38,-1.07,2.60,-0.09,-0.58,0.03
3657,-0.38,-1.07,2.60,-0.07,-0.77,0.04
3662,12.76,-3.22,26.74,-0.07,-0.77,0.04
3666,12.76,-3.22,26.74,0.02,-0.62,0.02
3671,12.76,-3.22,26.74,0.07,-0.27,0.01
3677,-7.93,-1.61,13.29,0.07,-0.27,0.01
3681,-7.93,-1.61,13.29,0.16,0.63,0.10
3687,-7.93,-1.61,13.29,0.29,0.85,0.24
3692,-7.93,-1.61,13.29,0.30,0.89,0.39
3697,3.33,0.15,7.70,0.30,0.89,0.39
3701,3.33,0.15,7.70,0.09,0.26,0.46
3706,3.33,0.15,7.70,0.05,-0.17,0.34
3712,8.08,-2.61,18.20,0.05,-0.17,0.34
3716,8.08,-2.61,18.20,0.05,-0.42,0.22
3721,8.08,-2.61,18.20,0.11,-0.20,0.30
3726,8.08,-2.61,18.20,0.17,0.12,0.43
3732,-9.20,-1.27,11.04,0.17,0.12,0.43
3736,-9.20,-1.27,11.04,0.28,0.58,0.61
3741,-9.20,-1.27,11.04,0.23,0.57,0.64
3747,2.22,1.99,8.04,0.23,0.57,0.64
3751,2.22,1.99,8.04,0.11,0.03,0.58
3756,2.22,1.99,8.04,0.04,-0.22,0.49
3762,2.22,1.99,8.04,0.03,-0.28,0.42
3766,2.22,1.99,8.04,0.03,-0.22,0.42
3771,2.22,1.99,8.04,0.08,-0.12,0.49
3776,2.22,1.99,8.04,0.12,-0.05,0.62
3782,0.42,-0.73,9.77,0.12,-0.05,0.62
3786,0.42,-0.73,9.77,0.11,0.06,0.63
3791,0.42,-0.73,9.77,0.08,0.15,0.50
3797,0.42,-0.73,9.77,0.06,0.24,0.38
3801,0.42,-0.73,9.77,0.05,0.29,0.37
3807,0.42,-0.73,9.77,0.04,0.22,0.45
3812,0.42,-0.73,9.77,0.07,0.06,0.52
3817,1.53,-1.30,6.09,0.07,0.06,0.52
3821,1.53,-1.30,6.09,0.05,-0.18,0.51
3826,1.53,-1.30,6.09,0.04,-0.19,0.45
3832,1.53,-1.30,6.09,0.03,-0.11,0.38
3836,1.53,-1.30,6.09,0.02,0.02,0.34
3841,1.53,-1.30,6.09,0.04,0.17,0.33
3846,1.53,-1.30,6.09,0.01,0.30,0.33
3852,-3.48,0.11,7.13,0.01,0.30,0.33
3856,-3.48,0.11,7.13,0.00,0.21,0.27
3861,-3.48,0.11,7.13,-0.01,0.05,0.22
3867,-3.48,0.11,7.13,-0.02,-0.11,0.18
3871,-3.48,0.11,7.13,-0.05,-0.18,0.15
3876,-3.48,0.11,7.13,-0.06,-0.14,0.11
3882,-3.48,0.11,7.13,-0.05,-0.07,0.10
3887,10.04,-2.38,9.39,-0.05,-0.07,0.10
3891,10.04,-2.38,9.39,-0.01,0.02,0.20
3896,10.04,-2.38,9.39,0.02,0.08,0.24
3902,-6.09,1.04,9.23,0.02,0.08,0.24
3906,-6.09,1.04,9.23,0.12,0.66,0.28
3911,-6.09,1.04,9.23,0.04,1.10,0.27
3916,-6.09,1.04,9.23,-0.08,1.43,0.34
3922,-18.92,-0.54,16.70,-0.08,1.43,0.34
3927,-18.92,-0.54,16.70,0.08,1.28,0.62
3931,-18.92,-0.54,16.70,0.08,0.70,0.61
3936,12.18,2.61,6.78,0.08,0.70,0.61
3941,12.18,2.61,6.78,0.04,0.11,0.48
3947,12.18,2.61,6.78,-0.08,-0.35,0.23
3952,12.18,2.61,6.78,-0.19,-0.64,-0.16
3957,-13.14,3.14,5.25,-0.19,-0.64,-0.16
3962,-13.14,3.14,5.25,-0.34,-0.05,-0.21
3966,-13.14,3.14,5.25,-0.40,0.24,-0.16
3972,-3.03,-1.49,13.98,-0.40,0.24,-0.16
3976,-3.03,-1.49,13.98,-0.29,0.07,0.02
3981,-3.03,-1.49,13.98,-0.22,-0.25,0.08
3986,-3.03,-1.49,13.98,-0.18,-0.52,0.08
3992,10.19,0.84,11.49,-0.18,-0.52,0.08
3996,10.19,0.84,11.49,-0.15,-0.57,0.05
4002,10.19,0.84,11.49,-0.16,-0.28,0.06
4007,-4.56,-1.07,8.88,-0.16,-0.28,0.06
4011,-4.56,-1.07,8.88,-0.19,0.05,0.22
4016,-4.56,-1.07,8.88,-0.19,-0.04,0.26
4021,-4.56,-1.07,8.88,-0.22,-0.18,0.19
4027,-1.76,1.38,14.90,-0.22,-0.18,0.19
4031,-1.76,1.38,14.90,-0.27,-0.34,-0.07
4037,-1.76,1.38,14.90,-0.23,-0.49,-0.11
4042,13.91,-5.25,8.93,-0.23,-0.49,-0.11
4046,13.91,-5.25,8.93,-0.16,-0.60,0.03
4051,13.91,-5.25,8.93,-0.16,-0.44,0.06
4057,13.91,-5.25,8.93,-0.17,-0.16,0.06
4061,13.91,-5.25,8.93,-0.17,0.13,0.06
4066,13.91,-5.25,8.93,-0.17,0.33,0.06
4072,13.91,-5.25,8.93,-0.16,0.40,0.05
4077,13.91,-5.25,8.93,-0.17,0.29,0.04
4081,13.91,-5.25,8.93,-0.17,0.06,-0.00
4086,13.91,-5.25,8.93,-0.20,-0.20,-0.07
4092,5.63,-0.42,5.55,-0.20,-0.20,-0.07
4097,3.26,-1.23,6.93,-0.20,-0.20,-0.07
4101,3.26,-1.23,6.93,-0.20,-0.38,-0.11
4106,3.26,-1.23,6.93,-0.24,-0.27,-0.08
4112,-0.92,1.07,10.80,-0.24,-0.27,-0.08
4116,-0.92,1.07,10.80,-0.23,-0.02,-0.08
4121,-0.92,1.07,10.80,-0.26,0.08,-0.13
4127,-1.91,0.04,8.82,-0.26,0.08,-0.13
4132,-1.91,0.04,8.82,-0.22,0.10,-0.14
4136,-1.91,0.04,8.82,-0.19,0.08,-0.09
4142,-1.91,0.04,8.82,-0.18,0.05,-0.03
4147,-1.53,0.30,8.24,-0.18,0.05,-0.03
4151,-1.53,0.30,8.24,-0.14,-0.00,0.04
4156,-1.53,0.30,8.24,-0.14,0.01,0.06
4162,-2.22,0.46,11.88,-0.14,0.01,0.06
4166,-2.22,0.46,11.88,-0.15,0.07,0.10
4171,-2.22,0.46,11.88,-0.15,0.10,0.08
4176,-2.22,0.46,11.88,-0.15,0.12,0.05
4182,-4.29,-0.69,6.32,-0.15,0.12,0.05
4186,-4.29,-0.69,6.32,-0.16,0.07,0.04
4192,-4.29,-0.69,6.32,-0.15,0.01,0.05
4197,-4.29,-0.69,6.32,-0.17,-0.06,0.05
4201,-4.29,-0.69,6.32,-0.20,-0.14,0.03
4206,-4.29,-0.69,6.32,-0.21,-0.19,-0.02
4211,-4.29,-0.69,6.32,-0.22,-0.22,-0.07
4217,-0.27,-0.80,10.61,-0.22,-0.22,-0.07
4221,-0.27,-0.80,10.61,-0.23,-0.23,-0.13
4226,-0.27,-0.80,10.61,-0.22,-0.25,-0.19
4232,0.19,-2.14,9.89,-0.22,-0.25,-0.19
4236,0.19,-2.14,9.89,-0.20,-0.13,-0.24
4241,0.19,-2.14,9.89,-0.21,-0.04,-0.24
4247,-5.25,1.30,8.32,-0.21,-0.04,-0.24
4251,-5.25,1.30,8.32,-0.23,0.14,-0.34
4256,-5.25,1.30,8.32,-0.25,0.16,-0.41
4261,-5.25,1.30,8.32,-0.25,0.12,-0.45
4267,1.72,-0.15,13.37,-0.25,0.12,-0.45
4271,1.72,-0.15,13.37,-0.25,0.03,-0.54
4276,1.72,-0.15,13.37,-0.23,0.01,-0.57
4282,2.07,0.61,11.76,-0.23,0.01,-0.57
4286,2.07,0.61,11.76,-0.21,0.08,-0.59
4291,2.07,0.61,11.76,-0.22,0.17,-0.60
4296,2.07,0.61,11.76,-0.24,0.26,-0.62
4302,-1.00,2.61,10.11,-0.24,0.26,-0.62
4306,-1.00,2.61,10.11,-0.27,0.27,-0.68
4311,-1.00,2.61,10.11,-0.32,0.18,-0.71
4317,-1.00,2.61,10.11,-0.28,0.10,-0.73
4321,-1.00,2.61,10.11,-0.26,0.08,-0.76
4326,-1.00,2.61,10.11,-0.26,0.10,-0.77
4331,-1.00,2.61,10.11,-0.24,0.13,-0.73
4337,-1.00,2.61,10.11,-0.23,0.16,-0.68
4341,-1.00,2.61,10.11,-0.22,0.20,-0.67
4346,-1.00,2.61,10.11,-0.22,0.25,-0.69
4352,-4.45,2.72,4.86,-0.22,0.25,-0.69
4356,-4.45,2.72,4.86,-0.23,0.20,-0.65
4361,-4.45,2.72,4.86,-0.24,0.08,-0.62
4367,-4.45,2.72,4.86,-0.24,-0.05,-0.64
4371,-4.45,2.72,4.86,-0.25,-0.19,-0.67
4376,-4.45,2.72,4.86,-0.23,-0.31,-0.70
4381,-4.45,2.72,4.86,-0.19,-0.38,-0.67
4387,-1.46,-0.73,7.17,-0.19,-0.38,-0.67
4391,-1.46,-0.73,7.17,-0.14,-0.19,-0.55
4396,-1.46,-0.73,7.17,-0.12,-0.06,-0.54
4402,-1.46,-0.73,7.17,-0.09,0.02,-0.56
4406,-1.46,-0.73,7.17,-0.09,0.06,-0.58
4411,-1.46,-0.73,7.17,-0.08,0.05,-0.54
4417,-1.46,-0.73,7.17,-0.05,-0.01,-0.47
4422,2.61,-0.19,10.27,-0.05,-0.01,-0.47
4426,2.61,-0.19,10.27,-0.04,-0.11,-0.41
4431,2.61,-0.19,10.27,-0.03,-0.07,-0.41
4437,2.61,-0.19,10.27,-0.01,-0.00,-0.38
4441,2.61,-0.19,10.27,0.04,0.09,-0.31
4446,2.61,-0.19,10.27,0.08,0.19,-0.22
4451,2.61,-0.19,10.27,0.10,0.23,-0.17
4457,2.61,-0.19,10.27,0.08,0.21,-0.14
4461,2.61,-0.19,10.27,0.06,0.11,-0.14
4466,2.61,-0.19,10.27,0.08,-0.02,-0.13
4471,5.40,-3.07,18.12,0.08,-0.02,-0.13
4477,4.56,-3.87,21.14,0.08,-0.02,-0.13
4481,4.56,-3.87,21.14,0.17,0.19,0.02
4486,4.56,-3.87,21.14,0.23,0.44,0.10
4492,-4.56,-3.29,12.68,0.23,0.44,0.10
4496,-4.56,-3.29,12.68,0.34,0.87,0.21
4501,-4.56,-3.29,12.68,0.39,0.94,0.27
4507,-0.19,-2.41,7.55,0.39,0.94,0.27
4511,-0.19,-2.41,7.55,0.33,0.65,0.37
4516,-0.19,-2.41,7.55,0.27,0.48,0.35
4522,-0.19,-2.41,7.55,0.22,0.34,0.32
4526,-0.19,-2.41,7.55,0.16,0.24,0.27
4531,-0.19,-2.41,7.55,0.16,0.18,0.26
4536,-0.19,-2.41,7.55,0.16,0.08,0.29
4542,-2.68,-1.27,9.46,0.16,0.08,0.29
4546,-2.68,-1.27,9.46,0.16,-0.14,0.30
4551,-2.68,-1.27,9.46,0.15,-0.24,0.30
4557,-2.68,-1.27,9.46,0.16,-0.31,0.31
4561,-2.68,-1.27,9.46,0.18,-0.32,0.31
4566,-2.68,-1.27,9.46,0.19,-0.31,0.32
4571,-2.68,-1.27,9.46,0.25,-0.20,0.34
4577,-2.68,-1.27,9.46,0.30,-0.09,0.40
4581,-2.68,-1.27,9.46,0.33,-0.03,0.45
4586,-2.68,-1.27,9.46,0.35,-0.02,0.47
4591,-2.68,-1.27,9.46,0.36,0.04,0.42
4597,3.37,-2.87,11.60,0.36,0.04,0.42
4601,3.37,-2.87,11.60,0.33,0.10,0.33
4606,3.37,-2.87,11.60,0.36,0.05,0.36
4612,3.29,-1.27,7.32,0.36,0.05,0.36
4616,3.29,-1.27,7.32,0.35,0.23,0.43
4621,3.29,-1.27,7.32,0.31,0.41,0.40
4627,3.29,-1.27,7.32,0.33,0.55,0.38
4631,3.29,-1.27,7.32,0.29,0.62,0.38
4636,3.29,-1.27,7.32,0.29,0.62,0.38
4641,3.29,-1.27,7.32,0.26,0.50,0.37
4647,2.80,0.08,5.90,0.26,0.50,0.37
4651,2.80,0.08,5.90,0.23,0.06,0.30
4656,2.80,0.08,5.90,0.20,-0.09,0.30
4662,2.80,0.08,5.90,0.16,-0.18,0.31
4666,2.80,0.08,5.90,0.14,-0.15,0.30
4671,2.80,0.08,5.90,0.12,-0.05,0.27
4676,2.80,0.08,5.90,0.12,0.08,0.23
4682,-3.79,0.34,13.33,0.12,0.08,0.23
4686,-3.79,0.34,13.33,0.16,0.27,0.23
4691,-3.79,0.34,13.33,0.18,0.28,0.24
4697,-3.79,0.34,13.33,0.19,0.25,0.24
4701,-3.79,0.34,13.33,0.16,0.20,0.22
4706,-3.79,0.34,13.33,0.14,0.13,0.17
4711,-3.79,0.34,13.33,0.12,0.11,0.14
4717,-3.79,0.34,13.33,0.10,0.18,0.14
4721,-3.79,0.34,13.33,0.09,0.29,0.15
4726,-3.79,0.34,13.33,0.08,0.38,0.14
4731,-17.58,4.56,2.76,0.08,0.38,0.14
4737,-5.79,1.72,3.87,0.08,0.38,0.14
4741,-5.79,1.72,3.87,-0.08,-0.18,-0.02
4747,-5.79,1.72,3.87,-0.12,-0.75,-0.02
4751,-5.79,1.72,3.87,-0.18,-1.20,-0.02
4756,-5.79,1.72,3.87,-0.20,-1.41,-0.02
4761,-5.79,1.72,3.87,-0.14,-1.30,-0.06
4767,-4.18,0.50,15.52,-0.14,-1.30,-0.06
4771,-4.18,0.50,15.52,-0.02,0.02,-0.12
4776,-4.18,0.50,15.52,0.03,0.63,-0.04
4782,-4.18,0.50,15.52,0.20,0.88,0.09
4786,-4.18,0.50,15.52,0.24,0.80,0.28
4791,-4.18,0.50,15.52,0.17,0.48,0.42
4797,-4.18,0.50,15.52,0.07,0.06,0.41
4802,-4.18,0.50,15.52,-0.01,-0.25,0.24
4806,-0.88,-1.07,12.22,-0.01,-0.25,0.24
4811,-0.88,-1.07,12.22,-0.05,-0.19,-0.06
4817,-0.88,-1.07,12.22,-0.00,0.06,-0.01
4822,-0.88,-1.07,12.22,0.03,0.27,0.13
4826,-1.68,0.65,7.70,0.03,0.27,0.13
4831,-1.68,0.65,7.70,0.05,0.24,0.32
4837,-1.68,0.65,7.70,-0.02,0.02,0.25
4841,-1.68,0.65,7.70,-0.11,-0.28,0.06
4846,-1.68,0.65,7.70,-0.15,-0.56,-0.10
4851,-1.68,0.65,7.70,-0.19,-0.70,-0.20
4857,0.04,-2.30,10.53,-0.19,-0.70,-0.20
4861,0.04,-2.30,10.53,-0.16,-0.58,-0.13
4867,0.04,-2.30,10.53,-0.11,-0.43,-0.03
4872,0.04,-2.30,10.53,-0.08,-0.23,0.04
4876,3.56,1.00,11.42,-0.08,-0.23,0.04
4881,3.56,1.00,11.42,-0.06,-0.00,0.00
4887,3.56,1.00,11.42,-0.04,-0.06,-0.04
4892,3.56,1.00,11.42,-0.04,-0.15,-0.04
4896,0.80,-1.65,8.04,-0.04,-0.15,-0.04
4901,0.80,-1.65,8.04,0.00,-0.11,0.10
4907,-3.26,0.92,10.65,0.00,-0.11,0.10
4911,-3.26,0.92,10.65,0.01,0.23,0.15
4916,-3.26,0.92,10.65,0.01,0.36,0.11
4922,-3.26,0.92,10.65,-0.01,0.42,0.06
4826,-1.68,0.65,7.70,0.03,0.27,0.13
4831,-1.68,0.65,7.70,0.05,0.24,0.32
4837,-1.68,0.65,7.70,-0.02,0.02,0.25
4841,-1.68,0.65,7.70,-0.11,-0.28,0.06
4846,-1.68,0.65,7.70,-0.15,-0.56,-0.10
4851,-1.68,0.65,7.70,-0.19,-0.70,-0.20
4857,0.04,-2.30,10.53,-0.19,-0.70,-0.20
4861,0.04,-2.30,10.53,-0.16,-0.58,-0.13
4867,0.04,-2.30,10.53,-0.11,-0.43,-0.03
4872,0.04,-2.30,10.53,-0.08,-0.23,0.04
4876,3.56,1.00,11.42,-0.08,-0.23,0.04
4881,3.56,1.00,11.42,-0.06,-0.00,0.00
4887,3.56,1.00,11.42,-0.04,-0.06,-0.04
4892,3.56,1.00,11.42,-0.04,-0.15,-0.04
4896,0.80,-1.65,8.04,-0.04,-0.15,-0.04
4901,0.80,-1.65,8.04,0.00,-0.11,0.10
