timestamp,accX,accY,accZ,gyroX,gyroY,gyroZ
Break
5,3.41,-3.22,10.19,-0.02,-0.11,-0.52
19,3.41,-3.22,10.19,0.01,-0.10,-0.52
21,3.41,-3.22,10.19,0.06,-0.01,-0.21
22,3.41,-3.22,10.19,0.11,0.22,-0.14
25,-1.95,-0.65,8.08,0.11,0.22,-0.14
30,-1.15,0.54,8.12,0.11,0.22,-0.14
36,-1.15,0.54,8.12,0.12,0.18,-0.14
41,-1.15,0.54,8.12,0.11,0.10,-0.13
46,-1.15,0.54,8.12,0.09,-0.02,-0.12
51,-1.15,0.54,8.12,0.06,-0.13,-0.11
56,0.04,-1.15,9.23,0.06,-0.13,-0.11
60,-1.19,-1.04,9.04,0.06,-0.13,-0.11
66,-1.19,-1.04,9.04,0.05,-0.13,-0.14
71,-1.19,-1.04,9.04,0.09,-0.04,-0.12
76,-4.25,-1.42,9.12,0.09,-0.04,-0.12
81,-2.61,-1.53,10.00,0.09,-0.04,-0.12
86,-2.61,-1.53,10.00,0.14,0.04,-0.05
91,-2.61,-1.53,10.00,0.13,-0.04,-0.05
96,-2.61,-1.53,10.00,0.12,-0.15,-0.06
101,-2.61,-1.53,10.00,0.12,-0.21,-0.08
106,0.54,-2.72,10.92,0.12,-0.21,-0.08
110,-0.84,-2.45,9.00,0.12,-0.21,-0.08
116,-0.84,-2.45,9.00,0.20,-0.02,-0.02
121,-0.84,-2.45,9.00,0.23,0.10,0.06
126,-1.91,-0.80,9.58,0.23,0.10,0.06
131,-1.27,0.23,9.00,0.23,0.10,0.06
136,-0.34,-0.11,9.58,0.23,0.10,0.06
141,0.54,-0.96,9.35,0.23,0.10,0.06
145,0.38,-1.38,10.53,0.23,0.10,0.06
151,0.38,-1.38,10.53,0.21,-0.09,0.11
156,0.38,-1.38,10.53,0.22,-0.09,0.18
161,-1.88,-0.54,8.85,0.22,-0.09,0.18
165,-1.65,-0.11,8.16,0.22,-0.09,0.18
171,-1.65,-0.11,8.16,0.25,-0.00,0.28
176,-0.88,1.07,8.36,0.25,-0.00,0.28
180,-0.30,0.34,8.70,0.25,-0.00,0.28
186,-0.30,0.34,8.70,0.20,-0.11,0.33
191,-0.30,0.34,8.70,0.18,-0.18,0.33
196,2.91,0.00,11.68,0.18,-0.18,0.33
201,2.03,-1.46,11.57,0.18,-0.18,0.33
206,2.03,-1.46,11.57,0.19,-0.13,0.33
211,0.54,-1.99,9.04,0.19,-0.13,0.33
215,-1.19,-1.07,7.93,0.19,-0.13,0.33
221,-1.19,-1.07,7.93,0.21,0.07,0.36
226,-1.19,-1.07,7.93,0.21,0.10,0.34
231,1.53,-0.65,8.20,0.21,0.10,0.34
236,-0.38,-0.96,8.16,0.21,0.10,0.34
241,-0.38,-0.96,8.16,0.16,-0.09,0.32
246,0.96,-2.38,9.27,0.16,-0.09,0.32
251,-1.23,-1.23,8.62,0.16,-0.09,0.32
256,-1.76,-2.87,8.54,0.16,-0.09,0.32
261,1.27,-3.37,8.35,0.16,-0.09,0.32
266,-3.10,-1.42,8.27,0.16,-0.09,0.32
271,-1.57,-2.03,8.16,0.16,-0.09,0.32
276,-1.57,-2.03,8.16,0.19,-0.05,0.32
281,0.27,-1.76,9.08,0.19,-0.05,0.32
286,0.15,-0.92,10.00,0.19,-0.05,0.32
291,0.15,-1.04,9.92,0.19,-0.05,0.32
296,-2.57,-0.57,10.61,0.19,-0.05,0.32
301,-2.95,-0.73,11.34,0.19,-0.05,0.32
306,-2.26,-1.07,10.65,0.19,-0.05,0.32
311,-1.61,0.27,10.96,0.19,-0.05,0.32
316,-1.53,0.65,9.50,0.19,-0.05,0.32
321,0.38,-0.77,9.54,0.19,-0.05,0.32
326,0.57,-0.38,9.38,0.19,-0.05,0.32
331,0.57,-0.38,9.38,0.10,-0.04,0.17
336,2.57,-1.00,10.11,0.10,-0.04,0.17
341,3.29,-1.84,10.92,0.10,-0.04,0.17
346,3.29,-1.84,10.92,0.12,-0.16,0.17
351,0.50,-0.46,11.88,0.12,-0.16,0.17
356,-0.30,0.08,12.11,0.12,-0.16,0.17
361,-2.07,0.92,10.69,0.12,-0.16,0.17
366,-2.57,2.99,9.46,0.12,-0.16,0.17
371,-1.15,2.07,8.39,0.12,-0.16,0.17
376,-0.61,2.64,7.62,0.12,-0.16,0.17
381,-0.61,2.64,7.62,-0.02,0.13,0.09
386,-1.04,-0.42,7.74,-0.02,0.13,0.09
391,-1.00,-2.14,8.73,-0.02,0.13,0.09
396,-1.11,-3.87,8.88,-0.02,0.13,0.09
401,-1.88,-0.96,9.77,-0.02,0.13,0.09
406,-0.27,0.04,8.89,-0.02,0.13,0.09
411,-0.11,0.84,10.00,-0.02,0.13,0.09
416,1.46,1.61,9.12,-0.02,0.13,0.09
421,1.91,0.42,10.61,-0.02,0.13,0.09
426,2.57,0.27,10.65,-0.02,0.13,0.09
431,1.15,0.30,10.91,-0.02,0.13,0.09
436,0.08,2.53,9.58,-0.02,0.13,0.09
441,0.08,2.53,9.58,-0.01,0.13,0.34
446,0.08,2.53,9.58,-0.01,0.16,0.33
451,-2.22,0.46,9.20,-0.01,0.16,0.33
456,-1.53,0.04,9.46,-0.01,0.16,0.33
461,-1.00,0.77,9.16,-0.01,0.16,0.33
466,-1.00,0.77,9.16,0.04,0.11,0.41
471,-0.30,-0.42,9.00,0.04,0.11,0.41
476,-0.30,-0.42,9.00,0.02,-0.12,0.50
481,-0.73,-0.61,9.27,0.02,-0.12,0.50
486,-0.38,-1.23,10.15,0.02,-0.12,0.50
491,-1.07,-2.07,10.07,0.02,-0.12,0.50
496,-2.22,-2.34,9.88,0.02,-0.12,0.50
501,-2.22,-2.34,9.88,0.01,-0.03,0.54
506,-2.49,-2.64,9.85,0.01,-0.03,0.54
511,-0.77,-1.91,9.92,0.01,-0.03,0.54
516,0.73,-1.61,10.50,0.01,-0.03,0.54
521,1.91,-2.45,10.07,0.01,-0.03,0.54
525,1.91,-2.45,10.07,-0.04,-0.12,0.43
531,0.54,-2.72,9.16,-0.04,-0.12,0.43
536,0.54,-2.72,9.16,-0.04,-0.09,0.41
542,0.15,-2.18,10.27,-0.04,-0.09,0.41
546,0.15,-2.18,10.27,-0.01,0.09,0.38
551,0.08,-0.04,10.30,-0.01,0.09,0.38
556,0.38,-0.11,11.80,-0.01,0.09,0.38
561,0.80,0.11,11.42,-0.01,0.09,0.38
566,1.38,-0.65,11.41,-0.01,0.09,0.38
571,0.92,-1.42,10.11,-0.01,0.09,0.38
576,-0.42,-0.84,9.04,-0.01,0.09,0.38
581,-0.57,-0.88,9.23,-0.01,0.09,0.38
586,-1.57,0.15,8.01,-0.01,0.09,0.38
591,-1.57,0.15,8.01,-0.05,0.15,0.26
596,-1.65,1.38,6.78,-0.05,0.15,0.26
601,-1.15,1.68,7.23,-0.05,0.15,0.26
606,0.11,1.27,8.20,-0.05,0.15,0.26
611,1.04,1.00,9.04,-0.05,0.15,0.26
616,2.18,0.69,10.11,-0.05,0.15,0.26
621,2.07,1.95,11.00,-0.05,0.15,0.26
626,2.72,0.46,12.14,-0.05,0.15,0.26
631,2.72,0.46,12.14,-0.27,-0.05,0.05
636,2.07,-0.27,11.41,-0.27,-0.05,0.05
641,0.88,0.08,8.78,-0.27,-0.05,0.05
646,1.49,-0.27,10.73,-0.27,-0.05,0.05
651,1.34,0.34,10.35,-0.27,-0.05,0.05
656,0.23,0.61,9.69,-0.27,-0.05,0.05
662,0.46,0.00,10.53,-0.27,-0.05,0.05
666,0.46,0.00,10.53,-0.22,0.18,-0.03
671,0.00,0.69,8.82,-0.22,0.18,-0.03
676,-0.15,0.46,8.58,-0.22,0.18,-0.03
681,0.65,0.73,9.80,-0.22,0.18,-0.03
686,0.34,1.38,8.12,-0.22,0.18,-0.03
691,1.84,0.77,8.96,-0.22,0.18,-0.03
696,2.22,0.77,8.84,-0.22,0.18,-0.03
701,2.22,0.77,8.84,-0.32,-0.08,-0.21
706,2.22,0.77,8.84,-0.32,-0.04,-0.23
711,2.30,-0.08,10.45,-0.32,-0.04,-0.23
716,1.38,0.34,10.07,-0.32,-0.04,-0.23
722,1.57,0.34,11.38,-0.32,-0.04,-0.23
726,-1.15,0.46,10.80,-0.32,-0.04,-0.23
731,-1.07,0.77,10.30,-0.32,-0.04,-0.23
736,-1.07,0.77,10.30,-0.27,0.20,-0.34
741,0.61,1.23,9.35,-0.27,0.20,-0.34
746,1.61,0.19,9.12,-0.27,0.20,-0.34
751,1.95,-0.42,8.92,-0.27,0.20,-0.34
756,1.84,0.34,8.70,-0.27,0.20,-0.34
761,2.11,0.73,9.08,-0.27,0.20,-0.34
766,1.88,1.04,10.53,-0.27,0.20,-0.34
771,1.00,0.38,10.61,-0.27,0.20,-0.34
776,1.57,0.57,10.46,-0.27,0.20,-0.34
781,0.54,0.88,11.07,-0.27,0.20,-0.34
786,0.54,0.88,11.07,-0.29,0.15,-0.46
791,-1.00,0.23,8.54,-0.29,0.15,-0.46
796,-0.57,1.07,8.20,-0.29,0.15,-0.46
801,-1.76,2.22,7.39,-0.29,0.15,-0.46
806,0.08,0.46,8.20,-0.29,0.15,-0.46
811,0.61,0.42,8.66,-0.29,0.15,-0.46
816,2.07,0.54,9.58,-0.29,0.15,-0.46
821,2.07,0.54,9.58,-0.31,-0.08,-0.50
825,2.07,0.54,9.58,-0.31,-0.11,-0.50
831,1.04,-0.23,9.43,-0.31,-0.11,-0.50
836,1.07,-0.69,9.00,-0.31,-0.11,-0.50
841,1.07,-0.69,9.00,-0.26,-0.04,-0.43
846,1.15,-0.54,8.96,-0.26,-0.04,-0.43
851,0.54,-0.08,9.35,-0.26,-0.04,-0.43
857,0.54,-1.04,9.77,-0.26,-0.04,-0.43
861,1.11,-0.38,11.76,-0.26,-0.04,-0.43
865,1.49,-0.65,11.57,-0.26,-0.04,-0.43
871,1.49,-0.65,11.57,-0.19,0.08,-0.37
877,1.49,-0.65,11.57,-0.16,0.11,-0.34
881,0.23,-0.57,9.08,-0.16,0.11,-0.34
886,0.50,-1.19,9.61,-0.16,0.11,-0.34
891,0.50,-1.19,9.61,-0.11,0.03,-0.26
896,0.42,-0.69,9.00,-0.11,0.03,-0.26
901,0.54,-0.34,8.39,-0.11,0.03,-0.26
906,-0.04,-1.07,9.20,-0.11,0.03,-0.26
912,0.61,-0.46,9.00,-0.11,0.03,-0.26
916,0.30,-1.04,10.31,-0.11,0.03,-0.26
921,1.04,-1.15,10.07,-0.11,0.03,-0.26
927,0.69,-1.19,10.19,-0.11,0.03,-0.26
931,0.88,-1.42,9.54,-0.11,0.03,-0.26
936,0.69,-1.91,9.89,-0.11,0.03,-0.26
941,0.92,-2.26,8.78,-0.11,0.03,-0.26
945,0.92,-2.26,8.78,-0.05,-0.05,-0.09
952,1.19,-2.30,8.31,-0.05,-0.05,-0.09
957,0.04,-1.34,9.46,-0.05,-0.05,-0.09
961,0.04,-1.34,9.46,-0.00,-0.03,-0.05
966,0.04,-1.34,9.46,0.01,-0.02,-0.02
972,1.38,-1.49,10.46,0.01,-0.02,-0.02
976,1.38,-1.49,10.46,-0.01,-0.00,0.02
981,1.68,-2.26,8.96,-0.01,-0.00,0.02
986,1.15,-1.53,9.04,-0.01,-0.00,0.02
992,0.69,-2.30,9.23,-0.01,-0.00,0.02
996,0.69,-2.30,9.23,0.04,-0.03,0.06
1001,0.23,-2.11,8.73,0.04,-0.03,0.06
1006,0.04,-1.30,9.16,0.04,-0.03,0.06
1012,0.11,-1.57,10.11,0.04,-0.03,0.06
1016,1.00,-1.53,10.88,0.04,-0.03,0.06
1021,0.38,-0.80,10.65,0.04,-0.03,0.06
1026,1.49,-1.57,10.42,0.04,-0.03,0.06
1032,1.38,-2.03,10.19,0.04,-0.03,0.06
1036,1.80,-2.53,8.70,0.04,-0.03,0.06
1042,2.07,-2.91,8.82,0.04,-0.03,0.06
1046,2.07,-2.91,8.82,0.06,-0.08,0.09
1051,1.00,-2.45,8.36,0.06,-0.08,0.09
1057,0.00,-1.76,8.20,0.06,-0.08,0.09
1061,0.00,-1.76,8.20,0.10,-0.01,0.13
1066,0.00,-1.76,8.20,0.08,0.01,0.11
1071,-0.80,-0.65,11.00,0.08,0.01,0.11
1077,0.65,-0.73,11.34,0.08,0.01,0.11
1081,0.65,-0.73,11.34,0.04,-0.01,0.08
1086,0.65,-0.73,11.34,0.03,-0.06,0.09
1092,2.80,-1.99,10.80,0.03,-0.06,0.09
1096,2.80,-1.99,10.80,0.04,-0.08,0.10
1101,2.80,-1.99,10.80,0.06,-0.06,0.11
1106,1.42,-0.77,9.65,0.06,-0.06,0.11
1112,1.34,-1.04,9.89,0.06,-0.06,0.11
1116,1.34,-1.04,9.89,0.09,0.05,0.10
1121,1.15,-0.34,10.54,0.09,0.05,0.10
1126,1.68,-0.96,9.93,0.09,0.05,0.10
1132,0.73,0.15,9.80,0.09,0.05,0.10
1136,0.73,0.15,9.80,0.04,0.06,0.05
1141,-0.61,0.08,7.89,0.04,0.06,0.05
1146,-0.46,0.11,9.00,0.04,0.06,0.05
1152,0.46,-0.34,8.85,0.04,0.06,0.05
1156,-0.54,-0.27,8.81,0.04,0.06,0.05
1161,-1.11,0.08,8.54,0.04,0.06,0.05
1166,-1.11,0.08,8.54,0.00,-0.04,-0.02
1171,-1.11,0.08,8.54,-0.01,-0.07,-0.02
1177,2.84,-0.30,10.27,-0.01,-0.07,-0.02
1181,2.84,-0.30,10.27,-0.04,-0.14,-0.03
1186,2.84,-0.30,10.27,-0.03,-0.15,-0.02
1191,2.87,0.23,9.16,-0.03,-0.15,-0.02
1197,1.38,-0.46,9.27,-0.03,-0.15,-0.02
1201,1.38,-0.46,9.27,-0.04,0.00,-0.06
1206,1.38,-0.46,9.27,-0.02,0.06,-0.07
1212,-0.42,-0.38,10.77,-0.02,0.06,-0.07
1216,-0.42,-0.38,10.77,-0.03,0.15,-0.09
1221,-0.42,-0.38,10.77,-0.03,0.17,-0.11
1226,-0.42,-0.38,10.77,-0.04,0.15,-0.14
1232,-0.65,2.03,8.82,-0.04,0.15,-0.14
1236,-0.65,2.03,8.82,-0.08,0.07,-0.18
1241,1.27,0.34,10.34,-0.08,0.07,-0.18
1246,2.57,-0.61,10.49,-0.08,0.07,-0.18
1252,1.46,0.34,9.50,-0.08,0.07,-0.18
1256,1.46,0.34,9.50,-0.10,-0.11,-0.17
1261,1.19,0.80,10.11,-0.10,-0.11,-0.17
1266,1.38,0.46,10.49,-0.10,-0.11,-0.17
1272,1.49,0.00,10.65,-0.10,-0.11,-0.17
1276,1.49,0.57,9.73,-0.10,-0.11,-0.17
1281,1.46,0.34,9.89,-0.10,-0.11,-0.17
1286,1.46,0.34,9.89,-0.12,0.08,-0.23
1291,1.46,0.34,9.89,-0.12,0.10,-0.26
1296,0.42,0.61,9.27,-0.12,0.10,-0.26
1302,-0.69,0.80,8.92,-0.12,0.10,-0.26
1306,-0.69,0.80,8.92,-0.10,0.11,-0.29
1311,-0.30,0.50,9.38,-0.10,0.11,-0.29
1317,0.04,0.04,9.20,-0.10,0.11,-0.29
1321,0.04,0.04,9.20,-0.15,0.04,-0.35
1326,0.04,0.04,9.20,-0.14,-0.01,-0.37
1332,0.23,0.42,8.58,-0.14,-0.01,-0.37
1336,0.23,0.42,8.58,-0.13,-0.02,-0.34
1341,0.23,0.42,8.58,-0.12,0.01,-0.33
1346,0.23,0.42,8.58,-0.12,0.01,-0.33
1352,-0.46,-0.04,9.73,-0.12,0.01,-0.33
1356,-0.46,-0.04,9.73,-0.12,-0.01,-0.37
1361,2.11,-0.30,11.00,-0.12,-0.01,-0.37
1366,2.26,-0.54,10.88,-0.12,-0.01,-0.37
1372,3.03,0.23,10.65,-0.12,-0.01,-0.37
1376,3.03,0.23,10.65,-0.11,-0.02,-0.33
1381,1.76,-0.34,10.61,-0.11,-0.02,-0.33
1387,0.46,-1.11,9.69,-0.11,-0.02,-0.33
1391,0.46,-1.11,9.69,-0.08,0.11,-0.36
1396,-0.50,-1.04,9.12,-0.08,0.11,-0.36
1402,-0.54,-1.57,9.30,-0.08,0.11,-0.36
1406,-0.54,-1.57,9.30,-0.04,0.09,-0.32
1411,-0.54,-1.57,9.30,-0.04,0.04,-0.30
1416,1.30,0.15,9.50,-0.04,0.04,-0.30
1422,1.30,0.11,8.82,-0.04,0.04,-0.30
1426,1.30,0.11,8.82,-0.07,-0.07,-0.31
1431,1.99,-0.38,9.50,-0.07,-0.07,-0.31
1437,1.42,-0.65,10.19,-0.07,-0.07,-0.31
1441,1.42,-0.65,10.19,-0.07,-0.10,-0.26
1446,1.42,-0.65,10.19,-0.08,-0.09,-0.25
1451,2.80,-1.15,10.54,-0.08,-0.09,-0.25
1457,3.14,-1.49,10.96,-0.08,-0.09,-0.25
1461,3.14,-1.49,10.96,-0.04,0.03,-0.21
1466,3.14,-1.49,10.96,-0.02,0.09,-0.19
1472,0.61,-2.45,10.00,-0.02,0.09,-0.19
1476,0.61,-2.45,10.00,0.04,0.15,-0.14
1481,0.61,-2.45,10.00,0.02,0.14,-0.13
1486,0.61,-2.45,10.00,0.05,0.10,-0.11
1492,0.84,-1.95,9.16,0.05,0.10,-0.11
1496,0.84,-1.95,9.16,0.03,-0.05,-0.08
1501,1.84,-1.99,9.54,0.03,-0.05,-0.08
1507,1.49,-1.38,9.77,0.03,-0.05,-0.08
1511,1.49,-1.38,9.77,0.04,-0.10,-0.03
1516,1.49,-1.38,9.77,0.04,-0.07,-0.02
1522,1.19,-2.03,8.01,0.04,-0.07,-0.02
1526,1.19,-2.03,8.01,0.07,-0.06,-0.01
1531,1.19,-2.03,8.01,0.10,-0.05,0.00
1536,2.03,-1.61,10.15,0.10,-0.05,0.00
1542,1.46,-1.42,9.73,0.10,-0.05,0.00
1546,1.46,-1.42,9.73,0.10,0.02,0.03
1551,1.46,-1.42,9.73,0.10,0.05,0.01
1557,0.11,-1.07,9.84,0.10,0.05,0.01
1561,0.11,-1.07,9.84,0.10,0.04,-0.00
1566,0.11,-1.07,9.84,0.08,-0.01,0.03
1571,1.15,-1.30,10.00,0.08,-0.01,0.03
1577,1.42,-1.80,10.04,0.08,-0.01,0.03
1581,1.42,-1.80,10.04,0.08,-0.07,0.04
1586,1.42,-1.80,10.04,0.08,-0.06,0.05
1592,1.38,-1.46,9.39,0.08,-0.06,0.05
1596,1.38,-1.46,9.39,0.10,-0.04,0.07
1601,1.38,-1.46,9.39,0.11,-0.02,0.09
1606,1.38,-1.46,9.39,0.11,-0.01,0.12
1612,-0.15,-1.04,8.08,0.11,-0.01,0.12
1616,-0.15,-1.04,8.08,0.12,0.01,0.13
1621,-0.15,-1.04,8.08,0.12,0.03,0.13
1627,1.27,-1.27,8.81,0.12,0.03,0.13
1631,1.27,-1.27,8.81,0.11,-0.05,0.18
1637,1.27,-1.27,8.81,0.10,-0.09,0.21
1641,2.22,-0.57,9.96,0.10,-0.09,0.21
1647,2.07,-0.80,10.07,0.10,-0.09,0.21
1651,2.07,-0.80,10.07,0.07,-0.09,0.22
1656,2.07,-0.80,10.07,0.08,-0.05,0.23
1662,1.61,-1.57,10.88,0.08,-0.05,0.23
1666,1.61,-1.57,10.88,0.10,-0.00,0.28
1671,1.61,-1.57,10.88,0.10,0.02,0.30
1677,0.54,-1.07,10.07,0.10,0.02,0.30
1681,0.54,-1.07,10.07,0.11,0.07,0.28
1686,0.54,-1.07,10.07,0.12,0.08,0.28
1691,0.54,-1.07,10.07,0.12,0.07,0.28
1697,0.30,-0.88,10.80,0.12,0.07,0.28
1701,0.30,-0.88,10.80,0.09,-0.03,0.29
1706,0.30,-0.88,10.80,0.08,-0.08,0.29
1712,0.61,-1.11,8.66,0.08,-0.08,0.29
1716,0.61,-1.11,8.66,0.05,-0.11,0.25
1721,0.61,-1.11,8.66,0.04,-0.12,0.23
1726,0.61,-1.11,8.66,0.03,-0.12,0.22
1732,2.03,-0.54,9.54,0.03,-0.12,0.22
1736,2.03,-0.54,9.54,0.04,-0.08,0.21
1741,2.03,-0.54,9.54,0.03,-0.02,0.19
1746,2.03,-0.54,9.54,0.02,0.04,0.16
1752,-0.19,-0.80,10.30,0.02,0.04,0.16
1756,-0.19,-0.80,10.30,0.03,0.10,0.12
1761,-0.19,-0.80,10.30,0.03,0.08,0.13
1767,0.30,-0.73,9.12,0.03,0.08,0.13
1771,0.30,-0.73,9.12,0.01,0.01,0.12
1776,0.30,-0.73,9.12,-0.00,-0.03,0.09
1782,0.50,-0.61,9.04,-0.00,-0.03,0.09
1786,0.50,-0.61,9.04,-0.02,-0.08,0.04
1791,0.50,-0.61,9.04,-0.02,-0.08,0.02
1796,1.95,-0.92,9.84,-0.02,-0.08,0.02
1802,1.61,-0.46,9.84,-0.02,-0.08,0.02
1806,1.61,-0.46,9.84,-0.06,-0.03,-0.04
1811,1.61,-0.46,9.84,-0.05,0.00,-0.05
1817,0.84,0.04,8.42,-0.05,0.00,-0.05
1821,0.84,0.04,8.42,-0.04,0.07,-0.06
1826,0.84,0.04,8.42,-0.04,0.08,-0.06
1832,1.68,-0.46,9.88,-0.04,0.08,-0.06
1836,1.68,-0.46,9.88,-0.07,0.03,-0.08
1841,1.68,-0.46,9.88,-0.07,0.00,-0.08
1846,1.68,-0.46,9.88,-0.06,0.01,-0.09
1852,0.34,0.30,9.20,-0.06,0.01,-0.09
1856,0.34,0.30,9.20,-0.07,0.08,-0.09
1861,0.34,0.30,9.20,-0.07,0.10,-0.08
1866,0.34,0.30,9.20,-0.06,0.05,-0.07
1872,1.46,-0.77,9.46,-0.06,0.05,-0.07
1876,1.46,-0.77,9.46,-0.08,-0.04,-0.07
1881,1.46,-0.77,9.46,-0.09,-0.06,-0.08
1888,2.34,-0.30,10.00,-0.09,-0.06,-0.08
1891,2.34,-0.30,10.00,-0.08,-0.04,-0.06
1896,2.34,-0.30,10.00,-0.07,-0.01,-0.04
1902,1.00,0.34,10.41,-0.07,-0.01,-0.04
1906,1.00,0.34,10.41,-0.07,0.07,-0.04
1911,1.00,0.34,10.41,-0.07,0.11,-0.04
1916,1.00,0.34,10.41,-0.07,0.12,-0.04
1922,1.19,-1.00,9.46,-0.07,0.12,-0.04
1926,1.19,-1.00,9.46,-0.08,0.09,-0.03
1931,1.19,-1.00,9.46,-0.08,0.04,-0.04
1936,1.65,-1.15,9.04,-0.08,0.04,-0.04
1941,1.65,-1.15,9.04,-0.08,-0.05,-0.07
1946,1.65,-1.15,9.04,-0.08,-0.06,-0.06
1951,1.53,0.04,9.73,-0.08,-0.06,-0.06
1957,0.65,0.11,9.50,-0.08,-0.06,-0.06
1961,0.65,0.11,9.50,-0.09,0.09,-0.08
1966,0.65,0.11,9.50,-0.09,0.13,-0.12
1972,0.73,-1.00,10.03,-0.09,0.13,-0.12
1976,0.73,-1.00,10.03,-0.11,0.10,-0.17
1981,0.73,-1.00,10.03,-0.12,0.04,-0.17
1986,0.73,-1.00,10.03,-0.12,0.00,-0.17
1992,0.57,-1.42,9.04,-0.12,0.00,-0.17
1996,0.57,-1.42,9.04,-0.13,-0.02,-0.21
2001,0.57,-1.42,9.04,-0.13,-0.03,-0.24
2006,0.57,-1.42,9.04,-0.12,-0.00,-0.25
2012,0.88,-1.00,10.00,-0.12,-0.00,-0.25
2016,0.88,-1.00,10.00,-0.11,0.05,-0.26
2021,0.73,-1.34,9.77,-0.11,0.05,-0.26
2027,0.38,-1.04,9.30,-0.11,0.05,-0.26
2031,0.38,-1.04,9.30,-0.11,0.04,-0.29
2036,0.38,-1.04,9.30,-0.10,0.01,-0.29
2042,1.07,-1.23,9.73,-0.10,0.01,-0.29
2046,1.07,-1.23,9.73,-0.08,-0.02,-0.27
2051,1.07,-1.23,9.73,-0.10,-0.02,-0.27
2057,1.42,-1.11,10.54,-0.10,-0.02,-0.27
2061,1.42,-1.11,10.54,-0.10,0.00,-0.29
2066,1.42,-1.11,10.54,-0.09,0.02,-0.31
2071,1.42,-1.11,10.54,-0.09,0.06,-0.32
2078,0.46,-0.08,10.03,-0.09,0.06,-0.32
2081,0.46,-0.08,10.03,-0.08,0.11,-0.32
2086,0.46,-0.08,10.03,-0.07,0.12,-0.31
2092,0.46,-0.08,10.03,-0.07,0.12,-0.31
2096,0.46,-0.08,10.03,-0.07,0.09,-0.30
2101,0.46,-0.08,10.03,-0.07,0.05,-0.29
2106,0.46,-0.08,10.03,-0.07,0.01,-0.29
2112,1.11,-0.04,9.31,-0.07,0.01,-0.29
2116,1.11,-0.04,9.31,-0.10,-0.02,-0.30
2121,1.11,-0.04,9.31,-0.10,-0.02,-0.30
2127,1.11,-0.04,9.31,-0.07,-0.01,-0.29
2131,1.11,-0.04,9.31,-0.07,0.00,-0.28
2136,1.11,-0.04,9.31,-0.07,0.01,-0.27
2141,1.42,-0.84,10.19,-0.07,0.01,-0.27
2147,1.42,-0.42,10.27,-0.07,0.01,-0.27
2151,1.42,-0.42,10.27,-0.07,0.06,-0.30
2156,1.42,-0.42,10.27,-0.08,0.08,-0.31
2161,0.73,-0.57,9.38,-0.08,0.08,-0.31
2167,0.92,-0.80,9.96,-0.08,0.08,-0.31
2171,0.92,-0.80,9.96,-0.07,0.04,-0.33
2176,1.49,-0.57,10.27,-0.07,0.04,-0.33
2182,1.34,-1.00,9.69,-0.07,0.04,-0.33
2186,1.34,-1.00,9.69,-0.09,0.02,-0.35
2191,1.34,-1.00,9.69,-0.08,0.03,-0.36
2197,1.19,-0.61,8.89,-0.08,0.03,-0.36
2201,1.19,-0.61,8.89,-0.08,0.06,-0.36
2206,1.19,-0.61,8.89,-0.09,0.07,-0.37
2211,1.19,-0.61,8.89,-0.09,0.06,-0.38
2217,1.27,-0.57,9.39,-0.09,0.06,-0.38
2221,1.27,-0.57,9.39,-0.09,0.06,-0.38
2226,1.27,-0.57,9.39,-0.08,0.05,-0.37
2233,0.84,-1.30,9.58,-0.08,0.05,-0.37
2236,0.84,-1.30,9.58,-0.09,0.02,-0.38
2241,0.84,-1.30,9.58,-0.09,-0.00,-0.39
2246,0.84,-1.30,9.58,-0.09,-0.01,-0.40
2252,1.84,-1.49,10.11,-0.09,-0.01,-0.40
2256,1.84,-1.49,10.11,-0.08,0.02,-0.40
2261,1.84,-1.49,10.11,-0.07,0.03,-0.40
2267,1.15,-1.68,9.27,-0.07,0.03,-0.40
2271,1.15,-1.68,9.27,-0.06,0.06,-0.40
2276,1.15,-1.68,9.27,-0.04,0.08,-0.40
2281,0.50,-1.46,9.96,-0.04,0.08,-0.40
2287,0.42,-1.04,9.50,-0.04,0.08,-0.40
2291,0.42,-1.04,9.50,-0.03,0.08,-0.38
2296,0.42,-1.04,9.50,-0.03,0.05,-0.37
2302,1.30,-1.27,9.27,-0.03,0.05,-0.37
2306,1.30,-1.27,9.27,-0.03,0.00,-0.36
2311,1.30,-1.27,9.27,-0.04,-0.01,-0.36
2316,1.30,-1.27,9.27,-0.03,-0.01,-0.36
2321,1.30,-1.27,9.27,-0.02,-0.01,-0.34
2326,1.30,-1.27,9.27,0.00,0.01,-0.31
2331,1.30,-1.27,9.27,0.02,0.04,-0.31
2336,0.65,-1.30,10.00,0.02,0.04,-0.31
2341,0.65,-1.30,10.00,0.03,0.07,-0.28
2346,0.65,-1.30,10.00,0.02,0.08,-0.27
2352,-0.15,-1.11,9.73,0.02,0.08,-0.27
2356,-0.15,-1.11,9.73,0.03,0.05,-0.23
2361,-0.15,-1.11,9.73,0.03,0.01,-0.20
2365,-0.15,-1.11,9.73,0.03,-0.01,-0.18
2370,1.38,-1.65,9.38,0.03,-0.01,-0.18
2377,1.38,-1.65,9.38,0.04,-0.02,-0.16
2382,1.38,-1.65,9.38,0.04,-0.01,-0.14
2387,1.38,-1.65,9.38,0.06,0.04,-0.10
2391,1.38,-1.65,9.38,0.07,0.06,-0.06
2396,1.38,-1.65,9.38,0.08,0.06,-0.04
2401,1.38,-1.65,9.38,0.07,0.05,-0.02
2407,0.42,-1.42,9.34,0.07,0.05,-0.02
2411,0.42,-1.42,9.34,0.08,0.02,0.03
2416,0.42,-1.42,9.34,0.08,0.00,0.06
2422,0.19,-1.34,8.58,0.08,0.00,0.06
2426,0.19,-1.34,8.58,0.09,-0.03,0.12
2431,0.19,-1.34,8.58,0.09,-0.03,0.14
2436,0.19,-1.34,8.58,0.10,-0.04,0.16
2441,0.19,-1.34,8.58,0.10,-0.05,0.19
2446,0.19,-1.34,8.58,0.10,-0.06,0.21
2451,0.19,-1.34,8.58,0.10,-0.05,0.21
2456,0.46,-1.19,10.07,0.10,-0.05,0.21
2461,0.46,-1.19,10.07,0.11,-0.01,0.20
2466,0.46,-1.19,10.07,0.10,-0.01,0.20
2472,0.46,-1.19,10.07,0.10,-0.01,0.21
2476,0.46,-1.19,10.07,0.10,-0.03,0.22
2481,0.46,-1.19,10.07,0.10,-0.04,0.22
2486,0.46,-1.19,10.07,0.09,-0.06,0.21
2492,0.46,-1.19,9.20,0.09,-0.06,0.21
2496,0.46,-1.19,9.20,0.08,0.00,0.19
2501,0.46,-1.19,9.20,0.08,0.02,0.18
2507,0.46,-1.19,9.20,0.08,0.02,0.19
2511,0.46,-1.19,9.20,0.08,0.00,0.19
2516,0.46,-1.19,9.20,0.07,-0.00,0.19
2521,0.46,-1.19,9.20,0.06,-0.01,0.18
2527,0.84,-0.96,9.30,0.06,-0.01,0.18
2531,0.84,-0.96,9.30,0.05,0.02,0.16
2536,0.84,-0.96,9.30,0.05,0.03,0.16
2542,0.84,-0.96,9.30,0.04,0.02,0.16
2546,0.84,-0.96,9.30,0.04,-0.01,0.16
2551,0.84,-0.96,9.30,0.05,-0.02,0.14
2556,0.84,-0.96,9.30,0.03,-0.02,0.13
2562,0.84,-0.84,9.16,0.03,-0.02,0.13
2566,0.84,-0.84,9.16,0.02,0.01,0.09
2571,0.84,-0.84,9.16,0.02,0.01,0.09
2576,0.84,-0.84,9.16,0.03,0.00,0.09
2581,0.84,-0.84,9.16,0.02,-0.01,0.08
2586,0.84,-0.84,9.16,0.01,-0.01,0.07
2591,0.84,-0.84,9.16,0.00,-0.01,0.05
2597,0.30,-0.61,10.07,0.00,-0.01,0.05
2601,0.30,-0.61,10.07,0.01,0.03,0.03
2606,0.30,-0.61,10.07,0.01,0.07,0.04
2612,0.30,-0.61,10.07,0.01,0.08,0.04
2616,0.30,-0.61,10.07,-0.00,0.07,0.03
2621,0.30,-0.61,10.07,-0.01,0.04,0.03
2626,0.30,-0.61,10.07,-0.01,-0.02,0.04
2632,1.07,-1.23,9.04,-0.01,-0.02,0.04
2636,1.07,-1.23,9.04,-0.01,-0.05,0.05
2641,1.07,-1.23,9.04,-0.01,-0.04,0.05
2647,1.07,-1.23,9.04,-0.02,-0.00,0.04
2651,1.07,-1.23,9.04,-0.00,0.03,0.03
2656,1.07,-1.23,9.04,-0.01,0.05,0.02
2661,1.07,-1.23,9.04,-0.01,0.04,0.02
2666,1.07,-1.23,9.04,-0.01,0.01,0.01
2671,1.07,-1.23,9.04,-0.01,-0.00,0.01
2676,1.07,-1.23,9.04,-0.01,-0.03,0.01
2682,0.65,-1.88,8.46,-0.01,-0.03,0.01
2686,0.65,-1.88,8.46,-0.00,-0.06,0.02
2691,0.65,-1.88,8.46,0.01,-0.07,0.02
2696,0.65,-1.88,8.46,0.02,-0.04,0.02
2701,0.65,-1.88,8.46,0.03,0.03,0.04
2706,0.65,-1.88,8.46,0.03,0.07,0.05
2711,0.65,-1.88,8.46,0.02,0.09,0.04
2716,-0.38,-1.11,9.93,0.02,0.09,0.04
2721,-0.38,-1.11,9.93,0.03,0.07,0.04
2726,-0.38,-1.11,9.93,0.01,0.04,0.05
2731,-0.38,-1.11,9.93,0.01,0.00,0.06
2736,-0.38,-1.11,9.93,0.01,-0.03,0.06
2741,-0.38,-1.11,9.93,0.01,-0.05,0.07
2746,-0.38,-1.11,9.93,-0.00,-0.04,0.07
2752,-0.34,-0.04,9.96,-0.00,-0.04,0.07
2756,-0.34,-0.04,9.96,0.01,0.03,0.06
2761,-0.34,-0.04,9.96,-0.00,0.05,0.06
2766,-0.34,-0.04,9.96,-0.02,0.05,0.06
2771,-0.34,-0.04,9.96,-0.02,0.03,0.05
2776,-0.34,-0.04,9.96,-0.03,0.01,0.05
2781,-0.34,-0.04,9.96,-0.02,-0.01,0.05
2787,1.34,-0.38,9.23,-0.02,-0.01,0.05
2791,1.34,-0.38,9.23,-0.04,-0.04,0.06
2796,1.34,-0.38,9.23,-0.04,-0.02,0.06
2801,1.34,-0.38,9.23,-0.04,-0.00,0.05
2806,1.34,-0.38,9.23,-0.04,0.02,0.04
2811,1.34,-0.38,9.23,-0.05,0.05,0.03
2816,1.34,-0.38,9.23,-0.06,0.07,0.03
2822,0.65,0.57,9.04,-0.06,0.07,0.03
2826,0.65,0.57,9.04,-0.07,0.06,0.03
2831,0.65,0.57,9.04,-0.08,0.05,0.02
2836,0.65,0.57,9.04,-0.09,0.02,0.03
2841,0.65,0.57,9.04,-0.10,-0.01,0.04
2846,0.65,0.57,9.04,-0.10,-0.01,0.04
2851,0.65,0.57,9.04,-0.11,-0.02,0.03
2857,0.77,-0.30,9.77,-0.11,-0.02,0.03
2861,0.77,-0.30,9.77,-0.11,0.02,0.01
2866,0.77,-0.30,9.77,-0.10,0.03,0.00
2871,0.77,-0.30,9.77,-0.10,0.03,0.01
2876,0.77,-0.30,9.77,-0.11,0.03,-0.00
2881,0.77,-0.30,9.77,-0.11,-0.00,-0.01
2886,0.77,-0.30,9.77,-0.12,-0.02,-0.03
2892,1.57,-1.68,9.34,-0.12,-0.02,-0.03
2896,1.57,-1.68,9.34,-0.13,-0.02,-0.04
2901,1.57,-1.68,9.34,-0.12,0.00,-0.05
2907,1.57,-1.68,9.34,-0.13,0.01,-0.05
2911,1.57,-1.68,9.34,-0.13,0.01,-0.06
2916,1.57,-1.68,9.34,-0.14,0.03,-0.07
2921,1.57,-1.68,9.34,-0.14,0.02,-0.08
2927,1.76,-1.65,9.61,-0.14,0.02,-0.08
2931,1.76,-1.65,9.61,-0.15,0.03,-0.09
2936,1.76,-1.65,9.61,-0.15,0.04,-0.09
2941,0.69,-1.65,9.58,-0.15,0.04,-0.09
2946,0.69,-1.65,9.58,-0.14,0.05,-0.08
2951,0.69,-1.65,9.58,-0.13,0.03,-0.07
2956,0.69,-1.65,9.58,-0.14,0.02,-0.07
2961,0.69,-1.65,9.58,-0.13,0.02,-0.05
2966,0.69,-1.65,9.58,-0.14,0.01,-0.05
2971,0.69,-1.65,9.58,-0.13,0.00,-0.04
2977,1.30,-1.34,9.58,-0.13,0.00,-0.04
2981,1.30,-1.34,9.58,-0.14,-0.01,-0.00
2986,1.30,-1.34,9.58,-0.14,-0.01,0.00
2991,1.30,-1.34,9.58,-0.13,0.00,0.02
2996,1.30,-1.34,9.58,-0.13,0.02,0.03
3001,1.30,-1.34,9.58,-0.13,0.02,0.05
3006,1.30,-1.34,9.58,-0.13,0.03,0.07
3012,0.69,-0.88,9.69,-0.13,0.03,0.07
3016,0.69,-0.88,9.69,-0.14,0.02,0.10
3021,0.69,-0.88,9.69,-0.15,0.01,0.11
3027,0.69,-0.88,9.69,-0.14,0.01,0.12
3031,0.69,-0.88,9.69,-0.15,0.01,0.14
3036,0.69,-0.88,9.69,-0.15,0.02,0.16
3041,0.69,-0.88,9.69,-0.15,0.02,0.17
3047,0.88,-0.08,9.65,-0.15,0.02,0.17
3051,0.88,-0.08,9.65,-0.16,0.01,0.19
3056,0.88,-0.08,9.65,-0.16,0.02,0.20
3061,0.88,-0.08,9.65,-0.16,0.03,0.20
3067,-0.08,-0.88,9.42,-0.16,0.03,0.20
3071,-0.08,-0.88,9.42,-0.16,0.02,0.23
3076,-0.08,-0.88,9.42,-0.17,0.00,0.24
3082,0.19,-0.69,9.85,-0.17,0.00,0.24
3086,0.19,-0.69,9.85,-0.19,-0.01,0.24
3091,0.19,-0.69,9.85,-0.19,0.00,0.24
3096,0.19,-0.69,9.85,-0.19,0.01,0.25
3102,0.34,-0.54,9.35,-0.19,0.01,0.25
3106,0.34,-0.54,9.35,-0.20,0.03,0.26
3111,0.34,-0.54,9.35,-0.20,0.04,0.25
3117,-0.15,-1.00,9.77,-0.20,0.04,0.25
3121,-0.15,-1.00,9.77,-0.20,0.05,0.28
3126,-0.15,-1.00,9.77,-0.19,0.04,0.30
3132,-0.15,-1.00,9.77,-0.19,0.03,0.31
3136,-0.15,-1.00,9.77,-0.19,0.03,0.32
3141,-0.15,-1.00,9.77,-0.19,0.03,0.32
3146,-0.15,-1.00,9.77,-0.17,0.01,0.33
3152,0.08,-1.99,9.50,-0.17,0.01,0.33
3156,0.08,-1.99,9.50,-0.17,-0.01,0.34
3161,0.08,-1.99,9.50,-0.16,-0.01,0.35
3167,0.08,-1.99,9.50,-0.17,0.02,0.34
3171,0.08,-1.99,9.50,-0.16,0.04,0.32
3176,0.08,-1.99,9.50,-0.18,0.05,0.32
3181,0.08,-1.99,9.50,-0.16,0.06,0.31
3187,-0.73,-2.64,9.58,-0.16,0.06,0.31
3191,-0.73,-2.64,9.58,-0.16,0.06,0.29
3196,-0.73,-2.64,9.58,-0.16,0.04,0.28
3202,-0.61,-4.10,8.84,-0.16,0.04,0.28
3206,-0.61,-4.10,8.84,-0.12,-0.00,0.26
3211,-0.61,-4.10,8.84,-0.11,-0.01,0.26
3216,-0.61,-4.10,8.84,-0.09,-0.02,0.26
3222,0.19,-4.21,9.65,-0.09,-0.02,0.26
3226,0.19,-4.21,9.65,-0.09,-0.00,0.22
3231,0.19,-4.21,9.65,-0.10,0.03,0.18
3237,0.27,-3.68,9.61,-0.10,0.03,0.18
3241,0.27,-3.68,9.61,-0.10,0.06,0.13
3246,0.27,-3.68,9.61,-0.10,0.06,0.12
3251,0.27,-3.68,9.61,-0.08,0.06,0.11
3257,0.88,-4.25,9.50,-0.08,0.06,0.11
3261,0.88,-4.25,9.50,-0.06,0.04,0.09
3266,0.88,-4.25,9.50,-0.04,0.02,0.08
3272,2.03,-4.21,10.23,-0.04,0.02,0.08
3276,2.03,-4.21,10.23,-0.02,0.03,0.06
3281,2.03,-4.21,10.23,-0.01,0.04,0.06
3286,2.03,-4.21,10.23,0.00,0.06,0.08
3292,2.11,-2.34,9.84,0.00,0.06,0.08
3296,2.11,-2.34,9.84,0.01,0.10,0.09
3301,2.11,-2.34,9.84,-0.02,0.11,0.08
3307,2.11,-1.15,9.00,-0.02,0.11,0.08
3311,2.11,-1.15,9.00,-0.03,0.12,0.09
3316,2.11,-1.15,9.00,-0.04,0.11,0.11
3321,2.11,-1.15,9.00,-0.04,0.08,0.13
3327,2.11,-1.38,9.12,-0.04,0.08,0.13
3331,2.11,-1.38,9.12,-0.05,-0.00,0.14
3336,2.11,-1.38,9.12,-0.06,-0.04,0.14
3342,2.03,-1.76,9.34,-0.06,-0.04,0.14
3346,2.03,-1.76,9.34,-0.06,-0.06,0.15
3351,2.03,-1.76,9.34,-0.06,-0.04,0.17
3357,2.03,-1.76,9.34,-0.05,-0.02,0.17
3361,2.03,-1.76,9.34,-0.04,0.01,0.16
3366,2.03,-1.76,9.34,-0.04,0.03,0.15
3371,2.03,-1.76,9.34,-0.05,0.04,0.15
3377,0.57,-1.53,9.65,-0.05,0.04,0.15
3381,0.57,-1.53,9.65,-0.04,0.03,0.14
3386,0.57,-1.53,9.65,-0.06,0.02,0.13
3392,0.57,-1.53,9.65,-0.06,0.01,0.13
3396,0.57,-1.53,9.65,-0.06,0.01,0.12
3401,0.57,-1.53,9.65,-0.07,0.01,0.12
3406,0.57,-1.53,9.65,-0.07,0.01,0.11
3412,0.57,-1.30,9.35,-0.07,0.01,0.11
3416,0.57,-1.30,9.35,-0.07,0.02,0.10
3421,0.57,-1.30,9.35,-0.07,0.03,0.09
3427,0.57,-1.30,9.35,-0.07,0.04,0.09
3431,0.57,-1.30,9.35,-0.06,0.04,0.08
3436,0.57,-1.30,9.35,-0.07,0.04,0.07
3441,0.57,-1.30,9.35,-0.08,0.04,0.06
3447,-0.30,-1.42,9.12,-0.08,0.04,0.06
3451,-0.30,-1.42,9.12,-0.09,0.02,0.03
3456,-0.30,-1.42,9.12,-0.10,-0.00,0.02
3462,-0.23,-1.65,8.92,-0.10,-0.00,0.02
3466,-0.23,-1.65,8.92,-0.12,-0.02,-0.01
3471,-0.23,-1.65,8.92,-0.12,-0.01,-0.01
3476,-0.23,-1.65,8.92,-0.12,-0.00,-0.02
3482,-0.61,-1.76,9.30,-0.12,-0.00,-0.02
3486,-0.61,-1.76,9.30,-0.12,0.02,-0.06
3491,-0.61,-1.76,9.30,-0.13,0.03,-0.07
3497,-0.73,-1.91,9.34,-0.13,0.03,-0.07
3501,-0.73,-1.91,9.34,-0.13,0.04,-0.07
3506,-0.73,-1.91,9.34,-0.13,0.04,-0.08
3511,-0.73,-1.91,9.34,-0.13,0.04,-0.09
3516,-1.00,-2.03,9.50,-0.13,0.04,-0.09
3521,-1.00,-2.03,9.50,-0.12,0.03,-0.09
3526,-1.00,-2.03,9.50,-0.12,0.03,-0.11
3532,-1.00,-2.14,9.50,-0.12,0.03,-0.11
3536,-1.00,-2.14,9.50,-0.13,0.02,-0.13
3541,-1.00,-2.14,9.50,-0.12,0.02,-0.13
3546,-1.00,-2.14,9.50,-0.12,0.02,-0.13
3552,-0.73,-2.07,9.42,-0.12,0.02,-0.13
3556,-0.73,-2.07,9.42,-0.12,0.03,-0.15
3561,-0.73,-2.07,9.42,-0.12,0.04,-0.16
3567,-1.15,-1.76,9.34,-0.12,0.04,-0.16
3571,-1.15,-1.76,9.34,-0.13,0.05,-0.17
3576,-1.15,-1.76,9.34,-0.13,0.05,-0.17
3581,-1.15,-1.76,9.34,-0.13,0.04,-0.17
3587,-1.15,-1.80,9.54,-0.13,0.04,-0.17
3591,-1.15,-1.80,9.54,-0.12,0.03,-0.16
3596,-1.15,-1.80,9.54,-0.11,0.03,-0.14
3602,-1.00,-1.68,9.50,-0.11,0.03,-0.14
3606,-1.00,-1.68,9.50,-0.12,0.03,-0.13
3611,-1.00,-1.68,9.50,-0.11,0.03,-0.13
3616,-1.00,-1.68,9.50,-0.11,0.04,-0.11
3621,-1.00,-1.68,9.50,-0.10,0.04,-0.11
3626,-1.00,-1.68,9.50,-0.09,0.04,-0.09
3631,-1.00,-1.68,9.50,-0.10,0.03,-0.08
3636,-1.53,-2.07,8.88,-0.10,0.03,-0.08
3641,-1.53,-2.07,8.88,-0.10,0.02,-0.07
3646,-1.53,-2.07,8.88,-0.10,0.01,-0.06
3652,-1.23,-2.38,9.34,-0.10,0.01,-0.06
3656,-1.23,-2.38,9.34,-0.10,0.01,-0.05
3661,-1.23,-2.38,9.34,-0.08,-0.01,-0.03
3666,-1.23,-2.38,9.34,-0.09,-0.01,-0.04
3672,0.27,-2.22,9.42,-0.09,-0.01,-0.04
3676,0.27,-2.22,9.42,-0.11,-0.00,-0.07
3681,0.27,-2.22,9.42,-0.10,0.00,-0.06
3687,0.27,-2.22,9.42,-0.10,0.01,-0.06
3691,0.27,-2.22,9.42,-0.09,0.01,-0.08
3696,0.27,-2.22,9.42,-0.09,0.01,-0.10
3701,0.27,-2.22,9.42,-0.10,0.03,-0.12
3707,-0.27,-2.80,9.27,-0.10,0.03,-0.12
3711,-0.27,-2.80,9.27,-0.09,0.03,-0.14
3716,-0.27,-2.80,9.27,-0.10,0.03,-0.16
3722,0.00,-2.91,9.27,-0.10,0.03,-0.16
3726,0.00,-2.91,9.27,-0.09,0.00,-0.17
3731,0.00,-2.91,9.27,-0.09,-0.00,-0.17
3736,0.00,-2.91,9.27,-0.09,-0.01,-0.18
3742,0.42,-3.26,9.39,-0.09,-0.01,-0.18
3746,0.42,-3.26,9.39,-0.08,0.00,-0.19
3751,0.42,-3.26,9.39,-0.07,0.01,-0.19
3757,0.30,-3.22,9.50,-0.07,0.01,-0.19
3761,0.30,-3.22,9.50,-0.04,0.02,-0.19
3766,0.30,-3.22,9.50,-0.04,0.03,-0.18
3771,0.30,-3.22,9.50,-0.04,0.03,-0.17
3776,-0.08,-2.99,9.23,-0.04,0.03,-0.17
3781,-0.08,-2.99,9.23,-0.02,0.03,-0.15
3786,-0.08,-2.99,9.23,-0.03,0.02,-0.14
3792,-0.11,-2.76,9.20,-0.03,0.02,-0.14
3796,-0.11,-2.76,9.20,-0.02,0.00,-0.13
3801,-0.11,-2.76,9.20,-0.02,-0.01,-0.12
3806,-0.11,-2.76,9.20,-0.03,-0.01,-0.11
3812,-0.19,-2.26,9.43,-0.03,-0.01,-0.11
3816,-0.19,-2.26,9.43,-0.02,-0.00,-0.09
3821,-0.19,-2.26,9.43,-0.03,0.01,-0.09
3827,-0.19,-2.26,9.43,-0.02,0.01,-0.07
3831,-0.19,-2.26,9.43,-0.03,0.02,-0.07
3836,-0.19,-2.26,9.43,-0.02,0.02,-0.06
3841,-0.65,-1.76,9.46,-0.02,0.02,-0.06
3847,-0.80,-1.57,9.38,-0.02,0.02,-0.06
3851,-0.80,-1.57,9.38,-0.02,0.01,-0.03
3856,-0.80,-1.57,9.38,-0.03,0.01,-0.02
3862,-0.96,-1.68,9.43,-0.03,0.01,-0.02
3866,-0.96,-1.68,9.43,-0.02,0.00,0.00
3871,-0.96,-1.68,9.43,-0.02,-0.00,0.01
3876,-1.19,-1.49,9.34,-0.02,-0.00,0.01
3881,-1.19,-1.49,9.34,-0.03,-0.00,0.00
3886,-1.19,-1.49,9.34,-0.03,-0.00,0.01
3891,-1.19,-1.49,9.34,-0.03,-0.00,0.01
3896,-1.34,-1.99,9.31,-0.03,-0.00,0.01
3901,-1.34,-1.99,9.31,-0.03,0.00,0.01
3906,-1.34,-1.99,9.31,-0.03,0.00,0.01
3912,-1.34,-1.88,9.35,-0.03,0.00,0.01
3916,-1.34,-1.88,9.35,-0.02,-0.00,0.00
3921,-1.34,-1.88,9.35,-0.02,-0.00,0.00
3926,-1.34,-1.88,9.35,-0.01,0.00,0.01
3932,-1.30,-1.99,9.42,-0.01,0.00,0.01
3936,-1.30,-1.99,9.42,-0.02,0.01,0.01
3941,-1.30,-1.99,9.42,-0.01,0.01,0.01
3947,-1.30,-1.99,9.42,-0.01,0.02,0.01
3951,-1.30,-1.99,9.42,-0.01,0.02,0.01
3956,-1.30,-1.99,9.42,-0.02,0.01,0.01
3961,-1.30,-1.99,9.42,-0.02,0.00,0.01
3967,-1.23,-1.84,9.23,-0.02,0.00,0.01
3971,-1.23,-1.84,9.23,-0.03,-0.00,-0.00
3976,-1.23,-1.84,9.23,-0.04,-0.01,-0.01
3982,-0.73,-1.72,9.35,-0.04,-0.01,-0.01
3986,-0.73,-1.72,9.35,-0.04,-0.00,-0.01
3991,-0.73,-1.72,9.35,-0.04,0.01,-0.02
3996,-0.73,-1.72,9.35,-0.04,-0.00,-0.02
4002,-0.23,-1.76,9.34,-0.04,-0.00,-0.02
4006,-0.23,-1.76,9.34,-0.04,-0.01,-0.02
4011,-0.23,-1.76,9.34,-0.05,0.00,-0.04
4016,-0.65,-1.84,9.39,-0.05,0.00,-0.04
4021,-0.65,-1.84,9.39,-0.03,0.02,-0.02
4026,-0.65,-1.84,9.39,-0.03,0.01,-0.02
4031,-0.65,-1.84,9.39,-0.04,0.01,-0.03
4036,-0.65,-1.19,9.30,-0.04,0.01,-0.03
4041,-0.65,-1.19,9.30,-0.06,0.01,-0.06
4046,-0.65,-1.19,9.30,-0.06,0.01,-0.06
4051,-0.73,-1.68,9.20,-0.06,0.01,-0.06
4056,-0.73,-1.68,9.20,-0.06,0.01,-0.05
4061,-0.73,-1.68,9.20,-0.07,0.01,-0.06
4066,-0.73,-1.68,9.20,-0.07,0.01,-0.07
4071,-0.73,-1.68,9.20,-0.07,0.00,-0.07
4076,-0.73,-1.68,9.20,-0.08,0.00,-0.08
4081,-0.73,-1.68,9.20,-0.08,0.01,-0.08
4086,-0.73,-1.68,9.20,-0.08,0.01,-0.09
4091,-0.73,-1.68,9.20,-0.10,0.01,-0.09
4096,-0.73,-1.68,9.20,-0.09,0.01,-0.09
4101,-0.61,-2.26,9.30,-0.09,0.01,-0.09
4106,-0.65,-2.34,9.34,-0.09,0.01,-0.09
4111,-0.65,-2.34,9.34,-0.08,0.01,-0.10
4116,-0.65,-2.34,9.34,-0.08,0.02,-0.11
4121,-0.73,-2.38,9.34,-0.08,0.02,-0.11
4126,-0.73,-2.38,9.34,-0.09,0.01,-0.12
4131,-0.73,-2.38,9.34,-0.09,0.01,-0.12
4136,-0.73,-2.38,9.34,-0.09,0.02,-0.12
4141,-0.73,-2.38,9.34,-0.07,0.02,-0.11
4146,-0.73,-2.38,9.34,-0.07,0.02,-0.11
4151,-0.73,-2.38,9.34,-0.08,0.02,-0.11
4156,-0.84,-2.53,9.27,-0.08,0.02,-0.11
4161,-0.84,-2.53,9.27,-0.08,0.02,-0.11
4166,-0.84,-2.53,9.27,-0.07,0.01,-0.10
4171,-0.88,-2.68,9.27,-0.07,0.01,-0.10
4176,-0.88,-2.68,9.27,-0.07,0.01,-0.10
4181,-0.88,-2.68,9.27,-0.06,0.01,-0.09
4186,-0.88,-2.68,9.27,-0.06,0.01,-0.08
4191,-0.96,-2.64,9.23,-0.06,0.01,-0.08
4196,-0.96,-2.64,9.23,-0.05,0.01,-0.07
4201,-0.96,-2.64,9.23,-0.06,0.01,-0.07
4206,-0.96,-2.64,9.23,-0.06,0.01,-0.07
4211,-0.96,-2.64,9.23,-0.06,0.01,-0.06
4216,-0.96,-2.64,9.23,-0.05,0.01,-0.05
4221,-0.96,-2.64,9.23,-0.04,0.01,-0.04
4226,-1.15,-2.68,9.23,-0.04,0.01,-0.04
4231,-1.15,-2.68,9.23,-0.05,0.01,-0.03
4236,-1.15,-2.68,9.23,-0.03,0.01,-0.02
4241,-1.19,-2.57,9.30,-0.03,0.01,-0.02
4246,-1.19,-2.57,9.30,-0.03,0.01,-0.01
4251,-1.19,-2.57,9.30,-0.03,0.01,0.00
4256,-1.19,-2.57,9.30,-0.03,0.00,0.01
4261,-1.19,-2.57,9.30,-0.03,0.00,0.01
4266,-1.19,-2.57,9.30,-0.02,0.00,0.02
4271,-1.19,-2.57,9.30,-0.03,0.00,0.03
4276,-1.19,-2.38,9.23,-0.03,0.00,0.03
4281,-1.19,-2.38,9.23,-0.02,0.00,0.04
4286,-1.19,-2.38,9.23,-0.02,-0.00,0.05
4291,-1.19,-2.38,9.23,-0.02,-0.00,0.06
4296,-1.19,-2.38,9.23,-0.02,-0.01,0.06
4301,-1.19,-2.38,9.23,-0.02,-0.01,0.07
4306,-1.19,-2.38,9.23,-0.02,-0.00,0.07
4311,-1.19,-2.18,9.23,-0.02,-0.00,0.07
4316,-1.19,-2.18,9.23,-0.01,0.00,0.08
4321,-1.19,-2.18,9.23,-0.02,-0.00,0.08
4326,-1.19,-2.18,9.23,-0.01,0.00,0.09
4331,-1.19,-2.18,9.23,-0.01,-0.00,0.09
4336,-1.19,-2.18,9.23,-0.02,0.00,0.09
4341,-1.19,-2.18,9.23,-0.02,0.00,0.09
4346,-1.19,-2.18,9.23,-0.02,0.00,0.09
4351,-1.19,-2.18,9.23,-0.02,-0.00,0.10
4356,-1.19,-2.18,9.23,-0.02,0.00,0.10
4361,-1.23,-2.18,9.27,-0.02,0.00,0.10
4366,-1.27,-2.18,9.27,-0.02,0.00,0.10
4371,-1.27,-2.18,9.27,-0.01,0.00,0.10
4376,-1.27,-2.18,9.27,-0.02,-0.00,0.11
4381,-1.27,-2.18,9.27,-0.02,-0.01,0.11
4386,-1.27,-2.18,9.27,-0.02,-0.00,0.11
4391,-1.27,-2.18,9.27,-0.02,0.00,0.10
4396,-1.23,-2.11,9.30,-0.02,0.00,0.10
4401,-1.23,-2.11,9.30,-0.02,-0.00,0.09
4406,-1.23,-2.11,9.30,-0.02,-0.00,0.09
4411,-1.23,-2.11,9.30,-0.02,-0.00,0.08
4416,-1.23,-2.11,9.30,-0.02,-0.00,0.07
4421,-1.23,-2.11,9.30,-0.03,-0.00,0.07
4426,-1.23,-2.11,9.30,-0.02,0.01,0.06
4431,-1.15,-2.18,9.27,-0.02,0.01,0.06
4436,-1.15,-2.18,9.27,-0.02,0.00,0.05
4441,-1.15,-2.18,9.27,-0.02,0.00,0.05
4446,-1.15,-2.18,9.27,-0.03,0.00,0.04
4451,-1.15,-2.18,9.27,-0.02,0.00,0.04
4456,-1.15,-2.18,9.27,-0.03,0.01,0.03
4461,-1.15,-2.18,9.27,-0.03,0.00,0.02
4466,-1.15,-2.18,9.27,-0.03,0.00,0.02
4471,-1.15,-2.18,9.27,-0.03,0.00,0.01
4476,-1.15,-2.18,9.27,-0.03,0.00,0.01
4481,-1.15,-2.18,9.27,-0.03,0.00,-0.00
4486,-1.19,-2.26,9.23,-0.03,0.00,-0.00
4491,-1.19,-2.26,9.23,-0.04,0.00,-0.01
4496,-1.19,-2.26,9.23,-0.03,0.00,-0.01
4501,-1.15,-2.30,9.23,-0.03,0.00,-0.01
4506,-1.15,-2.30,9.23,-0.02,0.01,-0.02
4511,-1.15,-2.30,9.23,-0.03,0.01,-0.03
4516,-1.15,-2.30,9.23,-0.03,0.01,-0.03
4521,-1.15,-2.30,9.23,-0.03,0.01,-0.03
4526,-1.15,-2.30,9.23,-0.03,0.01,-0.04
4531,-1.15,-2.30,9.23,-0.03,0.00,-0.04
4536,-1.23,-2.26,9.23,-0.03,0.00,-0.04
4541,-1.23,-2.26,9.23,-0.03,0.00,-0.04
4546,-1.23,-2.26,9.23,-0.04,0.00,-0.04
4551,-1.23,-2.26,9.23,-0.03,0.01,-0.05
4556,-1.23,-2.26,9.23,-0.04,0.00,-0.06
4561,-1.23,-2.26,9.23,-0.04,0.01,-0.05
4566,-1.23,-2.26,9.23,-0.03,0.00,-0.06
4571,-1.23,-2.26,9.23,-0.04,0.01,-0.06
4576,-1.23,-2.26,9.23,-0.04,0.01,-0.06
4581,-1.23,-2.26,9.23,-0.03,0.01,-0.06
4586,-1.23,-2.26,9.23,-0.03,0.01,-0.06
4591,-1.23,-2.26,9.23,-0.04,0.01,-0.06
4596,-1.23,-2.26,9.23,-0.04,0.01,-0.06
4601,-1.23,-2.26,9.23,-0.03,0.01,-0.05
4606,-1.23,-2.26,9.23,-0.03,0.01,-0.05
4611,-1.23,-2.26,9.23,-0.03,0.01,-0.06
4616,-1.23,-2.26,9.23,-0.04,0.00,-0.05
4621,-1.23,-2.30,9.20,-0.04,0.00,-0.05
4626,-1.27,-2.26,9.16,-0.04,0.00,-0.05
4631,-1.27,-2.26,9.16,-0.03,0.00,-0.05
4636,-1.27,-2.26,9.16,-0.03,0.00,-0.05
4641,-1.27,-2.26,9.16,-0.03,0.01,-0.05
4646,-1.27,-2.26,9.16,-0.02,0.01,-0.05
4651,-1.27,-2.26,9.16,-0.03,0.01,-0.05
4656,-1.27,-2.26,9.16,-0.03,0.00,-0.05
4661,-1.23,-2.38,9.20,-0.03,0.00,-0.05
4665,-1.27,-2.38,9.20,-0.03,0.00,-0.05
4671,-1.27,-2.38,9.20,-0.03,0.00,-0.05
4676,-1.27,-2.38,9.20,-0.03,0.00,-0.04
4681,-1.27,-2.38,9.20,-0.02,0.00,-0.04
4686,-1.27,-2.38,9.20,-0.02,0.00,-0.04
4691,-1.27,-2.38,9.20,-0.03,0.00,-0.04
4695,-1.27,-2.45,9.23,-0.03,0.00,-0.04
4701,-1.27,-2.45,9.23,-0.02,0.00,-0.04
4707,-1.27,-2.45,9.23,-0.02,0.01,-0.03
4711,-1.27,-2.45,9.23,-0.02,0.01,-0.04
4716,-1.23,-2.45,9.23,-0.02,0.01,-0.04
4720,-1.27,-2.45,9.23,-0.02,0.01,-0.04
4725,-1.27,-2.45,9.23,-0.02,0.00,-0.03
4730,-1.23,-2.41,9.23,-0.02,0.00,-0.03
4736,-1.23,-2.41,9.23,-0.02,0.00,-0.03
4741,-1.23,-2.41,9.23,-0.02,-0.00,-0.03
4746,-1.23,-2.41,9.23,-0.02,-0.00,-0.03
4751,-1.23,-2.41,9.23,-0.02,0.00,-0.03
4756,-1.23,-2.41,9.23,-0.02,0.01,-0.02
4761,-1.23,-2.41,9.23,-0.01,0.00,-0.02
4766,-1.19,-2.34,9.23,-0.01,0.00,-0.02
4771,-1.19,-2.34,9.23,-0.03,0.01,-0.03
4776,-1.19,-2.34,9.23,-0.02,0.00,-0.02
4781,-1.19,-2.34,9.23,-0.02,0.00,-0.02
4786,-1.15,-2.34,9.23,-0.02,0.00,-0.02
4791,-1.19,-2.38,9.23,-0.02,0.00,-0.02
4796,-1.19,-2.38,9.23,-0.01,0.01,-0.01
4801,-1.19,-2.38,9.23,-0.01,0.01,-0.01
4806,-1.19,-2.38,9.23,-0.02,0.00,-0.01
4811,-1.19,-2.38,9.23,-0.02,0.01,-0.01
4816,-1.19,-2.38,9.23,-0.01,0.00,-0.01
4821,-1.19,-2.38,9.23,-0.01,0.00,-0.00
4826,-1.19,-2.38,9.23,-0.01,-0.00,-0.00
4831,-1.19,-2.38,9.23,-0.02,-0.00,-0.01
4836,-1.19,-2.38,9.23,-0.01,0.00,-0.01
4841,-1.19,-2.38,9.23,-0.01,-0.00,-0.00
4846,-1.19,-2.38,9.23,-0.02,0.00,-0.01
4851,-1.19,-2.38,9.23,-0.01,0.00,-0.01
4856,-1.19,-2.30,9.27,-0.01,0.00,-0.01
4860,-1.19,-2.30,9.27,-0.01,0.00,-0.01
4866,-1.19,-2.30,9.27,-0.02,0.01,-0.02
4871,-1.19,-2.30,9.27,-0.01,0.00,-0.01
4876,-1.19,-2.26,9.23,-0.01,0.00,-0.01
4881,-1.19,-2.34,9.23,-0.01,0.00,-0.01
4886,-1.19,-2.34,9.23,-0.02,0.00,-0.02
4891,-1.19,-2.34,9.23,-0.02,0.00,-0.01
4896,-1.19,-2.34,9.23,-0.01,-0.00,-0.02
4901,-1.19,-2.34,9.23,-0.01,0.01,-0.01
4906,-1.15,-2.45,9.20,-0.01,0.01,-0.01
4911,-1.15,-2.45,9.20,-0.01,0.00,-0.01
4916,-1.15,-2.45,9.20,-0.01,0.00,-0.02
4921,-1.23,-2.49,9.20,-0.01,0.00,-0.02
4826,-1.19,-2.38,9.23,-0.01,-0.00,-0.00
4831,-1.19,-2.38,9.23,-0.02,-0.00,-0.01
4836,-1.19,-2.38,9.23,-0.01,0.00,-0.01
4841,-1.19,-2.38,9.23,-0.01,-0.00,-0.00
4846,-1.19,-2.38,9.23,-0.02,0.00,-0.01
4851,-1.19,-2.38,9.23,-0.01,0.00,-0.01
4856,-1.19,-2.30,9.27,-0.01,0.00,-0.01
4860,-1.19,-2.30,9.27,-0.01,0.00,-0.01
4866,-1.19,-2.30,9.27,-0.02,0.01,-0.02
4871,-1.19,-2.30,9.27,-0.01,0.00,-0.01
4876,-1.19,-2.26,9.23,-0.01,0.00,-0.01
4881,-1.19,-2.34,9.23,-0.01,0.00,-0.01
4886,-1.19,-2.34,9.23,-0.02,0.00,-0.02
4891,-1.19,-2.34,9.23,-0.02,0.00,-0.01
4896,-1.19,-2.34,9.23,-0.01,-0.00,-0.02
4901,-1.19,-2.34,9.23,-0.01,0.01,-0.01
