timestamp,accX,accY,accZ,gyroX,gyroY,gyroZ
Left
7,-0.65,-0.92,9.27,-0.02,-0.01,-0.11
18,-0.65,-0.92,9.27,-0.03,0.00,-0.15
20,-0.65,-0.92,9.27,0.16,-0.07,0.13
22,-0.65,-0.92,9.27,0.12,-0.11,0.18
25,1.07,-0.61,11.11,0.12,-0.11,0.18
31,0.11,-0.27,10.99,0.12,-0.11,0.18
36,0.11,-0.27,10.99,0.15,-0.07,0.21
41,0.11,-0.27,10.99,0.16,-0.00,0.26
46,0.11,-0.27,10.99,0.15,0.05,0.27
52,0.04,-1.19,10.07,0.15,0.05,0.27
56,0.04,-1.19,10.07,0.19,0.04,0.29
61,0.04,-1.19,10.07,0.19,0.00,0.35
67,1.11,-1.49,9.58,0.19,0.00,0.35
71,1.11,-1.49,9.58,0.20,-0.05,0.45
76,1.11,-1.49,9.58,0.21,-0.04,0.46
81,1.11,-1.49,9.58,0.22,-0.01,0.49
86,-0.42,-0.08,9.31,0.22,-0.01,0.49
91,-0.42,-0.08,9.31,0.22,0.06,0.54
96,-0.42,-0.08,9.31,0.22,0.05,0.55
101,1.00,-1.88,9.69,0.22,0.05,0.55
106,1.00,-1.88,9.69,0.24,-0.04,0.62
111,1.00,-1.88,9.69,0.26,-0.07,0.68
116,1.00,-1.88,9.69,0.24,-0.06,0.73
121,1.00,-1.88,9.69,0.27,-0.01,0.72
126,1.00,-1.88,9.69,0.26,0.04,0.67
131,1.00,-1.88,9.69,0.24,-0.00,0.63
136,1.00,-1.88,9.69,0.21,-0.10,0.61
141,1.00,-1.88,9.69,0.20,-0.20,0.63
146,1.00,-1.88,9.69,0.21,-0.27,0.68
151,1.00,-1.88,9.69,0.19,-0.31,0.73
157,5.17,-2.61,7.74,0.19,-0.31,0.73
161,5.17,-2.61,7.74,0.25,-0.33,0.78
166,5.17,-2.61,7.74,0.25,-0.28,0.81
171,0.34,-1.76,9.42,0.25,-0.28,0.81
176,0.34,-1.76,9.42,0.29,-0.05,0.79
181,0.34,-1.76,9.42,0.27,0.05,0.75
186,0.34,-1.76,9.42,0.28,0.14,0.73
191,0.34,-1.76,9.42,0.32,0.20,0.70
196,0.34,-1.76,9.42,0.26,0.15,0.63
201,0.34,-1.76,9.42,0.29,0.12,0.59
206,0.38,-0.04,6.02,0.29,0.12,0.59
211,0.38,-0.04,6.02,0.20,-0.05,0.46
216,0.38,-0.04,6.02,0.18,-0.10,0.36
221,0.38,-0.04,6.02,0.20,-0.12,0.28
226,0.38,-0.04,6.02,0.18,-0.09,0.26
231,0.38,-0.04,6.02,0.17,-0.04,0.28
236,0.38,-0.04,6.02,0.18,0.01,0.28
241,-1.53,-1.19,12.41,0.18,0.01,0.28
246,-1.53,-1.19,12.41,0.18,0.05,0.21
251,-1.53,-1.19,12.41,0.19,0.06,0.19
256,-1.53,-1.19,12.41,0.21,0.05,0.21
261,-1.53,-1.19,12.41,0.19,0.08,0.25
266,-1.53,-1.19,12.41,0.11,0.12,0.24
271,-1.53,-1.19,12.41,0.06,0.15,0.22
276,-1.53,-1.19,12.41,0.08,0.16,0.21
281,-2.22,0.23,8.27,0.08,0.16,0.21
286,-2.22,0.23,8.27,0.23,0.17,0.37
292,-2.22,0.23,8.27,0.28,0.14,0.46
296,-2.22,0.23,8.27,0.29,0.12,0.51
301,-2.22,0.23,8.27,0.30,0.08,0.51
306,-2.22,0.23,8.27,0.26,0.04,0.51
311,-2.22,0.23,8.27,0.18,-0.02,0.50
316,-2.22,0.23,8.27,0.07,-0.07,0.46
321,-2.22,0.23,8.27,-0.03,-0.12,0.40
326,1.30,1.84,12.68,-0.03,-0.12,0.40
331,1.30,1.84,12.68,-0.11,-0.09,0.33
336,1.30,1.84,12.68,-0.11,-0.04,0.35
341,1.30,1.84,12.68,-0.08,0.02,0.38
346,1.30,1.84,12.68,-0.04,0.07,0.40
351,1.30,1.84,12.68,0.02,0.12,0.40
356,1.30,1.84,12.68,0.11,0.18,0.40
361,-0.46,-1.53,10.00,0.11,0.18,0.40
366,-0.46,-1.53,10.00,0.22,0.18,0.48
371,-0.46,-1.53,10.00,0.25,0.17,0.52
376,-0.46,-1.53,10.00,0.27,0.18,0.56
381,-0.46,-1.53,10.00,0.25,0.16,0.58
386,-0.46,-1.53,10.00,0.21,0.10,0.54
391,-0.46,-1.53,10.00,0.18,0.05,0.47
396,-0.46,-1.53,10.00,0.13,0.00,0.41
401,-0.46,-1.53,10.00,0.07,-0.05,0.38
406,-0.46,-1.53,10.00,0.04,-0.08,0.33
411,-0.46,-1.53,10.00,0.01,-0.10,0.26
416,-0.42,0.08,7.81,0.01,-0.10,0.26
421,-0.42,0.08,7.81,-0.00,-0.12,0.17
426,-0.42,0.08,7.81,-0.01,-0.09,0.15
431,-0.84,-0.34,9.80,-0.01,-0.09,0.15
436,-0.84,-0.34,9.80,-0.02,0.00,0.09
441,-0.84,-0.34,9.80,-0.03,0.05,0.05
446,-0.84,-0.34,9.80,-0.02,0.09,0.02
451,-0.84,-0.34,9.80,-0.01,0.14,0.01
456,-0.84,-0.34,9.80,-0.00,0.15,0.00
461,-0.84,-0.34,9.80,0.01,0.16,0.00
466,-2.34,1.46,9.20,0.01,0.16,0.00
471,-2.34,1.46,9.20,0.04,0.16,-0.01
476,-2.34,1.46,9.20,0.02,0.15,0.00
481,-2.34,1.46,9.20,0.01,0.14,0.01
486,-2.34,1.46,9.20,-0.00,0.13,0.01
491,-2.34,1.46,9.20,-0.00,0.11,-0.00
496,-2.34,1.46,9.20,-0.01,0.09,-0.00
501,-2.34,1.46,9.20,-0.02,0.06,0.00
506,-2.34,1.46,9.20,-0.01,0.04,0.01
511,-2.34,1.46,9.20,-0.02,0.03,0.02
516,-2.34,1.46,9.20,-0.02,0.04,0.02
521,-2.34,1.46,9.20,-0.01,0.07,0.03
526,-2.34,1.46,9.20,-0.00,0.08,0.04
531,-2.34,1.46,9.20,-0.00,0.06,0.04
536,-2.34,1.46,9.20,0.01,0.04,0.05
541,-2.34,1.46,9.20,0.01,0.02,0.07
546,-2.34,1.46,9.20,0.03,-0.01,0.08
551,-2.34,1.46,9.20,0.04,-0.02,0.10
556,-2.34,1.46,9.20,0.05,-0.02,0.12
561,-2.34,1.46,9.20,0.09,-0.03,0.14
566,-2.34,1.46,9.20,0.11,-0.02,0.16
571,-2.34,1.46,9.20,0.15,0.01,0.18
576,-2.34,1.46,9.20,0.18,0.02,0.21
581,-2.34,1.46,9.20,0.18,0.02,0.24
587,1.34,-1.34,10.11,0.18,0.02,0.24
591,1.34,-1.34,10.11,0.20,-0.01,0.28
596,2.87,-2.18,10.11,0.20,-0.01,0.28
601,2.87,-2.18,10.11,0.22,0.00,0.34
606,2.87,-2.18,10.11,0.24,0.05,0.37
610,-0.69,-2.11,9.61,0.24,0.05,0.37
616,-0.69,-2.11,9.61,0.26,0.18,0.41
622,-1.91,-0.42,8.58,0.26,0.18,0.41
626,-0.30,-2.14,9.85,0.26,0.18,0.41
630,-0.11,-1.91,8.96,0.26,0.18,0.41
637,-0.11,-1.91,8.96,0.28,0.01,0.43
641,-0.11,-1.91,8.96,0.28,-0.09,0.49
646,2.61,-0.27,9.08,0.28,-0.09,0.49
651,2.61,-0.27,9.08,0.24,-0.19,0.53
657,2.61,-0.27,9.08,0.21,-0.19,0.51
661,2.22,-0.11,8.85,0.21,-0.19,0.51
665,2.80,-1.11,10.11,0.21,-0.19,0.51
671,2.80,-1.11,10.11,0.24,-0.11,0.53
676,3.14,-1.42,10.35,0.24,-0.11,0.53
681,3.14,-1.42,10.35,0.27,-0.08,0.58
686,3.14,-1.42,10.35,0.28,-0.04,0.59
691,3.14,-1.42,10.35,0.29,-0.01,0.61
696,3.14,-1.42,10.35,0.29,0.03,0.63
701,3.14,-1.42,10.35,0.28,0.10,0.64
706,3.14,-1.42,10.35,0.27,0.15,0.62
712,3.14,-1.42,10.35,0.29,0.17,0.62
716,-0.80,0.46,8.58,0.29,0.17,0.62
721,-0.73,0.80,8.08,0.29,0.17,0.62
726,-0.73,0.80,8.08,0.30,0.13,0.61
731,-0.73,0.80,8.08,0.29,0.08,0.62
736,-0.73,0.80,8.08,0.27,0.02,0.61
742,-0.73,0.80,8.08,0.24,-0.04,0.60
746,-0.73,0.80,8.08,0.22,-0.08,0.60
751,-2.03,0.23,10.03,0.22,-0.08,0.60
756,-1.57,-0.27,8.85,0.22,-0.08,0.60
761,-1.57,-0.27,8.85,0.19,-0.05,0.61
766,-1.57,-0.27,8.85,0.21,-0.02,0.63
771,-1.57,-0.27,8.85,0.23,0.00,0.64
775,-1.57,-0.27,8.85,0.26,0.00,0.68
780,-3.18,-1.49,10.07,0.26,0.00,0.68
786,-3.18,-1.49,10.07,0.28,0.01,0.73
792,-3.18,-1.49,10.07,0.31,-0.01,0.84
797,-1.95,-1.15,11.41,0.31,-0.01,0.84
801,-1.95,-1.15,11.41,0.37,0.05,0.95
806,-3.41,-0.54,11.30,0.37,0.05,0.95
811,-3.41,-0.54,11.30,0.40,0.11,0.97
816,-3.41,-0.54,11.30,0.38,0.12,1.00
821,-3.41,-0.54,11.30,0.39,0.09,1.00
827,-3.41,-0.54,11.30,0.38,0.05,1.02
831,-3.41,-0.54,11.30,0.38,0.03,1.04
836,-2.80,-1.61,10.88,0.38,0.03,1.04
841,-3.79,-0.88,11.54,0.38,0.03,1.04
846,-3.79,-0.88,11.54,0.36,0.06,1.03
851,-2.57,-1.07,12.02,0.36,0.06,1.03
855,-4.33,0.46,11.26,0.36,0.06,1.03
861,-4.33,0.46,11.26,0.34,0.09,1.00
866,-4.33,0.46,11.26,0.32,0.07,1.01
871,0.38,-2.57,10.30,0.32,0.07,1.01
876,0.38,-2.57,10.30,0.30,-0.05,0.99
881,0.38,-2.57,10.30,0.30,-0.07,1.01
886,2.34,-2.49,10.00,0.30,-0.07,1.01
891,0.34,-0.88,8.50,0.30,-0.07,1.01
896,0.00,-2.07,9.77,0.30,-0.07,1.01
901,0.00,-2.07,9.77,0.36,0.04,1.04
906,0.00,-2.07,9.77,0.38,0.12,1.04
911,0.00,-2.07,9.77,0.36,0.19,1.02
917,0.00,-2.07,9.77,0.39,0.23,0.99
921,-0.61,0.00,8.50,0.39,0.23,0.99
925,-2.34,-0.27,8.73,0.39,0.23,0.99
931,-2.34,-0.27,8.73,0.31,0.15,0.88
936,-0.54,-0.69,8.23,0.31,0.15,0.88
941,-0.54,-0.69,8.23,0.26,0.02,0.76
946,1.23,-1.38,10.53,0.26,0.02,0.76
951,1.04,0.15,11.19,0.26,0.02,0.76
956,0.80,-0.92,11.76,0.26,0.02,0.76
961,0.80,-0.92,11.76,0.21,0.11,0.70
967,0.80,-0.92,11.76,0.22,0.16,0.69
971,-0.65,-1.76,9.77,0.22,0.16,0.69
975,-0.65,-1.76,9.77,0.34,0.23,0.76
980,0.00,-1.99,9.34,0.34,0.23,0.76
985,1.72,-1.04,8.46,0.34,0.23,0.76
992,1.72,-1.04,8.46,0.35,0.19,0.79
997,1.72,-1.04,8.46,0.34,0.09,0.82
1001,0.73,0.50,8.66,0.34,0.09,0.82
1005,1.07,0.00,9.34,0.34,0.09,0.82
1011,1.07,0.00,9.34,0.34,0.06,0.89
1016,1.07,0.00,9.34,0.31,0.05,0.90
1021,1.07,0.00,9.34,0.29,0.06,0.88
1026,2.03,-1.07,13.71,0.29,0.06,0.88
1030,2.07,-0.46,14.33,0.29,0.06,0.88
1036,2.07,-0.46,14.33,0.27,0.09,0.90
1041,2.07,-0.46,14.33,0.26,0.12,0.92
1046,1.42,0.38,11.68,0.26,0.12,0.92
1051,1.42,0.77,10.50,0.26,0.12,0.92
1056,0.88,1.27,10.77,0.26,0.12,0.92
1061,0.88,1.27,10.77,0.25,0.32,0.94
1066,0.88,1.27,10.77,0.25,0.35,0.94
1071,0.88,1.27,10.77,0.24,0.39,0.94
1076,0.88,1.27,10.77,0.24,0.40,0.94
1081,0.88,1.27,10.77,0.22,0.39,0.93
1086,0.88,1.27,10.77,0.21,0.35,0.94
1091,0.88,1.27,10.77,0.20,0.29,0.94
1096,-1.42,0.73,7.70,0.20,0.29,0.94
1101,-2.14,0.92,8.27,0.20,0.29,0.94
1106,-2.14,0.92,8.27,0.18,0.12,0.94
1111,-0.84,-0.46,10.30,0.18,0.12,0.94
1115,-1.11,-0.04,9.46,0.18,0.12,0.94
1121,-1.11,-0.04,9.46,0.16,0.11,0.94
1126,-1.11,-0.04,9.46,0.18,0.13,0.95
1131,0.19,-0.69,11.53,0.18,0.13,0.95
1136,0.46,-1.30,10.77,0.18,0.13,0.95
1141,0.46,-1.30,10.77,0.20,0.19,0.96
1146,-1.07,-0.77,11.95,0.20,0.19,0.96
1151,-2.38,-0.08,11.64,0.20,0.19,0.96
1156,-2.18,-0.42,10.00,0.20,0.19,0.96
1161,-2.49,-0.08,10.50,0.20,0.19,0.96
1165,-2.41,0.77,9.85,0.20,0.19,0.96
1171,-2.41,0.77,9.85,0.19,0.37,0.89
1176,-2.41,0.77,9.85,0.15,0.33,0.88
1180,-2.41,0.77,9.85,0.13,0.27,0.87
1186,-2.41,0.77,9.85,0.11,0.21,0.85
1192,-2.41,0.77,9.85,0.09,0.18,0.85
1197,-2.41,0.77,9.85,0.07,0.15,0.83
1201,-2.41,0.77,9.85,0.05,0.14,0.81
1205,0.42,-0.50,11.88,0.05,0.14,0.81
1211,0.42,-0.50,11.88,0.05,0.17,0.79
1216,0.15,0.84,11.15,0.05,0.17,0.79
1220,-0.57,1.15,11.11,0.05,0.17,0.79
1226,-0.57,1.15,11.11,0.12,0.36,0.82
1231,-0.57,1.15,11.11,0.12,0.40,0.83
1236,-2.68,1.95,9.20,0.12,0.40,0.83
1241,-1.80,2.11,8.62,0.12,0.40,0.83
1246,-1.80,2.11,8.62,0.09,0.45,0.79
1251,-1.80,2.11,8.62,0.05,0.42,0.77
1256,-1.53,1.84,8.04,0.05,0.42,0.77
1261,-1.61,2.34,6.75,0.05,0.42,0.77
1266,-1.72,1.07,8.08,0.05,0.42,0.77
1271,-0.84,1.11,8.66,0.05,0.42,0.77
1276,-0.08,0.57,8.96,0.05,0.42,0.77
1281,-0.08,0.57,8.96,-0.11,0.13,0.62
1286,-0.50,1.57,11.03,-0.11,0.13,0.62
1290,-0.46,1.27,12.11,-0.11,0.13,0.62
1297,-0.46,1.27,12.11,-0.09,0.22,0.62
1301,-0.61,1.07,11.98,-0.09,0.22,0.62
1305,-0.61,1.07,11.98,-0.07,0.33,0.59
1311,-0.11,1.00,10.45,-0.07,0.33,0.59
1316,-0.42,1.80,10.00,-0.07,0.33,0.59
1321,1.15,1.88,9.96,-0.07,0.33,0.59
1326,1.42,1.19,10.23,-0.07,0.33,0.59
1331,1.42,1.19,10.23,-0.10,0.28,0.59
1336,1.42,1.19,10.23,-0.12,0.26,0.57
1341,3.68,-1.15,12.45,-0.12,0.26,0.57
1346,2.41,-0.38,12.22,-0.12,0.26,0.57
1351,0.61,1.46,12.22,-0.12,0.26,0.57
1356,0.50,1.23,11.26,-0.12,0.26,0.57
1361,-0.30,0.19,11.76,-0.12,0.26,0.57
1366,-0.30,0.19,11.76,-0.14,0.39,0.55
1371,0.57,-0.23,9.65,-0.14,0.39,0.55
1376,0.84,-0.38,9.85,-0.14,0.39,0.55
1381,3.07,-0.57,9.77,-0.14,0.39,0.55
1386,2.11,-0.27,8.04,-0.14,0.39,0.55
1391,1.65,-0.19,8.28,-0.14,0.39,0.55
1396,2.26,-0.84,7.93,-0.14,0.39,0.55
1401,2.26,-0.84,7.93,-0.10,0.22,0.68
1406,0.00,-0.38,7.70,-0.10,0.22,0.68
1411,-0.11,-0.08,7.23,-0.10,0.22,0.68
1416,-1.11,0.57,7.21,-0.10,0.22,0.68
1421,0.46,-1.38,8.54,-0.10,0.22,0.68
1426,0.54,-1.07,9.20,-0.10,0.22,0.68
1431,0.34,-0.84,9.89,-0.10,0.22,0.68
1435,0.38,-0.96,11.99,-0.10,0.22,0.68
1440,0.38,-0.96,11.99,-0.07,0.20,0.77
1446,2.14,-1.27,12.03,-0.07,0.20,0.77
1452,2.14,-1.27,12.03,-0.06,0.17,0.81
1456,-0.23,-1.49,13.25,-0.06,0.17,0.81
1461,-0.23,-1.49,13.25,-0.01,0.31,0.83
1465,-1.61,-0.38,9.93,-0.01,0.31,0.83
1471,-1.61,-0.38,9.93,0.00,0.37,0.85
1476,-0.92,-0.38,8.24,0.00,0.37,0.85
1481,-0.92,-0.38,8.24,-0.01,0.41,0.86
1486,1.30,-0.19,7.43,-0.01,0.41,0.86
1491,0.88,-0.84,7.70,-0.01,0.41,0.86
1496,0.69,-0.04,8.96,-0.01,0.41,0.86
1501,0.57,0.50,10.84,-0.01,0.41,0.86
1506,-0.34,1.27,13.25,-0.01,0.41,0.86
1511,-0.80,0.23,13.79,-0.01,0.41,0.86
1516,-0.23,-0.11,13.87,-0.01,0.41,0.86
1521,-0.69,-0.04,14.13,-0.01,0.41,0.86
1527,0.88,0.88,13.33,-0.01,0.41,0.86
1531,0.88,0.88,13.33,-0.12,0.38,0.77
1536,1.72,0.46,12.60,-0.12,0.38,0.77
1541,1.07,1.76,11.07,-0.12,0.38,0.77
1546,0.65,0.11,11.30,-0.12,0.38,0.77
1551,0.77,0.73,9.84,-0.12,0.38,0.77
1556,-2.72,1.34,9.65,-0.12,0.38,0.77
1561,-4.06,2.03,8.74,-0.12,0.38,0.77
1566,-4.06,2.03,8.74,-0.11,0.71,0.61
1571,-4.06,2.03,8.74,-0.12,0.66,0.57
1576,-3.03,2.30,9.84,-0.12,0.66,0.57
1581,-2.34,2.76,6.97,-0.12,0.66,0.57
1586,-0.96,2.34,7.78,-0.12,0.66,0.57
1591,-1.57,4.37,6.97,-0.12,0.66,0.57
1596,-3.14,5.29,4.86,-0.12,0.66,0.57
1601,-2.68,4.71,6.86,-0.12,0.66,0.57
1606,-4.60,5.40,4.48,-0.12,0.66,0.57
1611,-4.37,3.79,4.37,-0.12,0.66,0.57
1616,-4.37,3.79,4.37,-0.44,0.36,0.11
1621,-2.11,1.76,6.47,-0.44,0.36,0.11
1626,-1.30,1.76,6.59,-0.44,0.36,0.11
1631,-0.11,1.46,7.39,-0.44,0.36,0.11
1636,1.07,2.34,8.78,-0.44,0.36,0.11
1641,2.72,1.42,9.34,-0.44,0.36,0.11
1646,3.64,1.49,11.98,-0.44,0.36,0.11
1651,3.64,1.49,11.98,-0.49,-0.04,0.08
1656,0.46,1.80,12.48,-0.49,-0.04,0.08
1661,1.46,1.49,13.63,-0.49,-0.04,0.08
1666,1.72,-0.34,12.95,-0.49,-0.04,0.08
1671,2.41,-0.19,13.03,-0.49,-0.04,0.08
1676,1.95,-0.61,13.18,-0.49,-0.04,0.08
1681,1.76,0.23,10.92,-0.49,-0.04,0.08
1686,1.76,0.23,10.92,-0.27,0.45,0.20
1690,1.76,0.23,10.92,-0.29,0.38,0.18
1696,0.73,1.23,7.32,-0.29,0.38,0.18
1701,1.88,0.30,7.81,-0.29,0.38,0.18
1706,1.88,0.30,7.81,-0.33,0.25,0.08
1710,-4.56,0.73,8.50,-0.33,0.25,0.08
1716,-4.56,0.73,8.50,-0.35,0.29,0.07
1722,-7.16,-0.30,10.23,-0.35,0.29,0.07
1726,-9.35,-0.38,10.00,-0.35,0.29,0.07
1730,-9.61,-0.77,9.08,-0.35,0.29,0.07
1736,-9.61,-0.77,9.08,-0.29,0.41,-0.06
1742,-9.61,-0.77,9.08,-0.29,0.32,-0.05
1746,-0.61,-2.87,4.71,-0.29,0.32,-0.05
1751,2.34,-2.61,4.75,-0.29,0.32,-0.05
1756,2.34,-2.61,4.75,-0.34,-0.61,0.00
1761,2.34,-1.23,8.50,-0.34,-0.61,0.00
1766,2.80,-1.80,11.22,-0.34,-0.61,0.00
1771,1.80,-1.49,12.95,-0.34,-0.61,0.00
1777,1.23,-0.88,13.75,-0.34,-0.61,0.00
1781,0.73,-2.07,15.74,-0.34,-0.61,0.00
1786,1.95,-2.26,16.47,-0.34,-0.61,0.00
1792,1.49,-3.75,13.91,-0.34,-0.61,0.00
1796,2.14,-1.30,11.49,-0.34,-0.61,0.00
1801,3.48,-3.14,11.34,-0.34,-0.61,0.00
1806,4.64,-1.53,10.41,-0.34,-0.61,0.00
1811,2.07,-0.80,6.93,-0.34,-0.61,0.00
1816,2.95,1.23,9.54,-0.34,-0.61,0.00
1822,2.07,-0.08,11.26,-0.34,-0.61,0.00
1826,2.07,-0.08,11.26,-0.05,0.08,0.37
1831,2.07,-0.08,11.26,-0.04,0.13,0.37
1836,0.96,-0.69,14.29,-0.04,0.13,0.37
1841,-0.69,-1.00,14.02,-0.04,0.13,0.37
1846,-1.38,-0.88,10.57,-0.04,0.13,0.37
1851,0.57,-1.42,10.38,-0.04,0.13,0.37
1857,0.61,-1.19,8.92,-0.04,0.13,0.37
1861,0.61,-1.19,8.92,-0.06,0.17,0.24
1866,-1.34,0.61,6.63,-0.06,0.17,0.24
1871,-1.04,-0.84,6.51,-0.06,0.17,0.24
1877,0.08,0.00,8.46,-0.06,0.17,0.24
1882,-1.19,0.84,6.97,-0.06,0.17,0.24
1886,-2.03,1.57,5.86,-0.06,0.17,0.24
1891,-2.03,1.57,5.86,-0.08,0.14,0.09
1896,-2.03,1.57,5.86,-0.09,0.19,0.06
1901,-3.41,1.72,4.90,-0.09,0.19,0.06
1906,-3.91,2.03,4.52,-0.09,0.19,0.06
1911,-3.91,2.03,4.52,-0.14,0.21,-0.07
1916,-3.68,1.91,4.06,-0.14,0.21,-0.07
1922,-4.41,1.04,3.14,-0.14,0.21,-0.07
1926,-4.41,1.04,3.14,-0.15,-0.01,-0.08
1931,-4.41,1.04,3.14,-0.18,-0.09,-0.11
1936,2.87,0.27,14.09,-0.18,-0.09,-0.11
1942,2.95,0.27,15.10,-0.18,-0.09,-0.11
1946,2.95,0.27,15.10,-0.18,-0.22,-0.10
1951,2.95,0.27,15.10,-0.11,-0.09,-0.03
1957,-3.60,1.04,10.77,-0.11,-0.09,-0.03
1961,-3.60,1.04,10.77,0.03,0.30,0.06
1966,-3.60,1.04,10.77,0.07,0.46,0.08
1971,-3.60,1.04,10.77,0.12,0.54,0.09
1976,-3.45,2.91,-2.64,0.12,0.54,0.09
1982,-0.84,2.18,-0.50,0.12,0.54,0.09
1986,-1.61,2.68,1.61,0.12,0.54,0.09
1991,0.61,2.11,4.29,0.12,0.54,0.09
1997,2.41,1.99,7.05,0.12,0.54,0.09
2001,2.41,1.99,7.05,-0.27,-0.53,0.13
2006,0.77,0.38,17.36,-0.27,-0.53,0.13
2011,4.60,-1.46,20.15,-0.27,-0.53,0.13
2017,4.98,-1.80,21.03,-0.27,-0.53,0.13
2021,3.98,-2.49,20.19,-0.27,-0.53,0.13
2026,4.56,-2.26,18.28,-0.27,-0.53,0.13
2031,3.26,-3.18,16.21,-0.27,-0.53,0.13
2036,1.15,-2.03,13.83,-0.27,-0.53,0.13
2041,-1.80,-0.27,8.70,-0.27,-0.53,0.13
2047,-2.26,0.92,7.66,-0.27,-0.53,0.13
2051,-2.26,0.92,7.66,0.26,0.54,0.76
2056,-3.83,1.72,7.85,0.26,0.54,0.76
2061,-5.32,-0.34,10.50,0.26,0.54,0.76
2066,-2.68,0.69,11.72,0.26,0.54,0.76
2071,-2.68,0.69,11.72,-0.04,0.07,0.55
2076,-2.11,-2.22,12.34,-0.04,0.07,0.55
2082,-1.49,-1.57,10.07,-0.04,0.07,0.55
2086,-1.49,-1.57,10.07,-0.06,-0.14,0.50
2091,-1.49,-1.57,10.07,-0.06,-0.09,0.54
2096,-1.95,0.42,6.17,-0.06,-0.09,0.54
2102,-2.99,-0.57,7.09,-0.06,-0.09,0.54
2106,-2.99,-0.57,7.09,-0.05,-0.21,0.55
2111,-2.07,-2.76,9.96,-0.05,-0.21,0.55
2117,-1.30,-1.61,11.07,-0.05,-0.21,0.55
2121,-1.30,-1.61,11.07,-0.06,-0.37,0.62
2126,2.41,-2.18,15.82,-0.06,-0.37,0.62
2132,1.27,-1.84,13.71,-0.06,-0.37,0.62
2136,1.27,-1.84,13.71,0.06,-0.15,0.67
2141,0.04,0.00,8.89,0.06,-0.15,0.67
2146,-0.11,0.73,8.08,0.06,-0.15,0.67
2151,-0.11,0.73,8.08,0.04,0.23,0.56
2156,-0.11,0.73,8.08,0.02,0.27,0.52
2161,-0.69,0.11,6.20,0.02,0.27,0.52
2167,-0.46,0.54,5.94,0.02,0.27,0.52
2171,-0.46,0.54,5.94,-0.06,0.13,0.38
2176,-3.18,2.72,8.46,-0.06,0.13,0.38
2182,-5.63,2.87,9.34,-0.06,0.13,0.38
2186,-5.63,2.87,9.34,-0.14,0.20,0.22
2191,-5.63,2.87,9.34,-0.14,0.23,0.14
2196,-0.50,0.42,12.48,-0.14,0.23,0.14
2202,2.72,0.96,11.38,-0.14,0.23,0.14
2206,2.72,0.96,11.38,-0.18,-0.08,0.14
2211,2.72,0.96,11.38,-0.17,-0.21,0.19
2217,7.09,1.27,8.16,-0.17,-0.21,0.19
2221,7.09,1.27,8.16,-0.17,-0.19,0.25
2226,7.09,1.27,8.16,-0.16,-0.05,0.27
2232,7.09,1.27,8.16,-0.15,0.15,0.27
2237,-3.18,0.27,8.08,-0.15,0.15,0.27
2241,-3.18,0.27,8.08,-0.06,0.54,0.30
2246,-6.93,0.88,10.80,-0.06,0.54,0.30
2251,-7.43,1.46,10.41,-0.06,0.54,0.30
2257,-6.74,2.38,10.53,-0.06,0.54,0.30
2261,-6.74,2.38,10.53,-0.01,0.54,0.26
2266,-4.33,3.26,8.62,-0.01,0.54,0.26
2271,-3.26,2.57,7.74,-0.01,0.54,0.26
2277,-1.91,3.14,7.55,-0.01,0.54,0.26
2281,-0.38,3.52,6.67,-0.01,0.54,0.26
2286,1.04,2.84,7.97,-0.01,0.54,0.26
2291,1.04,2.84,7.97,-0.34,-0.26,0.22
2296,1.04,2.84,7.97,-0.36,-0.34,0.25
2302,5.48,-0.42,9.81,-0.36,-0.34,0.25
2306,5.48,-0.42,9.81,-0.32,-0.36,0.35
2311,5.48,-0.42,9.81,-0.25,-0.21,0.38
2316,-0.38,0.57,13.33,-0.25,-0.21,0.38
2322,-1.84,1.11,13.07,-0.25,-0.21,0.38
2326,-1.84,1.11,13.07,-0.12,0.37,0.41
2330,-1.84,1.11,13.07,-0.10,0.42,0.39
2335,4.21,-1.53,14.33,-0.10,0.42,0.39
2341,4.21,-1.53,14.33,-0.12,0.36,0.38
2347,4.21,-1.53,14.33,-0.15,0.27,0.37
2351,6.02,-2.11,11.07,-0.15,0.27,0.37
2357,3.48,-2.03,11.26,-0.15,0.27,0.37
2361,3.48,-2.03,11.26,-0.14,0.08,0.42
2366,-0.80,0.54,8.08,-0.14,0.08,0.42
2371,-1.27,-0.19,8.81,-0.14,0.08,0.42
2377,-2.18,-0.30,9.04,-0.14,0.08,0.42
2381,-2.18,-0.30,9.04,-0.15,0.21,0.19
2386,-1.42,-0.80,6.02,-0.15,0.21,0.19
2391,-2.68,0.23,6.78,-0.15,0.21,0.19
2397,-2.11,1.11,6.16,-0.15,0.21,0.19
2401,-1.72,2.34,7.05,-0.15,0.21,0.19
2407,-4.37,2.61,7.93,-0.15,0.21,0.19
2411,-4.37,2.61,7.93,-0.28,0.06,0.01
2416,-4.37,2.61,7.93,-0.28,0.11,-0.04
2421,-5.09,-1.11,9.08,-0.28,0.11,-0.04
2427,-3.64,-1.42,6.59,-0.28,0.11,-0.04
2431,-3.64,-1.42,6.59,-0.19,-0.04,0.08
2436,-3.64,-1.42,6.59,-0.16,-0.18,0.13
2442,-2.49,0.34,8.20,-0.16,-0.18,0.13
2446,-2.49,0.34,8.20,-0.19,-0.33,0.27
2451,-2.49,0.34,8.20,-0.12,-0.31,0.32
2457,0.69,0.08,11.04,-0.12,-0.31,0.32
2461,0.69,0.08,11.04,-0.13,-0.09,0.32
2466,0.69,0.08,11.04,-0.08,0.05,0.36
2471,0.69,0.08,11.04,-0.06,0.17,0.42
2477,0.08,-1.84,12.64,-0.06,0.17,0.42
2482,0.08,-1.84,12.64,0.02,0.25,0.53
2486,0.08,-1.84,12.64,0.03,0.23,0.54
2491,0.08,-1.84,12.64,0.02,0.17,0.53
2497,-3.79,-0.15,7.09,0.02,0.17,0.53
2501,-3.79,-0.15,7.09,-0.01,0.14,0.45
2506,-3.79,-0.15,7.09,-0.02,0.15,0.40
2512,-7.39,0.54,5.44,-0.02,0.15,0.40
2516,-7.39,0.54,5.44,-0.08,0.14,0.30
2521,-7.39,0.54,5.44,-0.08,0.08,0.27
2527,-4.29,-0.92,5.21,-0.08,0.08,0.27
2532,-4.29,-0.92,5.21,-0.14,-0.19,0.23
2536,-4.29,-0.92,5.21,-0.16,-0.33,0.24
2541,-4.29,-0.92,5.21,-0.15,-0.40,0.24
2548,0.19,-1.04,10.42,-0.15,-0.40,0.24
2551,0.19,-1.04,10.42,-0.12,-0.33,0.22
2556,0.19,-1.04,10.42,-0.08,-0.19,0.24
2562,-2.18,-1.38,11.46,-0.08,-0.19,0.24
2566,-2.18,-1.38,11.46,-0.00,0.05,0.33
2571,-2.18,-1.38,11.46,0.03,0.07,0.38
2576,1.23,-2.91,10.54,0.03,0.07,0.38
2582,1.91,-3.56,8.81,0.03,0.07,0.38
2586,1.91,-3.56,8.81,0.06,-0.09,0.44
2591,1.91,-3.56,8.81,0.06,-0.12,0.45
2597,-0.38,-0.80,8.88,0.06,-0.12,0.45
2601,-0.38,-0.80,8.88,0.05,-0.06,0.40
2606,-0.38,-0.80,8.88,0.04,-0.02,0.35
2611,-0.38,-0.80,8.88,0.03,-0.00,0.32
2617,1.07,-2.07,12.22,0.03,-0.00,0.32
2622,1.07,-2.07,12.22,0.03,-0.03,0.29
2627,1.07,-2.07,12.22,0.03,-0.08,0.28
2632,4.29,-0.88,11.38,0.03,-0.08,0.28
2636,4.29,-0.88,11.38,0.01,-0.11,0.22
2641,4.29,-0.88,11.38,-0.00,-0.04,0.17
2647,0.34,0.38,10.07,-0.00,-0.04,0.17
2651,0.34,0.38,10.07,0.01,0.12,0.15
2656,0.34,0.38,10.07,0.00,0.15,0.17
2661,-0.19,1.34,10.80,0.00,0.15,0.17
2667,-0.61,2.03,10.23,0.00,0.15,0.17
2671,-0.61,2.03,10.23,-0.03,0.12,0.09
2676,-0.61,2.03,10.23,-0.06,0.07,0.08
2682,0.57,3.48,8.58,-0.06,0.07,0.08
2686,0.57,3.48,8.58,-0.10,-0.01,0.09
2691,0.57,3.48,8.58,-0.12,-0.02,0.08
2696,1.34,2.03,9.50,-0.12,-0.02,0.08
2702,0.96,1.84,9.12,-0.12,-0.02,0.08
2706,0.96,1.84,9.12,-0.20,-0.05,-0.02
2711,0.96,1.84,9.12,-0.19,-0.05,-0.03
2717,0.73,1.11,9.93,-0.19,-0.05,-0.03
2721,0.73,1.11,9.93,-0.15,-0.01,0.00
2727,0.73,1.11,9.93,-0.13,0.04,-0.00
2732,0.73,1.11,9.93,-0.12,0.11,-0.02
2736,0.73,1.11,9.93,-0.12,0.15,-0.03
2741,0.73,1.11,9.93,-0.10,0.16,-0.02
2746,0.73,1.11,9.93,-0.10,0.12,-0.02
2752,0.50,-1.04,6.82,-0.10,0.12,-0.02
2756,0.50,-1.04,6.82,-0.07,0.01,-0.01
2761,0.50,-1.04,6.82,-0.04,-0.03,0.01
2766,-1.42,-1.23,7.66,-0.04,-0.03,0.01
2772,-1.65,-0.92,8.77,-0.04,-0.03,0.01
2776,-1.65,-0.92,8.77,0.00,0.13,0.03
2781,-1.65,-0.92,8.77,0.00,0.20,-0.01
2787,-6.32,-0.23,9.12,0.00,0.20,-0.01
2791,-6.32,-0.23,9.12,0.02,0.29,-0.04
2796,-6.32,-0.23,9.12,0.04,0.24,-0.00
2802,-2.68,-1.23,9.16,0.04,0.24,-0.00
2806,-2.68,-1.23,9.16,0.05,-0.01,0.06
2811,-2.68,-1.23,9.16,0.04,-0.16,0.10
2816,-2.68,-1.23,9.16,0.04,-0.24,0.14
2822,-1.99,1.57,9.27,0.04,-0.24,0.14
2826,-1.99,1.57,9.27,0.05,-0.11,0.22
2831,-1.99,1.57,9.27,0.06,-0.01,0.26
2837,-2.26,0.57,9.58,0.06,-0.01,0.26
2841,-2.26,0.57,9.58,0.08,0.13,0.32
2846,-2.26,0.57,9.58,0.09,0.11,0.36
2851,-2.26,0.57,9.58,0.10,0.01,0.42
2857,-0.08,-0.04,10.73,0.10,0.01,0.42
2861,-0.08,-0.04,10.73,0.08,-0.08,0.44
2866,-0.08,-0.04,10.73,0.08,-0.06,0.45
2871,-0.08,-0.04,10.73,0.09,-0.02,0.48
2878,-2.49,0.11,10.65,0.09,-0.02,0.48
2881,-2.49,0.11,10.65,0.08,0.12,0.52
2886,-1.72,-0.15,9.46,0.08,0.12,0.52
2892,-2.11,-0.27,9.46,0.08,0.12,0.52
2896,-2.11,-0.27,9.46,0.04,-0.04,0.50
2901,-2.11,-0.27,9.46,0.03,-0.12,0.51
2907,-0.38,-0.23,8.39,0.03,-0.12,0.51
2911,-0.38,-0.23,8.39,0.03,-0.14,0.59
2916,-0.38,-0.23,8.39,0.00,-0.11,0.59
2921,-0.38,-1.53,10.42,0.00,-0.11,0.59
2927,-0.19,-2.03,11.68,0.00,-0.11,0.59
2931,-0.19,-2.03,11.68,0.04,-0.12,0.60
2936,-0.19,-2.03,11.68,0.07,-0.13,0.65
2942,0.15,-2.03,13.52,0.07,-0.13,0.65
2946,0.15,-2.03,13.52,0.10,-0.06,0.71
2951,0.15,-2.03,13.52,0.10,-0.00,0.70
2956,-0.80,0.23,9.58,0.10,-0.00,0.70
2962,-1.11,-1.19,9.04,0.10,-0.00,0.70
2966,-1.11,-1.19,9.04,0.10,0.10,0.71
2970,-1.11,-1.19,9.04,0.07,0.05,0.70
2975,-0.30,-0.88,9.20,0.07,0.05,0.70
2981,-0.30,-0.88,9.20,0.04,0.00,0.68
2987,-0.30,-0.88,9.20,0.01,-0.02,0.62
2992,-0.30,-0.88,9.20,-0.01,0.00,0.53
2996,-0.30,-0.88,9.20,-0.01,0.01,0.52
3001,-0.30,-0.88,9.20,-0.03,-0.00,0.50
3006,-0.30,-0.88,9.20,-0.04,-0.04,0.47
3012,-0.30,0.27,9.46,-0.04,-0.04,0.47
3016,-0.30,0.27,9.46,-0.09,-0.15,0.41
3021,-0.30,0.27,9.46,-0.12,-0.19,0.40
3026,2.57,0.00,8.96,-0.12,-0.19,0.40
3033,1.88,0.15,9.50,-0.12,-0.19,0.40
3036,1.88,0.15,9.50,-0.11,-0.12,0.39
3041,1.88,0.15,9.50,-0.10,-0.01,0.39
3047,-0.11,0.69,11.19,-0.10,-0.01,0.39
3051,-0.11,0.69,11.19,-0.08,0.18,0.41
3056,-0.11,0.69,11.19,-0.05,0.23,0.42
3062,-0.61,1.38,10.57,-0.05,0.23,0.42
3066,-0.61,1.38,10.57,-0.07,0.26,0.41
3071,-0.61,1.38,10.57,-0.08,0.23,0.40
3076,-0.61,1.38,10.57,-0.10,0.19,0.39
3082,-0.04,0.77,10.04,-0.10,0.19,0.39
3086,-0.04,0.77,10.04,-0.12,0.11,0.42
3091,-0.04,0.77,10.04,-0.13,0.09,0.44
3097,-1.04,1.42,9.65,-0.13,0.09,0.44
3101,-1.04,1.42,9.65,-0.15,0.11,0.43
3106,-1.04,1.42,9.65,-0.15,0.12,0.41
3111,-1.04,1.42,9.65,-0.15,0.12,0.43
3117,0.04,1.15,7.89,-0.15,0.12,0.43
3121,0.04,1.15,7.89,-0.16,0.08,0.46
3126,0.04,1.15,7.89,-0.18,0.04,0.46
3131,0.04,1.15,7.89,-0.21,0.03,0.45
3137,-0.11,1.15,8.36,-0.21,0.03,0.45
3141,-0.11,1.15,8.36,-0.22,0.09,0.39
3146,-2.87,0.42,8.01,-0.22,0.09,0.39
3152,-2.76,0.08,8.58,-0.22,0.09,0.39
3156,-2.76,0.08,8.58,-0.23,0.21,0.39
3161,-2.76,0.08,8.58,-0.23,0.14,0.37
3167,1.30,-1.65,10.88,-0.23,0.14,0.37
3171,1.30,-1.65,10.88,-0.26,-0.05,0.33
3176,1.30,-1.65,10.88,-0.25,-0.08,0.32
3182,1.34,-0.57,11.46,-0.25,-0.08,0.32
3186,1.34,-0.57,11.46,-0.22,0.03,0.33
3191,1.34,-0.57,11.46,-0.22,0.17,0.32
3196,1.34,-0.57,11.46,-0.20,0.29,0.29
3202,-0.34,-0.15,9.35,-0.20,0.29,0.29
3206,-0.34,-0.15,9.35,-0.21,0.33,0.24
3211,-0.34,-0.15,9.35,-0.22,0.29,0.23
3217,0.73,0.23,8.43,-0.22,0.29,0.23
3221,0.73,0.23,8.43,-0.25,0.13,0.20
3226,0.73,0.23,8.43,-0.27,0.09,0.15
3231,0.73,0.23,8.43,-0.29,0.10,0.11
3237,-3.37,0.88,8.88,-0.29,0.10,0.11
3241,-3.37,0.88,8.88,-0.30,0.13,0.06
3246,-3.37,0.88,8.88,-0.32,0.12,0.03
3252,-3.37,0.88,8.88,-0.33,0.06,0.01
3256,-3.37,0.88,8.88,-0.32,-0.02,0.02
3261,-3.37,0.88,8.88,-0.32,-0.08,0.04
3266,-3.37,0.88,8.88,-0.29,-0.11,0.06
3272,-0.61,-0.50,10.19,-0.29,-0.11,0.06
3276,-0.61,-0.50,10.19,-0.25,0.00,0.06
3281,-0.61,-0.50,10.19,-0.23,0.13,0.05
3287,-0.61,-0.50,10.19,-0.20,0.25,0.06
3291,-0.61,-0.50,10.19,-0.18,0.31,0.08
3296,-0.61,-0.50,10.19,-0.19,0.33,0.10
3301,-0.61,-0.50,10.19,-0.18,0.29,0.10
3307,-1.65,0.00,9.54,-0.18,0.29,0.10
3311,-1.65,0.00,9.54,-0.20,0.15,0.09
3316,-1.65,0.00,9.54,-0.21,0.10,0.10
3321,-1.65,0.00,9.54,-0.22,0.07,0.12
3326,-1.65,0.00,9.54,-0.22,0.07,0.14
3331,-1.65,0.00,9.54,-0.21,0.07,0.17
3336,-1.65,0.00,9.54,-0.21,0.08,0.20
3342,-2.18,-1.07,8.78,-0.21,0.08,0.20
3346,-2.18,-1.07,8.78,-0.16,0.04,0.27
3351,-2.18,-1.07,8.78,-0.16,-0.00,0.30
3357,-2.18,-1.07,8.78,-0.15,-0.05,0.31
3361,-2.18,-1.07,8.78,-0.16,-0.08,0.32
3366,-2.18,-1.07,8.78,-0.16,-0.08,0.33
3371,-2.18,-1.07,8.78,-0.15,-0.07,0.34
3377,1.53,-2.49,12.06,-0.15,-0.07,0.34
3381,1.53,-2.49,12.06,-0.12,-0.00,0.38
3386,1.53,-2.49,12.06,-0.10,0.08,0.38
3392,-1.53,-1.88,10.04,-0.10,0.08,0.38
3396,-1.53,-1.88,10.04,-0.08,0.21,0.33
3401,-1.53,-1.88,10.04,-0.08,0.23,0.30
3406,-1.53,-1.88,10.04,-0.08,0.21,0.29
3412,-1.19,-2.68,8.24,-0.08,0.21,0.29
3416,-1.19,-2.68,8.24,-0.11,0.05,0.24
3421,-1.19,-2.68,8.24,-0.11,-0.04,0.21
3427,-0.61,-2.30,10.11,-0.11,-0.04,0.21
3431,-0.61,-2.30,10.11,-0.12,-0.04,0.15
3436,-0.61,-2.30,10.11,-0.13,0.02,0.11
3441,-0.61,-2.30,10.11,-0.13,0.07,0.09
3446,-0.61,-2.30,10.11,-0.14,0.07,0.09
3451,-0.61,-2.30,10.11,-0.14,0.06,0.07
3456,-0.61,-2.30,10.11,-0.18,0.04,0.04
3461,1.88,1.42,9.85,-0.18,0.04,0.04
3466,1.88,1.42,9.85,-0.22,0.01,-0.02
3471,1.88,1.42,9.85,-0.23,0.02,-0.02
3477,1.88,1.42,9.85,-0.24,0.06,-0.01
3481,1.88,1.42,9.85,-0.24,0.13,-0.03
3486,1.88,1.42,9.85,-0.25,0.19,-0.06
3490,1.88,1.42,9.85,-0.27,0.20,-0.09
3495,-0.27,2.91,9.04,-0.27,0.20,-0.09
3501,-0.27,2.91,9.04,-0.27,0.16,-0.12
3507,-0.04,3.07,8.92,-0.27,0.16,-0.12
3512,-0.04,3.07,8.92,-0.29,0.08,-0.15
3516,-0.04,3.07,8.92,-0.32,0.05,-0.16
3521,-0.04,3.07,8.92,-0.34,0.01,-0.20
3526,-0.04,3.07,8.92,-0.35,-0.01,-0.22
3532,1.68,1.95,9.85,-0.35,-0.01,-0.22
3536,1.68,1.95,9.85,-0.36,-0.06,-0.26
3541,1.68,1.95,9.85,-0.35,-0.03,-0.27
3547,1.68,1.95,9.85,-0.35,0.03,-0.29
3551,1.68,1.95,9.85,-0.33,0.10,-0.31
3556,1.68,1.95,9.85,-0.32,0.13,-0.31
3561,1.68,1.95,9.85,-0.30,0.14,-0.31
3567,-1.30,1.07,8.78,-0.30,0.14,-0.31
3571,-1.30,1.07,8.78,-0.29,0.13,-0.35
3576,-1.30,1.07,8.78,-0.29,0.12,-0.38
3581,-1.30,1.07,8.78,-0.27,0.10,-0.37
3586,-1.30,1.07,8.78,-0.28,0.08,-0.36
3591,-1.30,1.07,8.78,-0.28,0.05,-0.35
3596,-1.30,1.07,8.78,-0.30,0.03,-0.36
3602,-0.11,0.65,9.27,-0.30,0.03,-0.36
3606,-0.11,0.65,9.27,-0.31,-0.04,-0.40
3611,-0.11,0.65,9.27,-0.31,-0.04,-0.40
3617,-0.11,0.65,9.27,-0.29,-0.02,-0.39
3621,-0.11,0.65,9.27,-0.27,0.04,-0.37
3626,-0.11,0.65,9.27,-0.24,0.12,-0.34
3631,-0.11,0.65,9.27,-0.23,0.18,-0.31
3636,-0.11,0.65,9.27,-0.23,0.19,-0.30
3641,-0.11,0.65,9.27,-0.23,0.19,-0.32
3646,-0.11,0.65,9.27,-0.22,0.17,-0.33
3651,-1.30,1.72,9.20,-0.22,0.17,-0.33
3656,-1.30,1.72,9.20,-0.21,0.16,-0.29
3661,-1.30,1.72,9.20,-0.22,0.14,-0.27
3666,-1.30,1.72,9.20,-0.24,0.12,-0.26
3672,-3.60,2.03,7.86,-0.24,0.12,-0.26
3676,-3.60,2.03,7.86,-0.24,0.09,-0.33
3681,-3.60,2.03,7.86,-0.25,0.07,-0.35
3686,-2.61,0.23,7.09,-0.25,0.07,-0.35
3691,-2.61,0.23,7.09,-0.24,-0.03,-0.33
3696,-2.61,0.23,7.09,-0.26,-0.09,-0.31
3701,-2.61,0.23,7.09,-0.28,-0.15,-0.34
3706,-2.61,0.23,7.09,-0.29,-0.19,-0.37
3711,-2.61,0.23,7.09,-0.31,-0.20,-0.38
3716,-2.61,0.23,7.09,-0.29,-0.18,-0.38
3722,2.14,-0.57,11.45,-0.29,-0.18,-0.38
3726,2.14,-0.57,11.45,-0.24,-0.07,-0.33
3731,2.14,-0.57,11.45,-0.20,0.03,-0.31
3736,2.14,-0.57,11.45,-0.17,0.12,-0.31
3741,2.14,-0.57,11.45,-0.13,0.21,-0.30
3746,2.14,-0.57,11.45,-0.11,0.26,-0.29
3751,2.14,-0.57,11.45,-0.09,0.27,-0.28
3757,-1.34,-1.57,9.80,-0.09,0.27,-0.28
3761,-1.34,-1.57,9.80,-0.10,0.24,-0.26
3766,-1.34,-1.57,9.80,-0.11,0.20,-0.26
3771,-1.34,-1.57,9.80,-0.10,0.14,-0.24
3776,-1.34,-1.57,9.80,-0.09,0.07,-0.21
3781,-1.34,-1.57,9.80,-0.09,-0.01,-0.19
3786,-1.34,-1.57,9.80,-0.07,-0.08,-0.16
3792,0.61,-2.30,6.32,-0.07,-0.08,-0.16
3796,0.61,-2.30,6.32,-0.09,-0.24,-0.14
3801,0.61,-2.30,6.32,-0.09,-0.27,-0.14
3806,0.61,-2.30,6.32,-0.08,-0.27,-0.12
3811,0.61,-2.30,6.32,-0.06,-0.22,-0.07
3816,0.61,-2.30,6.32,-0.02,-0.13,-0.01
3821,0.61,-2.30,6.32,0.02,-0.00,0.03
3827,-0.46,-1.61,11.46,0.02,-0.00,0.03
3831,-0.46,-1.61,11.46,0.08,0.21,0.07
3836,-0.46,-1.61,11.46,0.12,0.24,0.10
3842,-0.46,-1.61,11.46,0.12,0.23,0.13
3846,-0.46,-1.61,11.46,0.11,0.17,0.17
3851,-0.46,-1.61,11.46,0.11,0.10,0.19
3856,-0.46,-1.61,11.46,0.10,0.05,0.20
3861,-0.46,-1.61,11.46,0.09,0.05,0.21
3867,-0.46,-1.61,11.46,0.12,0.04,0.23
3871,-0.46,-1.61,11.46,0.10,0.01,0.27
3877,-0.92,-1.00,7.43,0.10,0.01,0.27
3881,-0.92,-1.00,7.43,0.09,-0.13,0.33
3886,-0.92,-1.00,7.43,0.06,-0.22,0.37
3891,-0.92,-1.00,7.43,0.05,-0.27,0.40
3896,-0.92,-1.00,7.43,0.04,-0.26,0.42
3901,-0.92,-1.00,7.43,0.07,-0.19,0.45
3906,-0.92,-1.00,7.43,0.09,-0.12,0.51
3912,-0.19,-1.19,10.65,0.09,-0.12,0.51
3916,-0.19,-1.19,10.65,0.16,0.10,0.63
3921,-0.19,-1.19,10.65,0.18,0.17,0.66
3926,-0.19,-1.19,10.65,0.19,0.21,0.65
3932,-3.33,-1.42,9.31,0.19,0.21,0.65
3936,-3.33,-1.42,9.31,0.14,0.16,0.62
3941,-3.33,-1.42,9.31,0.14,0.09,0.59
3946,-2.07,-1.53,10.07,0.14,0.09,0.59
3951,-2.07,-1.53,10.07,0.07,-0.01,0.55
3956,-2.07,-1.53,10.07,0.06,-0.05,0.50
3961,-2.07,-1.53,10.07,0.04,-0.08,0.45
3966,-2.07,-1.53,10.07,0.01,-0.11,0.40
3971,-2.07,-1.53,10.07,0.02,-0.11,0.35
3976,-2.07,-1.53,10.07,0.01,-0.06,0.31
3982,-1.61,-0.08,8.58,0.01,-0.06,0.31
3986,-1.61,-0.08,8.58,0.01,0.09,0.22
3991,-1.61,-0.08,8.58,-0.02,0.13,0.16
3996,-1.61,-0.08,8.58,0.00,0.13,0.12
4001,-1.61,-0.08,8.58,-0.02,0.10,0.12
4006,-1.61,-0.08,8.58,-0.04,0.06,0.10
4011,-1.61,-0.08,8.58,-0.07,0.04,0.03
4017,-3.07,0.73,8.28,-0.07,0.04,0.03
4021,-3.07,0.73,8.28,-0.11,0.04,-0.10
4026,-3.07,0.73,8.28,-0.11,-0.00,-0.09
4032,-3.07,0.73,8.28,-0.12,-0.04,-0.08
4037,0.04,-0.04,9.69,-0.12,-0.04,-0.08
4041,0.04,-0.04,9.69,-0.12,-0.07,-0.11
4046,0.04,-0.04,9.69,-0.11,-0.05,-0.14
4052,-1.65,1.76,10.57,-0.11,-0.05,-0.14
4056,-1.65,1.76,10.57,-0.10,0.10,-0.18
4061,-1.65,1.76,10.57,-0.10,0.16,-0.16
4066,-1.65,1.76,10.57,-0.10,0.17,-0.17
4072,-0.73,0.04,10.45,-0.10,0.17,-0.17
4076,-0.73,0.04,10.45,-0.11,0.10,-0.18
4081,-0.73,0.04,10.45,-0.11,0.03,-0.17
4087,0.46,1.34,9.04,-0.11,0.03,-0.17
4091,0.46,1.34,9.04,-0.12,-0.04,-0.15
4096,0.46,1.34,9.04,-0.14,-0.03,-0.16
4102,0.46,1.34,9.04,-0.14,-0.02,-0.18
4106,0.46,1.34,9.04,-0.14,0.04,-0.19
4111,0.46,1.34,9.04,-0.13,0.10,-0.21
4116,0.46,1.34,9.04,-0.12,0.12,-0.20
4122,0.30,-0.30,9.54,-0.12,0.12,-0.20
4126,0.30,-0.30,9.54,-0.11,-0.03,-0.18
4131,0.30,-0.30,9.54,-0.11,-0.12,-0.20
4137,0.30,-0.30,9.54,-0.12,-0.16,-0.21
4141,0.30,-0.30,9.54,-0.10,-0.14,-0.21
4146,0.30,-0.30,9.54,-0.09,-0.08,-0.20
4151,0.30,-0.30,9.54,-0.08,-0.00,-0.19
4157,0.50,-1.53,9.43,-0.08,-0.00,-0.19
4161,0.50,-1.53,9.43,-0.04,0.05,-0.17
4166,0.50,-1.53,9.43,-0.03,0.06,-0.16
4172,0.50,-1.53,9.43,-0.02,0.06,-0.17
4176,0.50,-1.53,9.43,-0.03,0.05,-0.19
4182,0.50,-1.53,9.43,-0.03,0.06,-0.21
4186,0.50,-1.53,9.43,-0.01,0.07,-0.20
4192,-0.54,-1.46,9.77,-0.01,0.07,-0.20
4196,-0.54,-1.46,9.77,0.01,0.09,-0.14
4201,-0.54,-1.46,9.77,0.01,0.08,-0.12
4207,-0.77,-0.34,8.88,0.01,0.08,-0.12
4211,-0.77,-0.34,8.88,0.00,0.03,-0.12
4216,-0.77,-0.34,8.88,0.00,0.01,-0.13
4221,-0.77,-0.34,8.88,-0.01,-0.03,-0.11
4227,0.30,0.30,7.55,-0.01,-0.03,-0.11
4231,0.30,0.30,7.55,-0.04,-0.12,-0.08
4236,0.30,0.30,7.55,-0.03,-0.13,-0.08
4242,1.49,-0.69,11.49,-0.03,-0.13,-0.08
4246,1.49,-0.69,11.49,-0.04,-0.14,-0.12
4251,1.49,-0.69,11.49,0.00,-0.10,-0.12
4256,1.49,-0.69,11.49,0.03,-0.02,-0.12
4262,-0.84,-0.84,10.03,0.03,-0.02,-0.12
4266,-0.84,-0.84,10.03,0.06,0.10,-0.07
4271,-0.84,-0.84,10.03,0.06,0.11,-0.06
4277,0.73,-0.38,9.50,0.06,0.11,-0.06
4281,0.73,-0.38,9.50,0.03,0.08,-0.12
4286,0.73,-0.38,9.50,0.01,0.06,-0.15
4291,0.73,-0.38,9.50,0.02,0.08,-0.17
4297,-1.99,-0.77,9.54,0.02,0.08,-0.17
4301,-1.99,-0.77,9.54,0.04,0.12,-0.14
4306,-1.99,-0.77,9.54,0.07,0.11,-0.13
4312,-0.73,0.19,9.00,0.07,0.11,-0.13
4316,-0.73,0.19,9.00,0.05,-0.01,-0.12
4321,-0.73,0.19,9.00,0.04,-0.08,-0.13
4326,-0.73,0.19,9.00,0.04,-0.11,-0.14
4332,-0.38,-0.11,8.35,0.04,-0.11,-0.14
4336,-0.38,-0.11,8.35,0.03,-0.11,-0.12
4341,-0.38,-0.11,8.35,0.05,-0.10,-0.08
4347,-1.34,-0.34,10.49,0.05,-0.10,-0.08
4351,-1.34,-0.34,10.49,0.08,-0.01,-0.03
4356,-1.34,-0.34,10.49,0.08,0.04,-0.04
4362,-1.34,-0.34,10.49,0.09,0.07,-0.04
4366,-1.34,-0.34,10.49,0.08,0.08,-0.02
4371,-1.34,-0.34,10.49,0.07,0.06,-0.00
4376,-1.34,-0.34,10.49,0.07,0.03,0.04
4382,-0.96,-0.54,9.89,0.07,0.03,0.04
4386,-0.96,-0.54,9.89,0.08,0.03,0.10
4391,-0.96,-0.54,9.89,0.09,0.04,0.13
4397,-0.96,-0.54,9.89,0.10,0.04,0.17
4401,-0.96,-0.54,9.89,0.11,0.03,0.19
4406,-0.96,-0.54,9.89,0.12,0.05,0.20
4411,-0.96,-0.54,9.89,0.12,0.04,0.21
4417,-1.11,-0.04,8.36,0.12,0.04,0.21
4421,-1.11,-0.04,8.36,0.12,-0.06,0.28
4426,-1.11,-0.04,8.36,0.11,-0.10,0.31
4432,-1.11,-0.04,8.36,0.10,-0.12,0.31
4436,-1.11,-0.04,8.36,0.08,-0.11,0.29
4441,-1.11,-0.04,8.36,0.08,-0.09,0.27
4446,-1.11,-0.04,8.36,0.07,-0.06,0.26
4452,-0.80,-2.14,9.27,0.07,-0.06,0.26
4456,-0.80,-2.14,9.27,0.07,-0.04,0.29
4461,-0.80,-2.14,9.27,0.07,-0.07,0.29
4467,0.46,-1.61,10.80,0.07,-0.07,0.29
4471,0.46,-1.61,10.80,0.06,-0.08,0.24
4476,0.46,-1.61,10.80,0.08,-0.04,0.24
4481,0.46,-1.61,10.80,0.09,0.01,0.26
4487,-1.53,-0.96,10.07,0.09,0.01,0.26
4491,-1.53,-0.96,10.07,0.11,0.12,0.28
4496,-1.53,-0.96,10.07,0.11,0.14,0.28
4502,0.84,-0.77,9.88,0.11,0.14,0.28
4506,0.84,-0.77,9.88,0.10,0.05,0.26
4511,0.84,-0.77,9.88,0.08,-0.01,0.26
4516,0.84,-0.77,9.88,0.09,-0.05,0.28
4521,1.57,-1.19,9.73,0.09,-0.05,0.28
4526,1.57,-1.19,9.73,0.05,-0.07,0.29
4531,1.57,-1.19,9.73,0.03,-0.04,0.27
4537,-1.19,0.23,10.27,0.03,-0.04,0.27
4541,-1.19,0.23,10.27,0.02,0.07,0.22
4546,-1.19,0.23,10.27,0.03,0.10,0.23
4551,-1.19,0.23,10.27,0.03,0.07,0.26
4557,1.80,-0.57,9.61,0.03,0.07,0.26
4561,1.80,-0.57,9.61,0.00,-0.07,0.28
4566,1.80,-0.57,9.61,-0.01,-0.09,0.26
4572,0.88,-0.27,9.65,-0.01,-0.09,0.26
4576,0.88,-0.27,9.65,0.00,-0.02,0.27
4581,0.88,-0.27,9.65,0.02,0.02,0.29
4586,0.88,-0.27,9.65,0.03,0.07,0.32
4592,0.54,-0.23,10.42,0.03,0.07,0.32
4596,0.54,-0.23,10.42,0.03,0.07,0.32
4601,0.54,-0.23,10.42,0.00,0.04,0.29
4607,0.38,-0.08,9.73,0.00,0.04,0.29
4611,0.38,-0.08,9.73,-0.02,0.01,0.23
4616,0.38,-0.08,9.73,-0.02,0.01,0.24
4622,0.38,-0.08,9.73,-0.03,0.01,0.24
4626,0.38,-0.08,9.73,-0.03,0.05,0.23
4631,0.38,-0.08,9.73,-0.05,0.10,0.19
4636,0.38,-0.08,9.73,-0.04,0.13,0.15
4642,-2.03,-0.46,7.59,-0.04,0.13,0.15
4646,-2.03,-0.46,7.59,-0.07,0.09,0.12
4651,-2.03,-0.46,7.59,-0.08,0.04,0.11
4657,-0.04,0.69,7.78,-0.08,0.04,0.11
4661,-0.04,0.69,7.78,-0.14,-0.08,0.05
4666,-0.04,0.69,7.78,-0.14,-0.10,0.03
4671,-0.04,0.69,7.78,-0.16,-0.06,0.02
4677,-0.04,-0.08,12.72,-0.16,-0.06,0.02
4681,-0.04,-0.08,12.72,-0.15,0.06,-0.00
4686,-0.04,-0.08,12.72,-0.15,0.13,-0.02
4692,-0.04,-0.08,12.72,-0.14,0.19,-0.03
4696,-0.04,-0.08,12.72,-0.14,0.19,-0.02
4701,-0.04,-0.08,12.72,-0.14,0.18,-0.01
4707,-0.04,-0.08,12.72,-0.14,0.14,-0.02
4712,-1.07,-0.19,9.96,-0.14,0.14,-0.02
4716,-1.07,-0.19,9.96,-0.16,0.08,-0.04
4721,-1.07,-0.19,9.96,-0.15,0.08,-0.05
4727,-3.48,0.61,8.58,-0.15,0.08,-0.05
4731,-3.48,0.61,8.58,-0.13,0.13,-0.04
4736,-3.48,0.61,8.58,-0.12,0.12,-0.02
4741,-3.48,0.61,8.58,-0.12,0.08,-0.02
4747,-2.49,0.84,7.74,-0.12,0.08,-0.02
4751,-2.49,0.84,7.74,-0.18,-0.07,-0.08
4756,-2.49,0.84,7.74,-0.21,-0.15,-0.13
4762,1.15,-0.57,9.27,-0.21,-0.15,-0.13
4766,1.15,-0.57,9.27,-0.22,-0.23,-0.16
4771,1.15,-0.57,9.27,-0.21,-0.17,-0.14
4776,1.15,-0.57,9.27,-0.19,-0.06,-0.12
4781,-1.23,-1.07,11.76,-0.19,-0.06,-0.12
4786,-1.23,-1.07,11.76,-0.16,0.15,-0.17
4791,-1.23,-1.07,11.76,-0.17,0.20,-0.21
4797,0.38,-0.73,10.35,-0.17,0.20,-0.21
4801,0.38,-0.73,10.35,-0.14,0.13,-0.21
4806,0.38,-0.73,10.35,-0.12,0.10,-0.20
4811,0.38,-0.73,10.35,-0.13,0.08,-0.21
4817,0.42,-0.77,10.57,-0.13,0.08,-0.21
4821,0.42,-0.77,10.57,-0.11,0.05,-0.24
4826,0.42,-0.77,10.57,-0.11,0.05,-0.24
4832,0.42,-0.77,10.57,-0.11,0.04,-0.26
4836,0.42,-0.77,10.57,-0.11,0.03,-0.29
4841,0.42,-0.77,10.57,-0.10,0.02,-0.30
4846,-0.77,-0.38,7.70,-0.10,0.02,-0.30
4852,-0.04,0.08,9.20,-0.10,0.02,-0.30
4856,-0.04,0.08,9.20,-0.12,-0.06,-0.34
4861,-0.04,0.08,9.20,-0.14,-0.09,-0.38
4867,0.04,0.38,9.27,-0.14,-0.09,-0.38
4871,0.04,0.38,9.27,-0.16,-0.04,-0.46
4876,0.04,0.38,9.27,-0.15,-0.00,-0.46
4882,-0.27,-0.73,8.66,-0.15,-0.00,-0.46
4886,-0.27,-0.73,8.66,-0.13,0.04,-0.40
4891,-0.27,-0.73,8.66,-0.12,0.03,-0.39
4896,-0.27,-0.73,8.66,-0.12,0.01,-0.40
4902,2.03,0.65,11.72,-0.12,0.01,-0.40
4906,2.03,0.65,11.72,-0.11,0.01,-0.41
4911,2.03,0.65,11.72,-0.10,0.05,-0.39
4917,-1.15,0.46,9.73,-0.10,0.05,-0.39
4921,-1.15,0.46,9.73,-0.07,0.14,-0.33
4826,0.42,-0.77,10.57,-0.11,0.05,-0.24
4832,0.42,-0.77,10.57,-0.11,0.04,-0.26
4836,0.42,-0.77,10.57,-0.11,0.03,-0.29
4841,0.42,-0.77,10.57,-0.10,0.02,-0.30
4846,-0.77,-0.38,7.70,-0.10,0.02,-0.30
4852,-0.04,0.08,9.20,-0.10,0.02,-0.30
4856,-0.04,0.08,9.20,-0.12,-0.06,-0.34
4861,-0.04,0.08,9.20,-0.14,-0.09,-0.38
4867,0.04,0.38,9.27,-0.14,-0.09,-0.38
4871,0.04,0.38,9.27,-0.16,-0.04,-0.46
4876,0.04,0.38,9.27,-0.15,-0.00,-0.46
4882,-0.27,-0.73,8.66,-0.15,-0.00,-0.46
4886,-0.27,-0.73,8.66,-0.13,0.04,-0.40
4891,-0.27,-0.73,8.66,-0.12,0.03,-0.39
4896,-0.27,-0.73,8.66,-0.12,0.01,-0.40
4902,2.03,0.65,11.72,-0.12,0.01,-0.40
