timestamp,accX,accY,accZ,gyroX,gyroY,gyroZ
Right
5,-0.30,-1.27,9.27,-0.06,0.00,0.02
18,-0.30,-1.27,9.27,-0.07,0.00,0.02
20,-0.27,-0.23,9.38,-0.07,0.00,0.02
21,0.04,-1.04,9.61,-0.07,0.00,0.02
25,0.04,-1.04,9.61,-0.20,-0.01,-0.16
30,-1.15,-0.57,9.35,-0.20,-0.01,-0.16
36,-1.34,-1.00,9.65,-0.20,-0.01,-0.16
40,-0.11,-1.19,9.42,-0.20,-0.01,-0.16
45,-0.30,-0.77,9.65,-0.20,-0.01,-0.16
50,-0.19,-0.88,9.23,-0.20,-0.01,-0.16
56,-0.08,-1.30,9.20,-0.20,-0.01,-0.16
60,-0.27,-1.61,9.20,-0.20,-0.01,-0.16
65,-1.07,-0.73,9.73,-0.20,-0.01,-0.16
71,-0.92,-0.77,9.61,-0.20,-0.01,-0.16
75,-1.38,-1.04,8.92,-0.20,-0.01,-0.16
80,-1.19,-0.96,8.46,-0.20,-0.01,-0.16
86,-1.27,-1.11,8.58,-0.20,-0.01,-0.16
90,-1.27,-1.11,8.58,-0.13,0.05,-0.08
95,-0.15,-0.69,9.84,-0.13,0.05,-0.08
100,-0.15,-0.69,9.84,-0.12,0.01,-0.07
105,0.23,-0.92,9.93,-0.12,0.01,-0.07
113,0.23,-0.92,9.93,-0.12,-0.03,-0.04
116,-1.11,-0.84,9.81,-0.12,-0.03,-0.04
120,-1.11,-0.84,9.81,-0.11,0.04,-0.01
125,-1.11,-0.84,9.81,-0.09,0.05,0.03
130,-0.61,-0.04,8.96,-0.09,0.05,0.03
136,-0.73,-0.23,8.43,-0.09,0.05,0.03
140,-0.73,-0.23,8.43,-0.10,0.06,0.01
145,-0.38,-0.19,9.08,-0.10,0.06,0.01
150,-0.42,0.30,9.42,-0.10,0.06,0.01
156,0.19,0.00,10.27,-0.10,0.06,0.01
161,0.19,0.00,10.27,-0.10,-0.02,0.06
165,-0.80,-0.30,10.73,-0.10,-0.02,0.06
170,-0.30,-0.92,10.42,-0.10,-0.02,0.06
176,-0.08,-0.73,10.07,-0.10,-0.02,0.06
181,0.65,-1.11,10.15,-0.10,-0.02,0.06
186,0.88,-0.65,9.65,-0.10,-0.02,0.06
190,0.88,-0.65,9.65,-0.09,-0.01,0.06
195,0.88,-0.65,9.65,-0.10,0.03,0.06
200,-0.92,-0.88,8.78,-0.10,0.03,0.06
206,-1.27,-0.92,9.58,-0.10,0.03,0.06
210,-1.27,-0.92,9.58,-0.12,0.09,0.04
215,-1.34,-0.57,9.31,-0.12,0.09,0.04
221,0.23,-1.07,9.92,-0.12,0.09,0.04
225,0.23,-1.07,9.92,-0.12,-0.01,0.06
231,0.23,-1.07,9.92,-0.13,-0.03,0.04
236,-1.34,-0.69,8.50,-0.13,-0.03,0.04
240,-1.34,-0.69,8.50,-0.12,-0.00,0.04
245,-1.34,-0.69,8.50,-0.12,-0.02,0.08
250,-1.34,-0.69,8.50,-0.13,-0.04,0.07
255,-0.61,0.23,7.47,-0.13,-0.04,0.07
261,-0.30,0.19,9.92,-0.13,-0.04,0.07
265,-0.11,-0.30,10.31,-0.13,-0.04,0.07
270,-0.08,0.34,10.19,-0.13,-0.04,0.07
276,0.96,-0.73,10.07,-0.13,-0.04,0.07
281,0.96,-0.73,10.07,-0.14,0.00,0.00
285,0.04,-0.73,10.57,-0.14,0.00,0.00
290,1.38,-0.96,11.49,-0.14,0.00,0.00
296,0.80,-0.46,9.93,-0.14,0.00,0.00
301,-2.53,0.54,8.77,-0.14,0.00,0.00
306,-1.84,0.19,8.39,-0.14,0.00,0.00
310,-1.84,0.19,8.39,-0.18,0.14,-0.04
315,-1.84,0.19,8.39,-0.18,0.11,-0.00
320,-1.11,0.19,7.66,-0.18,0.11,-0.00
327,-0.38,-0.34,7.89,-0.18,0.11,-0.00
330,-0.38,-0.34,7.89,-0.18,-0.08,-0.01
336,0.69,-1.15,10.11,-0.18,-0.08,-0.01
341,2.45,-1.76,11.30,-0.18,-0.08,-0.01
345,2.45,-1.76,11.30,-0.14,-0.17,0.04
351,2.45,-1.76,11.30,-0.13,-0.12,0.02
356,-0.27,-3.26,11.54,-0.13,-0.12,0.02
360,-0.27,-3.26,11.54,-0.11,0.03,0.05
365,-0.27,-3.26,11.54,-0.11,0.08,0.05
371,-0.27,-3.26,11.54,-0.10,0.09,0.04
377,-0.38,-0.77,8.43,-0.10,0.09,0.04
380,-0.38,-0.77,8.43,-0.12,0.04,0.02
385,-0.61,-0.57,8.66,-0.12,0.04,0.02
390,-0.19,-1.49,9.08,-0.12,0.04,0.02
396,-1.00,-0.80,9.08,-0.12,0.04,0.02
400,-1.00,-0.80,9.08,-0.12,0.03,0.10
405,-1.11,-1.00,10.80,-0.12,0.03,0.10
411,-0.11,-1.23,10.39,-0.12,0.03,0.10
415,-0.11,-1.23,10.39,-0.11,-0.03,0.12
421,-0.65,-0.38,9.61,-0.11,-0.03,0.12
426,-0.15,-0.73,7.51,-0.11,-0.03,0.12
430,-0.15,-0.73,7.51,-0.14,-0.04,0.11
435,-0.15,-0.73,7.51,-0.15,-0.03,0.10
441,1.00,-0.80,9.16,-0.15,-0.03,0.10
446,0.00,-0.42,10.07,-0.15,-0.03,0.10
450,0.00,-0.42,10.07,-0.16,-0.03,0.06
456,-1.11,-0.34,9.73,-0.16,-0.03,0.06
462,0.42,-1.76,11.30,-0.16,-0.03,0.06
465,0.42,-1.76,11.30,-0.15,-0.03,-0.00
470,0.42,-1.76,11.30,-0.16,-0.04,-0.04
476,-0.65,0.84,9.39,-0.16,-0.04,-0.04
482,0.00,0.50,8.85,-0.16,-0.04,-0.04
485,0.00,0.50,8.85,-0.24,0.06,-0.15
491,0.00,0.50,8.85,-0.25,0.04,-0.17
496,-0.46,1.00,8.08,-0.25,0.04,-0.17
500,-0.46,1.00,8.08,-0.28,0.02,-0.22
505,-0.46,1.00,8.08,-0.28,-0.01,-0.23
511,-0.46,1.00,8.08,-0.28,-0.03,-0.27
516,0.34,2.14,10.27,-0.28,-0.03,-0.27
520,0.34,2.14,10.27,-0.29,-0.04,-0.34
525,1.15,0.38,10.50,-0.29,-0.04,-0.34
531,2.14,1.15,11.26,-0.29,-0.04,-0.34
535,2.14,1.15,11.26,-0.30,-0.04,-0.38
541,2.14,1.15,11.26,-0.31,-0.02,-0.44
546,-0.54,0.84,9.20,-0.31,-0.02,-0.44
550,-0.54,0.84,9.20,-0.35,0.09,-0.54
555,-0.54,0.84,9.20,-0.36,0.12,-0.57
561,-1.57,2.03,8.58,-0.36,0.12,-0.57
566,-0.30,2.07,9.77,-0.36,0.12,-0.57
570,-0.30,2.07,9.77,-0.39,0.04,-0.67
576,1.04,0.73,9.61,-0.39,0.04,-0.67
581,0.50,1.46,10.03,-0.39,0.04,-0.67
585,0.50,1.46,10.03,-0.42,0.01,-0.81
590,0.50,1.46,10.03,-0.41,0.02,-0.80
597,-0.46,-0.42,9.58,-0.41,0.02,-0.80
601,-0.73,0.50,8.78,-0.41,0.02,-0.80
605,-0.73,0.50,8.78,-0.41,0.05,-0.80
611,-0.73,0.50,8.78,-0.41,0.06,-0.84
616,-1.15,1.04,7.74,-0.41,0.06,-0.84
622,-1.15,1.04,7.74,-0.43,0.06,-0.87
625,-1.15,1.04,7.74,-0.42,0.03,-0.82
631,-1.15,1.04,7.74,-0.41,-0.00,-0.82
636,2.57,-0.96,10.45,-0.41,-0.00,-0.82
641,2.57,-0.96,10.45,-0.37,-0.12,-0.83
646,2.57,-0.96,10.45,-0.35,-0.13,-0.84
651,1.04,-1.07,11.92,-0.35,-0.13,-0.84
656,1.04,-1.07,11.92,-0.33,-0.01,-0.87
660,1.04,-1.07,11.92,-0.31,0.08,-0.86
666,0.73,0.11,9.77,-0.31,0.08,-0.86
671,-0.80,0.65,6.93,-0.31,0.08,-0.86
676,-0.80,0.65,6.93,-0.37,0.29,-0.93
681,-0.80,0.65,6.93,-0.38,0.30,-0.92
686,-2.99,0.96,7.78,-0.38,0.30,-0.92
690,-2.99,0.96,7.78,-0.35,0.25,-0.85
695,-2.99,0.96,7.78,-0.37,0.23,-0.83
700,-0.46,0.15,10.49,-0.37,0.23,-0.83
705,-0.46,0.15,10.49,-0.32,0.13,-0.77
712,-0.46,0.15,10.49,-0.27,0.02,-0.71
716,0.65,-0.23,10.27,-0.27,0.02,-0.71
721,0.19,-1.27,9.35,-0.27,0.02,-0.71
725,0.19,-1.27,9.35,-0.21,-0.04,-0.53
731,0.19,-1.27,9.35,-0.22,0.02,-0.47
737,-3.18,-0.38,6.32,-0.22,0.02,-0.47
740,-3.18,-0.38,6.32,-0.24,0.06,-0.41
745,-3.18,-0.38,6.32,-0.25,0.04,-0.42
751,-3.18,-0.38,6.32,-0.23,-0.02,-0.42
756,2.53,0.69,11.30,-0.23,-0.02,-0.42
761,2.53,0.69,11.30,-0.26,-0.11,-0.45
765,2.53,0.69,11.30,-0.27,-0.07,-0.51
771,2.53,0.69,11.30,-0.24,-0.05,-0.52
776,2.53,-4.33,9.93,-0.24,-0.05,-0.52
781,2.53,-4.33,9.93,-0.14,-0.03,-0.39
786,2.53,-4.33,9.93,-0.16,0.03,-0.38
791,0.77,-0.34,10.42,-0.16,0.03,-0.38
796,0.77,-0.34,10.42,-0.15,0.07,-0.47
801,0.77,-0.34,10.42,-0.16,0.11,-0.53
807,0.08,-0.42,9.84,-0.16,0.11,-0.53
811,0.08,-0.42,9.84,-0.18,0.17,-0.56
816,0.08,-0.42,9.84,-0.13,0.21,-0.57
821,-0.61,-0.92,9.46,-0.13,0.21,-0.57
827,0.11,-0.65,8.35,-0.13,0.21,-0.57
831,0.11,-0.65,8.35,-0.15,0.13,-0.50
836,0.11,-0.65,8.35,-0.14,0.05,-0.54
842,0.69,1.30,10.27,-0.14,0.05,-0.54
845,0.69,1.30,10.27,-0.19,-0.04,-0.66
851,0.69,1.30,10.27,-0.21,-0.02,-0.66
857,0.42,0.57,8.81,-0.21,-0.02,-0.66
861,2.18,0.77,9.50,-0.21,-0.02,-0.66
865,2.18,0.77,9.50,-0.23,0.05,-0.71
871,2.18,0.77,9.50,-0.24,0.08,-0.76
876,0.46,1.42,10.49,-0.24,0.08,-0.76
881,0.46,1.42,10.49,-0.25,0.14,-0.82
885,0.46,1.42,10.49,-0.24,0.18,-0.86
891,-2.95,-0.04,11.07,-0.24,0.18,-0.86
896,-3.10,-0.27,10.11,-0.24,0.18,-0.86
901,-3.10,-0.27,10.11,-0.22,0.28,-0.89
906,-3.10,-0.27,10.11,-0.24,0.21,-0.88
911,-0.34,1.11,7.59,-0.24,0.21,-0.88
916,-0.34,1.11,7.59,-0.29,0.06,-0.99
921,-0.34,1.11,7.59,-0.29,0.04,-1.07
927,-0.88,-3.26,7.01,-0.29,0.04,-1.07
931,-0.88,-3.26,7.01,-0.25,0.04,-1.01
936,-0.88,-3.26,7.01,-0.22,0.06,-0.95
941,-0.80,-1.76,9.69,-0.22,0.06,-0.95
946,2.53,-2.45,9.89,-0.22,0.06,-0.95
951,2.53,-2.45,9.89,-0.16,-0.02,-0.91
956,2.53,-2.45,9.89,-0.18,-0.02,-0.95
962,5.75,-2.84,11.19,-0.18,-0.02,-0.95
965,5.75,-2.84,11.19,-0.15,-0.05,-0.91
970,5.75,-2.84,11.19,-0.11,0.02,-0.90
975,5.75,-2.84,11.19,-0.07,0.08,-0.83
980,-2.49,-4.02,10.04,-0.07,0.08,-0.83
987,-2.49,-4.02,10.04,-0.04,0.16,-0.71
991,-2.49,-4.02,10.04,-0.04,0.36,-0.64
996,-1.23,-1.04,8.81,-0.04,0.36,-0.64
1001,-1.23,-1.04,8.81,0.01,0.26,-0.52
1005,-1.23,-1.04,8.81,0.00,0.15,-0.50
1011,-1.23,-1.04,8.81,0.00,0.01,-0.50
1017,3.68,-1.46,9.50,0.00,0.01,-0.50
1020,3.68,-1.46,9.50,0.02,-0.17,-0.43
1025,3.68,-1.46,9.50,0.04,-0.15,-0.38
1030,3.68,-1.46,9.50,0.05,-0.10,-0.30
1036,0.42,-2.34,9.65,0.05,-0.10,-0.30
1041,0.42,-2.34,9.65,0.08,0.07,-0.27
1046,0.42,-2.34,9.65,0.07,0.15,-0.27
1052,0.30,-1.11,10.19,0.07,0.15,-0.27
1055,0.30,-1.11,10.19,0.12,0.14,-0.23
1061,0.30,-1.11,10.19,0.09,0.11,-0.26
1066,1.68,-1.42,9.54,0.09,0.11,-0.26
1071,1.68,-1.42,9.54,0.11,0.08,-0.33
1076,1.68,-1.42,9.54,0.13,0.05,-0.29
1081,1.91,-4.14,9.00,0.13,0.05,-0.29
1086,1.30,-2.95,9.00,0.13,0.05,-0.29
1091,1.30,-2.95,9.00,0.11,0.02,-0.39
1096,1.30,-2.95,9.00,0.12,0.08,-0.45
1102,-5.86,2.99,9.61,0.12,0.08,-0.45
1106,-5.86,2.99,9.61,0.03,0.28,-0.40
1111,-5.86,2.99,9.61,-0.04,0.28,-0.38
1117,2.41,-0.96,6.12,-0.04,0.28,-0.38
1121,2.41,-0.96,6.12,-0.06,0.06,-0.49
1126,2.41,-0.96,6.12,-0.03,-0.03,-0.55
1131,2.41,-0.96,6.12,0.02,-0.07,-0.47
1137,-1.57,-4.48,8.88,0.02,-0.07,-0.47
1141,-1.57,-4.48,8.88,0.18,-0.07,-0.11
1145,-1.57,-4.48,8.88,0.20,-0.01,-0.05
1150,-1.57,-4.48,8.88,0.14,0.07,-0.10
1157,-3.26,5.32,12.34,0.14,0.07,-0.10
1160,-3.26,5.32,12.34,0.01,0.19,-0.30
1166,-2.41,-0.88,9.73,0.01,0.19,-0.30
1171,-2.41,-0.88,9.73,-0.05,0.16,-0.46
1176,-2.41,-0.88,9.73,-0.04,0.07,-0.44
1181,-2.41,-0.88,9.73,-0.01,-0.02,-0.37
1186,-2.34,-2.38,9.50,-0.01,-0.02,-0.37
1191,-2.34,-2.38,9.50,-0.01,-0.07,-0.32
1196,-2.34,-2.38,9.50,-0.01,-0.04,-0.35
1201,1.42,1.38,11.60,-0.01,-0.04,-0.35
1206,1.61,1.76,11.72,-0.01,-0.04,-0.35
1211,1.61,1.76,11.72,-0.03,0.06,-0.43
1216,1.61,1.76,11.72,-0.03,0.14,-0.39
1221,-0.04,-0.92,9.50,-0.03,0.14,-0.39
1226,-0.04,-0.92,9.50,-0.02,0.22,-0.21
1231,-0.04,-0.92,9.50,0.02,0.20,-0.18
1236,-0.46,-0.54,8.20,0.02,0.20,-0.18
1241,-0.38,-0.23,7.89,0.02,0.20,-0.18
1246,-0.38,-0.23,7.89,-0.02,0.06,-0.16
1251,-0.38,-0.23,7.89,-0.04,0.00,-0.15
1256,0.42,-0.38,10.57,-0.04,0.00,-0.15
1261,0.42,-0.38,10.57,-0.04,-0.07,-0.12
1265,0.42,-0.38,10.57,-0.03,-0.06,-0.14
1271,0.42,-0.38,10.57,-0.05,-0.05,-0.16
1276,0.34,-3.33,9.20,-0.05,-0.05,-0.16
1281,0.34,-3.33,9.20,-0.02,0.03,-0.18
1286,0.34,-3.33,9.20,-0.03,0.04,-0.20
1291,-1.38,-2.41,8.73,-0.03,0.04,-0.20
1296,-1.38,-2.41,8.73,-0.04,0.10,-0.25
1301,-1.38,-2.41,8.73,-0.04,0.11,-0.27
1305,-1.84,-2.03,9.00,-0.04,0.11,-0.27
1312,-1.34,-2.87,10.15,-0.04,0.11,-0.27
1316,-1.34,-2.87,10.15,-0.02,0.11,-0.29
1321,1.38,-2.30,11.19,-0.02,0.11,-0.29
1327,2.11,-1.80,10.92,-0.02,0.11,-0.29
1331,2.11,-1.80,10.92,0.00,0.03,-0.37
1336,2.11,-1.80,10.92,0.00,0.09,-0.40
1341,-1.46,-0.77,8.73,0.00,0.09,-0.40
1345,-1.46,-0.77,8.73,0.01,0.22,-0.34
1351,-1.46,-0.77,8.73,0.01,0.23,-0.32
1356,-1.46,-0.77,8.73,-0.03,0.25,-0.37
1361,-1.23,0.27,8.46,-0.03,0.25,-0.37
1366,-1.23,0.27,8.46,-0.07,0.20,-0.50
1371,-1.23,0.27,8.46,-0.05,0.13,-0.51
1376,-0.11,-0.11,9.85,-0.05,0.13,-0.51
1381,-0.11,-0.11,9.85,-0.06,0.01,-0.47
1386,-0.11,-0.11,9.85,-0.07,0.00,-0.49
1391,-0.11,-0.11,9.85,-0.06,0.02,-0.54
1396,-0.50,1.00,10.77,-0.06,0.02,-0.54
1401,-0.50,1.00,10.77,-0.10,0.10,-0.59
1406,-0.50,1.00,10.77,-0.12,0.11,-0.59
1411,0.80,2.49,9.23,-0.12,0.11,-0.59
1416,0.80,2.49,9.23,-0.18,0.13,-0.70
1421,0.80,2.49,9.23,-0.20,0.14,-0.76
1426,0.80,2.49,9.23,-0.21,0.16,-0.77
1432,1.38,1.72,7.97,-0.21,0.16,-0.77
1436,1.38,1.72,7.97,-0.22,0.12,-0.75
1441,1.38,1.72,7.97,-0.22,0.10,-0.77
1446,0.57,1.53,10.91,-0.22,0.10,-0.77
1450,0.57,1.53,10.91,-0.25,0.13,-0.79
1455,2.72,0.84,12.61,-0.25,0.13,-0.79
1461,2.72,0.84,12.61,-0.23,0.12,-0.78
1466,1.00,0.50,14.82,-0.23,0.12,-0.78
1471,1.00,0.50,14.82,-0.23,0.24,-0.93
1476,1.00,0.50,14.82,-0.25,0.34,-0.94
1481,-1.23,-0.08,8.66,-0.25,0.34,-0.94
1486,-1.23,-0.08,8.66,-0.24,0.44,-0.92
1491,-1.23,-0.08,8.66,-0.27,0.46,-0.90
1497,-1.23,-0.08,8.66,-0.30,0.43,-0.88
1501,-1.23,-0.08,8.66,-0.30,0.39,-0.88
1506,-1.23,-0.08,8.66,-0.28,0.31,-0.86
1511,-1.23,-0.08,8.66,-0.24,0.19,-0.82
1516,-1.30,-1.19,9.34,-0.24,0.19,-0.82
1521,-1.30,-1.19,9.34,-0.15,-0.02,-0.71
1526,-1.30,-1.19,9.34,-0.13,-0.08,-0.66
1532,-1.30,-1.19,9.34,-0.12,-0.10,-0.60
1536,-1.30,-1.19,9.34,-0.09,-0.11,-0.56
1541,-1.30,-1.19,9.34,-0.10,-0.06,-0.55
1546,-1.30,-1.19,9.34,-0.12,-0.01,-0.56
1551,-2.76,-1.49,10.61,-0.12,-0.01,-0.56
1556,-2.76,-1.49,10.61,-0.12,0.16,-0.58
1561,-2.76,-1.49,10.61,-0.13,0.20,-0.57
1566,-2.76,-1.49,10.61,-0.14,0.24,-0.57
1571,-2.76,-1.49,10.61,-0.15,0.30,-0.60
1576,-2.76,-1.49,10.61,-0.17,0.30,-0.58
1581,-2.76,-1.49,10.61,-0.12,0.26,-0.53
1586,-1.84,-2.61,8.42,-0.12,0.26,-0.53
1591,-1.84,-2.61,8.42,-0.07,0.13,-0.43
1596,-1.84,-2.61,8.42,-0.03,0.05,-0.37
1601,-1.84,-2.61,8.42,0.00,-0.01,-0.32
1606,-1.84,-2.61,8.42,0.01,-0.04,-0.33
1611,-1.84,-2.61,8.42,0.01,0.00,-0.34
1616,-1.84,-2.61,8.42,0.02,0.10,-0.36
1621,-1.46,-2.22,10.53,0.02,0.10,-0.36
1626,-1.46,-2.22,10.53,0.01,0.31,-0.32
1631,-1.46,-2.22,10.53,0.01,0.37,-0.29
1636,-1.46,-2.22,10.53,-0.01,0.38,-0.29
1641,-1.46,-2.22,10.53,-0.03,0.31,-0.26
1646,-1.46,-2.22,10.53,-0.00,0.21,-0.25
1651,-1.46,-2.22,10.53,-0.01,0.10,-0.25
1656,-1.46,-2.22,10.53,0.01,0.02,-0.24
1661,-1.46,-2.22,10.53,0.04,-0.00,-0.19
1666,-1.46,-2.22,10.53,0.06,0.00,-0.14
1672,-1.91,-3.83,9.73,0.06,0.00,-0.14
1676,-1.91,-3.83,9.73,0.12,0.04,-0.05
1681,-1.91,-3.83,9.73,0.13,0.04,-0.01
1687,-1.91,-3.83,9.73,0.12,0.04,0.00
1691,-1.91,-3.83,9.73,0.12,0.04,-0.02
1696,-1.91,-3.83,9.73,0.14,0.08,-0.04
1701,-1.91,-3.83,9.73,0.12,0.10,-0.05
1706,-1.11,-3.45,10.07,0.12,0.10,-0.05
1711,-1.11,-3.45,10.07,0.12,0.15,-0.08
1716,-1.11,-3.45,10.07,0.13,0.14,-0.09
1721,-1.11,-3.45,10.07,0.13,0.12,-0.09
1726,-1.11,-3.45,10.07,0.12,0.14,-0.09
1731,-1.11,-3.45,10.07,0.10,0.12,-0.10
1736,-1.11,-3.45,10.07,0.11,0.08,-0.11
1741,-1.61,-1.49,8.46,0.11,0.08,-0.11
1746,-1.61,-1.49,8.46,0.09,0.05,-0.18
1751,-1.61,-1.49,8.46,0.09,0.04,-0.14
1756,-1.61,-1.49,8.46,0.11,0.03,-0.14
1761,-1.61,-1.49,8.46,0.10,0.02,-0.18
1766,-1.61,-1.49,8.46,0.10,0.02,-0.21
1771,-1.61,-1.49,8.46,0.08,0.05,-0.24
1777,-1.88,-1.76,10.73,0.08,0.05,-0.24
1781,-1.88,-1.76,10.73,0.07,0.15,-0.29
1786,-1.88,-1.76,10.73,0.08,0.18,-0.30
1791,-1.88,-1.76,10.73,0.07,0.13,-0.30
1796,-1.88,-1.76,10.73,0.04,0.06,-0.34
1801,-1.88,-1.76,10.73,0.03,0.01,-0.43
1806,-1.88,-1.76,10.73,-0.01,-0.02,-0.49
1811,-1.88,-1.76,10.73,-0.04,-0.05,-0.48
1816,-1.88,-1.76,10.73,-0.05,-0.11,-0.47
1821,-1.88,-1.76,10.73,-0.06,-0.14,-0.52
1825,-1.88,-1.76,10.73,-0.08,-0.10,-0.63
1831,0.92,-1.19,10.23,-0.08,-0.10,-0.63
1836,0.92,-1.19,10.23,-0.05,0.08,-0.68
1840,0.92,-1.19,10.23,-0.04,0.18,-0.63
1846,-0.42,1.04,10.77,-0.04,0.18,-0.63
1851,-0.42,1.04,10.77,-0.10,0.27,-0.67
1856,-0.42,1.04,10.77,-0.12,0.21,-0.73
1861,-0.42,1.04,10.77,-0.12,0.16,-0.82
1865,-0.42,1.04,10.77,-0.12,0.10,-0.84
1870,-0.42,1.04,10.77,-0.10,0.04,-0.79
1875,1.23,-1.00,8.81,-0.10,0.04,-0.79
1880,1.23,-1.00,8.81,-0.12,0.06,-0.77
1886,-2.64,-1.68,8.62,-0.12,0.06,-0.77
1891,-2.64,-1.68,8.62,-0.09,0.17,-0.76
1896,-2.64,-1.68,8.62,-0.07,0.19,-0.73
1901,-2.64,-1.68,8.62,-0.07,0.18,-0.73
1906,-2.64,-1.68,8.62,-0.10,0.14,-0.76
1911,-2.64,-1.68,8.62,-0.08,0.11,-0.80
1916,-2.64,-1.68,8.62,-0.07,0.08,-0.81
1921,-2.64,-1.68,8.62,-0.03,0.07,-0.79
1926,-2.64,-1.68,8.62,-0.02,0.06,-0.75
1932,0.57,-1.15,10.45,-0.02,0.06,-0.75
1936,0.57,-1.15,10.45,-0.01,0.17,-0.80
1941,0.57,-1.15,10.45,-0.03,0.22,-0.81
1945,0.57,-1.15,10.45,-0.03,0.27,-0.80
1951,-1.46,1.11,7.89,-0.03,0.27,-0.80
1956,-1.46,1.11,7.89,-0.08,0.29,-0.83
1961,-1.46,1.11,7.89,-0.08,0.29,-0.85
1966,-0.88,0.15,10.49,-0.08,0.29,-0.85
1971,-0.88,0.15,10.49,-0.04,0.27,-0.81
1976,-0.88,0.15,10.49,-0.01,0.23,-0.77
1981,-0.88,0.15,10.49,-0.02,0.22,-0.75
1986,-0.88,0.15,10.49,-0.01,0.17,-0.72
1991,-0.88,0.15,10.49,0.03,0.11,-0.69
1996,-0.88,0.15,10.49,0.04,0.09,-0.67
2001,-3.45,0.19,8.82,0.04,0.09,-0.67
2006,-3.45,0.19,8.82,0.00,0.16,-0.58
2011,-3.45,0.19,8.82,-0.01,0.15,-0.54
2016,-3.45,0.19,8.82,-0.01,0.12,-0.58
2021,-3.45,0.19,8.82,-0.02,0.14,-0.62
2026,-3.45,0.19,8.82,-0.01,0.14,-0.59
2030,-3.45,0.19,8.82,-0.00,0.12,-0.53
2036,0.42,-0.88,10.23,-0.00,0.12,-0.53
2041,0.42,-0.88,10.23,0.02,0.12,-0.58
2046,0.42,-0.88,10.23,0.03,0.16,-0.54
2051,0.42,-0.88,10.23,0.04,0.19,-0.48
2056,0.42,-0.88,10.23,0.03,0.20,-0.46
2061,0.42,-0.88,10.23,0.02,0.17,-0.45
2065,0.42,-0.88,10.23,-0.00,0.12,-0.44
2071,-0.84,1.30,11.00,-0.00,0.12,-0.44
2076,-0.84,1.30,11.00,-0.02,0.08,-0.49
2081,-0.84,1.30,11.00,-0.01,0.09,-0.48
2086,-0.84,1.30,11.00,0.02,0.09,-0.43
2091,-0.84,1.30,11.00,0.04,0.08,-0.42
2096,-0.84,1.30,11.00,0.03,0.08,-0.42
2101,-0.84,1.30,11.00,0.03,0.09,-0.41
2106,-0.84,1.30,11.00,0.01,0.11,-0.42
2111,-0.84,1.30,11.00,-0.01,0.12,-0.46
2116,-0.84,1.30,11.00,0.00,0.16,-0.49
2121,-0.84,1.30,11.00,-0.01,0.21,-0.49
2126,-0.84,1.30,11.00,0.00,0.24,-0.46
2131,-0.84,1.30,11.00,0.00,0.22,-0.44
2135,-0.84,1.30,11.00,0.01,0.19,-0.44
2141,-3.26,-1.04,7.16,0.01,0.19,-0.44
2146,-3.26,-1.04,7.16,0.02,0.08,-0.40
2151,-3.26,-1.04,7.16,0.03,0.00,-0.33
2156,-3.26,-1.04,7.16,0.05,-0.05,-0.30
2161,-3.26,-1.04,7.16,0.04,-0.09,-0.31
2165,-3.26,-1.04,7.16,0.06,-0.07,-0.33
2170,-3.26,-1.04,7.16,0.09,-0.02,-0.35
2175,0.73,-2.87,12.76,0.09,-0.02,-0.35
2181,0.73,-2.87,12.76,0.10,0.06,-0.32
2186,0.73,-2.87,12.76,0.12,0.14,-0.30
2191,-5.71,0.77,7.39,0.12,0.14,-0.30
2196,-5.71,0.77,7.39,0.04,0.50,-0.35
2201,-5.71,0.77,7.39,0.07,0.51,-0.30
2205,-5.71,0.77,7.39,0.04,0.44,-0.26
2211,-3.56,1.30,8.01,0.04,0.44,-0.26
2216,-3.56,1.30,8.01,-0.01,0.17,-0.32
2220,-3.56,1.30,8.01,0.01,-0.01,-0.32
2226,0.23,-3.52,10.96,0.01,-0.01,-0.32
2231,0.23,-3.52,10.96,0.04,-0.15,-0.38
2236,0.23,-3.52,10.96,0.06,-0.14,-0.37
2240,0.23,-3.52,10.96,0.09,-0.10,-0.31
2246,0.11,-1.99,10.19,0.09,-0.10,-0.31
2251,0.11,-1.99,10.19,0.08,0.07,-0.29
2255,0.11,-1.99,10.19,0.05,0.12,-0.36
2261,1.80,0.61,9.88,0.05,0.12,-0.36
2266,1.80,0.61,9.88,-0.01,0.21,-0.59
2271,1.80,0.61,9.88,-0.02,0.26,-0.65
2276,1.80,0.61,9.88,-0.02,0.30,-0.65
2281,-0.50,-1.57,8.74,-0.02,0.30,-0.65
2286,-0.50,-1.57,8.74,0.03,0.30,-0.59
2290,-0.50,-1.57,8.74,0.02,0.25,-0.58
2296,0.96,0.19,10.50,0.02,0.25,-0.58
2301,0.96,0.19,10.50,0.00,0.09,-0.69
2306,0.96,0.19,10.50,0.00,0.04,-0.74
2311,0.96,0.19,10.50,0.00,0.02,-0.76
2316,1.49,-0.46,10.15,0.00,0.02,-0.76
2321,1.49,-0.46,10.15,0.00,0.11,-0.72
2325,1.49,-0.46,10.15,-0.01,0.18,-0.73
2331,0.80,1.11,10.95,-0.01,0.18,-0.73
2336,0.80,1.11,10.95,-0.02,0.25,-0.76
2341,0.80,1.11,10.95,0.00,0.24,-0.76
2346,0.80,1.11,10.95,-0.02,0.23,-0.78
2351,0.34,0.88,9.92,-0.02,0.23,-0.78
2356,0.34,0.88,9.92,-0.01,0.22,-0.79
2360,0.34,0.88,9.92,-0.02,0.23,-0.77
2366,-2.53,-0.42,6.75,-0.02,0.23,-0.77
2371,-2.53,-0.42,6.75,0.02,0.18,-0.66
2375,-2.53,-0.42,6.75,0.04,0.14,-0.60
2381,-2.53,-0.42,6.75,0.02,0.11,-0.54
2386,-2.53,-0.42,6.75,-0.01,0.02,-0.49
2391,-2.53,-0.42,6.75,-0.02,-0.13,-0.44
2395,-2.53,-0.42,6.75,0.02,-0.37,-0.43
2401,10.23,-1.23,25.51,0.02,-0.37,-0.43
2406,10.23,-1.23,25.51,0.20,-0.49,-0.55
2410,10.23,-1.23,25.51,0.26,0.19,-0.69
2416,10.23,-1.23,25.51,0.18,0.97,-0.81
2421,10.23,-1.23,25.51,0.27,1.27,-0.89
2426,10.23,-1.23,25.51,0.28,1.38,-0.85
2431,10.23,-1.23,25.51,0.16,1.38,-0.68
2436,-9.42,3.26,-3.95,0.16,1.38,-0.68
2441,-9.42,3.26,-3.95,-0.06,1.03,-0.38
2445,-9.42,3.26,-3.95,-0.12,0.66,-0.41
2451,-4.06,0.19,5.71,-0.12,0.66,-0.41
2456,-4.06,0.19,5.71,0.01,-0.14,-0.58
2461,-4.06,0.19,5.71,0.10,-0.46,-0.41
2465,-4.06,0.19,5.71,0.20,-0.63,-0.13
2471,1.07,-9.00,14.56,0.20,-0.63,-0.13
2476,1.07,-9.00,14.56,0.37,-0.63,0.31
2480,1.07,-9.00,14.56,0.37,-0.54,0.39
2486,-1.53,-3.33,12.03,0.37,-0.54,0.39
2491,-1.53,-3.33,12.03,0.37,-0.27,0.28
2496,-1.53,-3.33,12.03,0.30,-0.16,0.21
2501,-1.53,-3.33,12.03,0.30,0.04,0.13
2506,-0.80,-1.72,12.87,0.30,0.04,0.13
2511,-0.80,-1.72,12.87,0.18,0.51,-0.01
2515,-0.80,-1.72,12.87,0.20,0.56,-0.04
2521,-3.71,-3.22,8.39,0.20,0.56,-0.04
2526,-3.71,-3.22,8.39,0.19,0.62,-0.04
2531,-3.71,-3.22,8.39,0.22,0.56,0.04
2536,-3.71,-3.22,8.39,0.27,0.51,0.10
2541,-3.56,-3.07,3.22,0.27,0.51,0.10
2546,-3.56,-3.07,3.22,0.30,0.31,0.28
2550,-3.56,-3.07,3.22,0.31,0.16,0.37
2556,-3.45,-2.34,5.14,0.31,0.16,0.37
2561,-3.45,-2.34,5.14,0.27,-0.14,0.39
2565,-3.45,-2.34,5.14,0.28,-0.25,0.42
2571,-3.45,-2.34,5.14,0.31,-0.29,0.42
2576,2.11,-3.87,12.18,0.31,-0.29,0.42
2581,2.11,-3.87,12.18,0.31,-0.34,0.46
2585,2.11,-3.87,12.18,0.33,-0.28,0.43
2591,4.29,-3.03,16.29,0.33,-0.28,0.43
2596,4.29,-3.03,16.29,0.29,-0.12,0.29
2600,4.29,-3.03,16.29,0.31,0.12,0.16
2606,4.29,-3.03,16.29,0.26,0.40,0.04
2611,2.38,-1.11,13.45,0.26,0.40,0.04
2616,2.38,-1.11,13.45,0.20,0.69,-0.07
2620,2.38,-1.11,13.45,0.19,0.79,-0.11
2626,-3.45,-0.04,5.06,0.19,0.79,-0.11
2631,-3.45,-0.04,5.06,0.16,0.94,-0.11
2635,-3.45,-0.04,5.06,0.14,0.97,-0.07
2641,-3.45,-0.04,5.06,0.14,0.96,-0.02
2645,-3.45,-0.04,5.06,0.17,0.91,0.05
2650,-3.45,-0.04,5.06,0.10,0.81,0.14
2655,-3.45,-0.04,5.06,0.17,0.50,0.29
2660,2.91,-0.73,13.95,0.17,0.50,0.29
2667,2.91,-0.73,13.95,0.16,-0.04,0.49
2670,2.91,-0.73,13.95,0.07,-1.39,0.54
2676,2.91,-0.73,13.95,0.06,-1.75,0.38
2680,2.91,-0.73,13.95,0.08,-1.79,0.13
2686,2.91,-0.73,13.95,0.45,-1.17,-0.14
2691,2.91,-0.73,13.95,0.45,0.58,-0.09
2696,-8.31,1.00,9.92,0.45,0.58,-0.09
2701,-8.31,1.00,9.92,0.12,1.84,-0.31
2705,-8.31,1.00,9.92,0.00,1.74,-0.48
2711,-6.13,10.69,3.33,0.00,1.74,-0.48
2716,-6.13,10.69,3.33,-0.27,0.88,-0.73
2721,-6.13,10.69,3.33,-0.32,0.43,-0.86
2726,-6.13,10.69,3.33,-0.27,-0.01,-0.90
2731,-1.30,-3.83,5.13,-0.27,-0.01,-0.90
2736,-1.30,-3.83,5.13,-0.13,-0.48,-0.65
2740,-1.30,-3.83,5.13,-0.05,-0.52,-0.44
2746,0.04,0.15,12.79,-0.05,-0.52,-0.44
2751,0.04,0.15,12.79,0.00,-0.39,-0.14
2755,0.04,0.15,12.79,-0.07,-0.28,-0.16
2761,0.04,0.15,12.79,-0.13,-0.24,-0.27
2766,2.45,3.60,14.78,-0.13,-0.24,-0.27
2771,2.45,3.60,14.78,-0.21,-0.30,-0.62
2775,2.45,3.60,14.78,-0.24,-0.34,-0.79
2781,7.36,-1.34,14.05,-0.24,-0.34,-0.79
2786,7.36,-1.34,14.05,-0.23,-0.27,-0.99
2790,7.36,-1.34,14.05,-0.16,0.12,-1.00
2796,7.36,-1.34,14.05,-0.27,0.67,-1.06
2801,-3.26,-0.15,6.02,-0.27,0.67,-1.06
2806,-3.26,-0.15,6.02,-0.24,1.01,-1.17
2810,-3.26,-0.15,6.02,-0.23,1.06,-1.15
2816,-9.00,3.29,-1.99,-0.23,1.06,-1.15
2820,-9.00,3.29,-1.99,-0.23,0.95,-0.98
2825,-9.00,3.29,-1.99,-0.20,0.75,-0.89
2831,-9.00,3.29,-1.99,-0.21,0.38,-0.77
2836,2.14,-1.27,9.46,-0.21,0.38,-0.77
2841,2.14,-1.27,9.46,-0.13,-0.57,-0.48
2846,2.14,-1.27,9.46,-0.14,-0.92,-0.42
2851,2.14,-1.27,9.46,-0.09,-1.10,-0.43
2856,2.14,-1.27,9.46,-0.04,-1.02,-0.49
2860,2.14,-1.27,9.46,0.17,-0.60,-0.60
2865,2.14,-1.27,9.46,0.17,0.34,-0.63
2871,0.15,0.50,11.95,0.17,0.34,-0.63
2876,0.15,0.50,11.95,0.07,1.05,-0.75
2881,0.15,0.50,11.95,-0.14,1.03,-0.81
2886,1.42,4.71,-0.50,-0.14,1.03,-0.81
2891,1.42,4.71,-0.50,-0.35,0.60,-1.01
2895,1.42,4.71,-0.50,-0.38,0.42,-1.14
2901,-6.70,-3.75,6.97,-0.38,0.42,-1.14
2906,-6.70,-3.75,6.97,-0.23,0.27,-1.03
2910,-6.70,-3.75,6.97,-0.12,0.26,-0.83
2916,-6.70,-3.75,6.97,-0.02,0.26,-0.63
2921,-2.99,-2.11,13.79,-0.02,0.26,-0.63
2926,-2.99,-2.11,13.79,0.10,0.09,-0.43
2930,-2.99,-2.11,13.79,0.11,-0.07,-0.41
2936,4.02,-0.19,15.17,0.11,-0.07,-0.41
2940,4.02,-0.19,15.17,0.11,-0.29,-0.45
2945,4.02,-0.19,15.17,0.08,-0.33,-0.46
2951,4.02,-0.19,15.17,0.00,-0.23,-0.52
2956,0.27,1.00,10.30,0.00,-0.23,-0.52
2961,0.27,1.00,10.30,-0.13,0.09,-0.67
2965,0.27,1.00,10.30,-0.15,0.21,-0.71
2971,0.27,1.00,10.30,-0.17,0.31,-0.80
2976,-0.30,1.00,9.08,-0.17,0.31,-0.80
2981,-0.30,1.00,9.08,-0.15,0.37,-0.88
2986,-0.30,1.00,9.08,-0.12,0.37,-0.89
2991,1.53,-1.27,15.97,-0.12,0.37,-0.89
2996,1.53,-1.27,15.97,-0.02,0.35,-0.91
3000,1.53,-1.27,15.97,-0.01,0.39,-0.93
3006,-3.56,0.42,13.29,-0.01,0.39,-0.93
3011,-3.56,0.42,13.29,-0.02,0.65,-0.96
3015,-3.56,0.42,13.29,-0.03,0.74,-0.93
3021,-3.56,0.42,13.29,-0.07,0.80,-0.91
3026,-12.18,2.91,2.26,-0.07,0.80,-0.91
3031,-12.18,2.91,2.26,-0.10,0.79,-0.80
3036,-12.18,2.91,2.26,-0.11,0.63,-0.71
3041,-6.55,3.41,2.72,-0.11,0.63,-0.71
3046,-6.55,3.41,2.72,-0.12,0.06,-0.62
3050,-6.55,3.41,2.72,-0.10,-0.32,-0.60
3056,-6.55,3.41,2.72,-0.09,-0.65,-0.58
3061,7.05,-0.84,8.78,-0.09,-0.65,-0.58
3066,7.05,-0.84,8.78,-0.05,-0.88,-0.56
3071,7.05,-0.84,8.78,-0.03,-0.80,-0.54
3076,3.87,-0.69,12.79,-0.03,-0.80,-0.54
3081,3.87,-0.69,12.79,-0.03,0.99,-0.50
3085,3.87,-0.69,12.79,0.05,1.11,-0.53
3091,3.87,-0.69,12.79,0.11,0.99,-0.58
3096,3.87,-0.69,12.79,0.13,0.84,-0.60
3101,3.87,-0.69,12.79,0.11,0.65,-0.59
3106,3.87,-0.69,12.79,0.07,0.40,-0.53
3111,3.87,-0.69,12.79,0.09,0.11,-0.48
3116,3.87,-0.69,12.79,0.09,-0.15,-0.48
3120,3.87,-0.69,12.79,0.07,-0.27,-0.52
3126,7.63,-2.18,5.55,0.07,-0.27,-0.52
3131,4.14,-3.41,3.91,0.07,-0.27,-0.52
3135,4.14,-3.41,3.91,-0.03,-0.12,-0.49
3141,4.14,-3.41,3.91,-0.02,0.03,-0.47
3146,-0.38,-3.91,8.46,-0.02,0.03,-0.47
3151,-0.38,-3.91,8.46,0.08,0.16,-0.48
3155,-0.38,-3.91,8.46,0.11,0.14,-0.50
3161,0.61,-2.11,9.12,0.11,0.14,-0.50
3166,0.61,-2.11,9.12,0.16,0.08,-0.49
3170,0.61,-2.11,9.12,0.19,0.15,-0.44
3176,0.61,-2.11,9.12,0.16,0.26,-0.38
3181,1.57,-4.41,5.02,0.16,0.26,-0.38
3186,1.57,-4.41,5.02,0.28,0.01,-0.04
3190,1.57,-4.41,5.02,0.31,-0.30,0.07
3196,11.80,-0.77,23.17,0.31,-0.30,0.07
3200,11.80,-0.77,23.17,0.18,-0.68,-0.14
3205,11.80,-0.77,23.17,0.21,-0.59,-0.33
3211,11.80,-0.77,23.17,0.35,-0.25,-0.49
3216,-1.04,-5.09,10.69,0.35,-0.25,-0.49
3221,-1.04,-5.09,10.69,0.33,0.60,-0.39
3225,-1.04,-5.09,10.69,0.31,0.75,-0.29
3231,-1.04,-5.09,10.69,0.23,0.78,-0.26
3236,-1.04,-5.09,10.69,0.13,0.67,-0.31
3240,-1.04,-5.09,10.69,0.06,0.41,-0.39
3246,-1.04,-5.09,10.69,0.14,0.07,-0.47
3251,-5.02,-0.92,8.16,0.14,0.07,-0.47
3255,-5.02,-0.92,8.16,0.20,-0.38,-0.38
3260,-5.02,-0.92,8.16,0.19,-0.52,-0.24
3266,7.97,-3.83,15.59,0.19,-0.52,-0.24
3271,7.97,-3.83,15.59,0.36,-0.63,-0.07
3275,7.97,-3.83,15.59,0.34,-0.53,-0.14
3281,7.97,-3.83,15.59,0.37,-0.40,-0.21
3286,7.97,-3.83,15.59,0.30,-0.21,-0.26
3290,7.97,-3.83,15.59,0.15,0.10,-0.37
3296,7.97,-3.83,15.59,0.04,0.40,-0.52
3301,-9.38,-2.45,4.83,0.04,0.40,-0.52
3305,-9.38,-2.45,4.83,0.20,0.71,-0.52
3310,-9.38,-2.45,4.83,0.24,0.74,-0.38
3316,-9.38,-2.45,4.83,0.11,0.61,-0.24
3320,-9.38,-2.45,4.83,0.05,0.35,-0.22
3325,-9.38,-2.45,4.83,0.06,0.03,-0.31
3331,-9.38,-2.45,4.83,0.12,-0.26,-0.39
3336,-0.84,-3.64,12.30,0.12,-0.26,-0.39
3341,-0.84,-3.64,12.30,0.28,-0.49,-0.14
3346,-0.84,-3.64,12.30,0.33,-0.40,0.04
3351,-0.84,-3.64,12.30,0.34,-0.23,0.17
3355,-0.84,-3.64,12.30,0.34,-0.03,0.21
3360,-0.84,-3.64,12.30,0.31,0.13,0.17
3366,-0.84,-3.64,12.30,0.24,0.18,0.08
3371,-0.84,-3.64,12.30,0.17,0.14,-0.01
3375,-0.84,-3.64,12.30,0.14,0.05,-0.06
3380,-0.84,-3.64,12.30,0.13,-0.04,-0.08
3385,-1.00,-2.68,5.67,0.13,-0.04,-0.08
3391,0.23,-1.84,7.20,0.13,-0.04,-0.08
3395,0.23,-1.84,7.20,0.15,-0.14,0.07
3400,0.23,-1.84,7.20,0.14,-0.12,0.04
3406,4.14,-1.53,11.45,0.14,-0.12,0.04
3410,4.14,-1.53,11.45,0.18,-0.08,-0.08
3415,4.14,-1.53,11.45,0.19,-0.03,-0.11
3421,7.82,-1.88,11.91,0.19,-0.03,-0.11
3425,7.82,-1.88,11.91,0.21,0.06,-0.09
3430,7.82,-1.88,11.91,0.21,0.31,-0.15
3436,7.82,-1.88,11.91,0.17,0.60,-0.22
3440,7.82,-1.88,11.91,0.19,0.76,-0.21
3445,7.82,-1.88,11.91,0.21,0.86,-0.13
3451,7.82,-1.88,11.91,0.15,0.90,-0.06
3456,-3.87,-0.54,8.74,0.15,0.90,-0.06
3460,3.10,0.04,10.88,0.15,0.90,-0.06
3465,3.10,0.04,10.88,0.19,0.05,0.02
3471,3.10,0.04,10.88,0.21,-0.38,-0.07
3475,3.10,0.04,10.88,0.17,-0.70,-0.17
3480,3.10,0.04,10.88,0.12,-0.80,-0.27
3486,3.10,0.04,10.88,0.11,-0.71,-0.36
3491,3.10,0.04,10.88,0.08,-0.47,-0.38
3495,3.10,0.04,10.88,0.08,-0.14,-0.35
3501,3.10,0.04,10.88,0.04,0.26,-0.33
3505,3.10,0.04,10.88,0.05,0.48,-0.33
3511,-2.64,4.33,9.46,0.05,0.48,-0.33
3515,-2.64,4.33,9.46,-0.01,0.59,-0.50
3521,-2.64,4.33,9.46,-0.04,0.46,-0.58
3526,3.64,-0.80,7.20,-0.04,0.46,-0.58
3530,3.64,-0.80,7.20,0.04,0.09,-0.60
3535,3.64,-0.80,7.20,0.08,0.04,-0.55
3541,3.64,-0.80,7.20,0.12,0.02,-0.45
3545,3.64,-0.80,7.20,0.15,0.04,-0.32
3550,3.64,-0.80,7.20,0.16,0.06,-0.28
3555,3.64,-0.80,7.20,0.11,0.01,-0.31
3561,2.64,3.29,11.30,0.11,0.01,-0.31
3565,2.64,3.29,11.30,0.01,-0.10,-0.54
3570,2.64,3.29,11.30,-0.05,-0.13,-0.68
3576,2.64,3.29,11.30,-0.04,-0.14,-0.73
3580,2.64,3.29,11.30,-0.03,-0.04,-0.76
3585,2.64,3.29,11.30,-0.05,0.15,-0.74
3591,2.64,3.29,11.30,-0.01,0.20,-0.63
3595,2.64,3.29,11.30,0.08,0.12,-0.51
3600,2.64,3.29,11.30,0.07,0.09,-0.58
3605,2.64,3.29,11.30,0.03,0.13,-0.76
3611,2.64,3.29,11.30,0.03,0.18,-0.86
3615,2.64,3.29,11.30,0.04,0.21,-0.82
3620,2.64,3.29,11.30,0.04,0.18,-0.75
3625,2.64,3.29,11.30,0.03,0.10,-0.68
3631,2.64,3.29,11.30,0.04,-0.02,-0.65
3635,2.64,3.29,11.30,0.05,-0.10,-0.66
3640,2.64,3.29,11.30,0.04,-0.08,-0.68
3645,0.46,-2.11,12.83,0.04,-0.08,-0.68
3651,-2.22,-1.72,14.17,0.04,-0.08,-0.68
3655,-2.22,-1.72,14.17,0.11,0.28,-0.75
3661,-2.22,-1.72,14.17,0.15,0.42,-0.73
3665,-2.22,-1.72,14.17,0.22,0.45,-0.63
3670,-2.22,-1.72,14.17,0.27,0.42,-0.53
3675,-2.22,-1.72,14.17,0.22,0.36,-0.50
3681,1.72,1.15,7.85,0.22,0.36,-0.50
3685,1.72,1.15,7.85,0.17,0.11,-0.55
3691,1.72,1.15,7.85,0.18,0.03,-0.59
3696,1.72,1.15,7.85,0.20,-0.00,-0.53
3700,1.72,1.15,7.85,0.25,-0.01,-0.41
3705,1.72,1.15,7.85,0.29,0.04,-0.32
3710,1.72,1.15,7.85,0.27,0.13,-0.31
3716,-3.18,-0.19,9.38,0.27,0.13,-0.31
3720,-3.18,-0.19,9.38,0.27,0.27,-0.31
3725,-3.18,-0.19,9.38,0.29,0.30,-0.27
3731,-3.18,-0.19,9.38,0.27,0.26,-0.21
3735,-3.18,-0.19,9.38,0.33,0.12,-0.13
3741,-3.18,-0.19,9.38,0.36,-0.01,-0.07
3745,-3.18,-0.19,9.38,0.36,-0.13,-0.03
3751,-3.18,-0.19,9.38,0.29,-0.17,-0.00
3755,-3.18,-0.19,9.38,0.31,-0.14,-0.01
3760,-3.18,-0.19,9.38,0.29,-0.11,-0.03
3765,-3.18,-0.19,9.38,0.29,-0.10,-0.01
3771,1.00,-2.99,9.93,0.29,-0.10,-0.01
3775,1.00,-2.99,9.93,0.32,-0.04,0.01
3781,1.00,-2.99,9.93,0.32,0.00,-0.00
3785,1.00,-2.99,9.93,0.31,0.06,-0.02
3790,1.00,-2.99,9.93,0.33,0.09,-0.03
3795,1.00,-2.99,9.93,0.36,0.20,-0.04
3801,1.00,-2.99,9.93,0.30,0.28,-0.01
3806,1.00,-2.99,9.93,0.32,0.21,0.08
3810,-1.27,-1.34,8.96,0.32,0.21,0.08
3815,-1.27,-1.34,8.96,0.29,-0.05,0.11
3821,2.38,-1.61,12.14,0.29,-0.05,0.11
3826,2.38,-1.61,12.14,0.32,-0.26,0.03
3830,2.38,-1.61,12.14,0.34,-0.28,0.03
3836,2.38,-1.61,12.14,0.36,-0.20,0.02
3841,2.38,-1.61,12.14,0.36,-0.08,0.03
3845,-3.45,0.38,9.65,0.36,-0.08,0.03
3850,-3.45,0.38,9.65,0.36,0.22,0.01
3856,-3.45,0.38,9.65,0.32,0.32,-0.01
3860,-3.45,0.38,9.65,0.27,0.34,-0.04
3865,-3.45,0.38,9.65,0.25,0.32,-0.09
3871,-3.45,0.38,9.65,0.19,0.23,-0.12
3876,-3.45,0.38,9.65,0.21,0.07,-0.12
3880,-0.65,-1.84,9.39,0.21,0.07,-0.12
3885,-0.65,-1.84,9.39,0.20,-0.17,-0.08
3891,-0.65,-1.84,9.39,0.21,-0.22,-0.07
3896,-0.65,-1.84,9.39,0.23,-0.21,-0.10
3900,-1.11,-2.03,11.07,0.23,-0.21,-0.10
3906,-1.11,-2.03,11.07,0.25,-0.13,-0.10
3911,-1.11,-2.03,11.07,0.27,-0.12,-0.07
3915,-1.11,-2.03,11.07,0.30,-0.07,-0.08
3921,-1.11,-2.03,11.07,0.28,0.05,-0.11
3926,-1.11,-2.03,11.07,0.25,0.16,-0.09
3931,-3.98,0.08,6.13,0.25,0.16,-0.09
3935,-0.61,-0.73,7.13,0.25,0.16,-0.09
3941,-0.61,-0.73,7.13,0.22,0.20,0.01
3946,0.30,-1.91,8.85,0.22,0.20,0.01
3950,1.42,-3.07,9.58,0.22,0.20,0.01
3956,1.42,-3.07,9.58,0.28,-0.15,0.02
3961,1.42,-3.07,9.58,0.28,-0.20,0.05
3965,1.23,-1.65,10.31,0.28,-0.20,0.05
3971,1.23,-1.65,10.31,0.24,-0.18,0.04
3976,1.23,-1.65,10.31,0.22,-0.15,-0.00
3980,1.04,0.00,9.77,0.22,-0.15,-0.00
3985,0.15,-0.57,10.07,0.22,-0.15,-0.00
3991,0.15,-0.57,10.07,0.18,0.05,-0.09
3996,0.15,-0.57,10.07,0.18,0.14,-0.08
4000,-3.98,-0.61,6.47,0.18,0.14,-0.08
4005,-0.88,-1.61,8.23,0.18,0.14,-0.08
4011,-0.88,-1.61,8.23,0.23,0.26,0.00
4016,-0.88,-1.61,8.23,0.27,0.15,0.07
4020,0.65,-0.54,9.89,0.27,0.15,0.07
4025,1.23,0.30,10.50,0.27,0.15,0.07
4031,1.23,0.30,10.50,0.24,-0.12,0.09
4036,1.23,0.30,10.50,0.24,-0.13,0.11
4041,1.23,0.30,10.50,0.25,-0.11,0.14
4046,1.23,0.30,10.50,0.26,-0.07,0.20
4051,1.99,0.84,9.58,0.26,-0.07,0.20
4055,-0.80,0.30,9.27,0.26,-0.07,0.20
4060,-1.27,0.65,9.50,0.26,-0.07,0.20
4066,-1.27,0.65,9.50,0.19,0.08,0.20
4070,-5.98,0.34,8.66,0.19,0.08,0.20
4076,-2.68,-0.73,10.03,0.19,0.08,0.20
4080,-2.68,-0.73,10.03,0.19,0.22,0.22
4085,-2.68,-0.73,10.03,0.21,0.15,0.25
4090,-2.68,-0.73,10.03,0.18,0.08,0.25
4096,-2.68,-0.73,10.03,0.19,-0.02,0.25
4100,-1.27,-1.49,8.24,0.19,-0.02,0.25
4105,-1.57,-2.26,7.09,0.19,-0.02,0.25
4111,-1.57,-2.26,7.09,0.17,-0.07,0.25
4116,-1.57,-2.26,7.09,0.18,-0.05,0.26
4120,-1.19,-0.92,7.82,0.18,-0.05,0.26
4125,-0.84,-1.46,9.04,0.18,-0.05,0.26
4131,-0.84,-1.46,9.04,0.20,-0.10,0.25
4136,-0.84,-1.46,9.04,0.19,-0.10,0.25
4140,-3.71,0.65,8.62,0.19,-0.10,0.25
4145,-1.46,-1.27,10.69,0.19,-0.10,0.25
4151,-1.46,-1.27,10.69,0.16,0.05,0.20
4156,-1.46,-1.27,10.69,0.17,0.04,0.20
4161,-1.34,-1.23,7.23,0.17,0.04,0.20
4165,-0.84,0.08,8.39,0.17,0.04,0.20
4170,-0.96,0.42,8.32,0.17,0.04,0.20
4175,-0.96,0.42,8.32,0.14,-0.11,0.21
4181,-0.96,0.42,8.32,0.12,-0.12,0.18
4186,-0.96,0.42,8.32,0.11,-0.14,0.15
4190,-1.46,-1.23,10.39,0.11,-0.14,0.15
4195,-2.30,-1.19,10.27,0.11,-0.14,0.15
4201,-2.30,-1.19,10.27,0.12,-0.07,0.14
4205,-2.87,-0.23,9.50,0.12,-0.07,0.14
4210,-4.86,0.61,6.63,0.12,-0.07,0.14
4216,-4.86,0.61,6.63,0.12,0.06,0.13
4221,-4.86,0.61,6.63,0.10,0.08,0.11
4225,-0.88,-0.88,9.27,0.10,0.08,0.11
4230,-2.30,-1.46,10.30,0.10,0.08,0.11
4236,-2.30,-1.46,10.30,0.08,-0.20,0.08
4240,-1.04,-0.34,12.49,0.08,-0.20,0.08
4245,-1.72,-0.34,12.76,0.08,-0.20,0.08
4251,-1.72,-0.34,12.76,0.07,-0.19,0.07
4256,-1.72,-0.34,12.76,0.08,-0.11,0.04
4260,-2.03,-1.15,9.58,0.08,-0.11,0.04
4265,-2.95,-1.65,9.43,0.08,-0.11,0.04
4271,-3.41,-1.38,8.62,0.08,-0.11,0.04
4275,-2.87,-1.19,8.70,0.08,-0.11,0.04
4280,-4.86,-0.34,8.12,0.08,-0.11,0.04
4286,-4.86,-0.34,8.12,0.04,0.11,0.00
4291,-4.86,-0.34,8.12,0.06,0.04,-0.02
4295,-1.61,-0.84,8.77,0.06,0.04,-0.02
4300,-0.92,-0.84,9.50,0.06,0.04,-0.02
4305,-0.92,-0.84,9.50,0.09,-0.10,-0.01
4310,-0.92,-0.84,9.50,0.09,-0.10,0.00
4316,-0.92,-0.84,9.50,0.09,-0.10,0.00
4321,-1.11,-1.65,7.89,0.09,-0.10,0.00
4325,0.57,-1.00,9.00,0.09,-0.10,0.00
4330,-0.77,-0.88,8.27,0.09,-0.10,0.00
4336,-0.77,-0.88,8.27,0.09,-0.21,0.01
4341,-0.77,-0.88,8.27,0.09,-0.15,-0.00
4345,-1.99,1.07,9.23,0.09,-0.15,-0.00
4350,-3.87,1.46,4.37,0.09,-0.15,-0.00
4356,-5.70,2.11,1.61,0.09,-0.15,-0.00
4360,-2.72,1.46,1.30,0.09,-0.15,-0.00
4365,0.19,1.11,2.68,0.09,-0.15,-0.00
4371,0.19,1.11,2.68,-0.05,-0.06,-0.05
4376,0.19,1.11,2.68,-0.06,-0.32,-0.04
4380,7.66,-1.88,15.21,-0.06,-0.32,-0.04
4385,6.59,-1.99,16.39,-0.06,-0.32,-0.04
4391,6.59,-1.99,16.39,-0.08,-0.87,-0.15
4396,5.44,-2.18,17.62,-0.08,-0.87,-0.15
4400,5.44,-2.18,17.62,-0.01,0.44,-0.15
4405,0.30,-1.88,13.87,-0.01,0.44,-0.15
4411,0.23,-0.08,9.84,-0.01,0.44,-0.15
4415,-0.38,0.08,8.04,-0.01,0.44,-0.15
4420,0.27,0.50,7.63,-0.01,0.44,-0.15
4426,0.27,0.50,7.63,0.02,0.20,-0.06
4430,1.95,-0.38,9.04,0.02,0.20,-0.06
4435,1.15,-1.65,9.77,0.02,0.20,-0.06
4441,1.57,-2.26,10.61,0.02,0.20,-0.06
4445,0.27,-2.68,10.65,0.02,0.20,-0.06
4450,0.15,-3.07,10.11,0.02,0.20,-0.06
4456,0.15,-3.07,10.11,0.04,-0.05,-0.11
4461,0.15,-3.07,10.11,0.07,-0.04,-0.11
4465,4.29,-3.26,9.20,0.07,-0.04,-0.11
4470,2.64,-2.61,8.39,0.07,-0.04,-0.11
4476,1.11,-2.38,8.62,0.07,-0.04,-0.11
4480,-0.84,-2.61,8.96,0.07,-0.04,-0.11
4485,-3.75,-1.91,9.92,0.07,-0.04,-0.11
4490,-6.79,-0.65,5.40,0.07,-0.04,-0.11
4496,-6.79,-0.65,5.40,0.12,0.18,-0.16
4500,-2.07,-0.50,7.55,0.12,0.18,-0.16
4505,-1.15,0.19,6.55,0.12,0.18,-0.16
4511,-0.27,-0.11,6.13,0.12,0.18,-0.16
4515,2.38,-0.11,6.62,0.12,0.18,-0.16
4520,2.45,0.30,7.05,0.12,0.18,-0.16
4525,2.22,0.15,8.24,0.12,0.18,-0.16
4531,1.72,0.00,9.20,0.12,0.18,-0.16
4535,0.27,0.42,13.33,0.12,0.18,-0.16
4540,0.42,1.00,13.75,0.12,0.18,-0.16
4545,0.00,1.27,13.95,0.12,0.18,-0.16
4551,0.00,1.27,13.95,0.10,0.17,0.10
4555,-1.57,0.57,12.91,0.10,0.17,0.10
4560,-1.07,0.57,9.61,0.10,0.17,0.10
4566,-1.07,0.57,9.61,0.11,0.08,0.16
4570,3.26,-0.11,10.96,0.11,0.08,0.16
4575,1.19,0.30,10.34,0.11,0.08,0.16
4581,-0.92,-0.50,10.73,0.11,0.08,0.16
4585,-2.14,0.46,12.07,0.11,0.08,0.16
4590,-3.91,0.30,11.88,0.11,0.08,0.16
4595,-4.79,-0.15,11.22,0.11,0.08,0.16
4601,-4.79,-0.15,11.22,0.09,0.30,0.12
4605,0.77,-0.65,7.20,0.09,0.30,0.12
4610,4.64,-1.15,5.71,0.09,0.30,0.12
4616,5.09,-1.49,4.94,0.09,0.30,0.12
4621,-2.76,0.80,4.94,0.09,0.30,0.12
4625,-2.76,0.80,4.94,0.03,-0.01,0.00
4630,-6.17,1.04,15.36,0.03,-0.01,0.00
4635,-9.00,1.46,14.17,0.03,-0.01,0.00
4640,-9.84,-0.27,18.70,0.03,-0.01,0.00
4645,-9.00,-1.00,16.59,0.03,-0.01,0.00
4651,-4.83,-2.53,16.93,0.03,-0.01,0.00
4656,-1.15,-1.49,10.61,0.03,-0.01,0.00
4660,-1.15,-1.49,10.61,0.07,0.11,-0.15
4665,-1.15,-1.49,10.61,0.05,0.00,-0.15
4670,0.96,3.18,4.18,0.05,0.00,-0.15
4675,1.84,2.91,5.60,0.05,0.00,-0.15
4681,-0.73,2.61,7.36,0.05,0.00,-0.15
4685,-4.98,2.22,10.46,0.05,0.00,-0.15
4690,-4.75,1.72,12.18,0.05,0.00,-0.15
4695,-7.47,0.84,11.04,0.05,0.00,-0.15
4701,-7.66,-0.08,10.46,0.05,0.00,-0.15
4705,-1.76,0.73,8.20,0.05,0.00,-0.15
4710,0.00,0.73,6.44,0.05,0.00,-0.15
4716,1.49,1.91,5.21,0.05,0.00,-0.15
4720,2.68,3.10,3.33,0.05,0.00,-0.15
4725,2.45,4.63,3.71,0.05,0.00,-0.15
4730,1.04,5.28,4.60,0.05,0.00,-0.15
4736,-0.69,3.60,6.13,0.05,0.00,-0.15
4741,4.25,1.11,10.11,0.05,0.00,-0.15
4745,4.25,1.11,10.11,-0.15,-0.29,-0.26
4750,1.68,-0.77,11.95,-0.15,-0.29,-0.26
4755,2.49,-0.42,11.60,-0.15,-0.29,-0.26
4760,2.87,0.19,9.92,-0.15,-0.29,-0.26
4765,0.54,0.61,8.92,-0.15,-0.29,-0.26
4771,-0.96,0.38,6.05,-0.15,-0.29,-0.26
4776,1.91,1.11,9.65,-0.15,-0.29,-0.26
4780,1.91,1.11,9.65,-0.11,0.06,-0.27
4785,1.91,1.11,9.65,-0.12,0.01,-0.30
4790,1.80,-0.30,13.98,-0.12,0.01,-0.30
4795,0.34,-1.42,13.71,-0.12,0.01,-0.30
4800,0.42,-0.27,13.21,-0.12,0.01,-0.30
4805,0.34,-1.15,12.22,-0.12,0.01,-0.30
4811,0.34,-1.15,12.22,-0.08,0.14,-0.32
4816,-1.53,-1.53,9.16,-0.08,0.14,-0.32
4820,-2.53,-0.65,8.20,-0.08,0.14,-0.32
4825,-2.57,-0.61,8.58,-0.08,0.14,-0.32
4830,-4.56,0.57,8.93,-0.08,0.14,-0.32
4835,-4.83,0.08,7.77,-0.08,0.14,-0.32
4841,-0.54,-1.53,10.00,-0.08,0.14,-0.32
4846,2.07,-1.19,8.96,-0.08,0.14,-0.32
4850,2.07,-1.19,8.96,-0.04,-0.20,-0.35
4855,2.22,-1.42,7.82,-0.04,-0.20,-0.35
4860,0.61,0.19,7.70,-0.04,-0.20,-0.35
4865,-0.19,-0.38,7.43,-0.04,-0.20,-0.35
4871,-1.19,-0.88,7.93,-0.04,-0.20,-0.35
4875,-1.19,-0.23,10.31,-0.04,-0.20,-0.35
4880,-1.19,-0.46,11.26,-0.04,-0.20,-0.35
4887,-0.88,-0.77,12.52,-0.04,-0.20,-0.35
4890,0.73,-0.38,13.17,-0.04,-0.20,-0.35
4895,0.65,0.15,13.37,-0.04,-0.20,-0.35
4900,-0.19,0.80,11.22,-0.04,-0.20,-0.35
4905,0.27,-0.27,9.92,-0.04,-0.20,-0.35
4911,1.95,0.42,8.50,-0.04,-0.20,-0.35
4916,2.07,-0.50,7.27,-0.04,-0.20,-0.35
4920,2.07,-0.50,7.27,0.06,-0.11,-0.19
4825,-2.57,-0.61,8.58,-0.08,0.14,-0.32
4830,-4.56,0.57,8.93,-0.08,0.14,-0.32
4835,-4.83,0.08,7.77,-0.08,0.14,-0.32
4841,-0.54,-1.53,10.00,-0.08,0.14,-0.32
4846,2.07,-1.19,8.96,-0.08,0.14,-0.32
4850,2.07,-1.19,8.96,-0.04,-0.20,-0.35
4855,2.22,-1.42,7.82,-0.04,-0.20,-0.35
4860,0.61,0.19,7.70,-0.04,-0.20,-0.35
4865,-0.19,-0.38,7.43,-0.04,-0.20,-0.35
4871,-1.19,-0.88,7.93,-0.04,-0.20,-0.35
4875,-1.19,-0.23,10.31,-0.04,-0.20,-0.35
4880,-1.19,-0.46,11.26,-0.04,-0.20,-0.35
4887,-0.88,-0.77,12.52,-0.04,-0.20,-0.35
4890,0.73,-0.38,13.17,-0.04,-0.20,-0.35
4895,0.65,0.15,13.37,-0.04,-0.20,-0.35
4900,-0.19,0.80,11.22,-0.04,-0.20,-0.35
