timestamp,accX,accY,accZ,gyroX,gyroY,gyroZ
Break
6,-1.76,1.07,8.01,-0.03,-0.05,-0.05
18,1.00,-0.34,8.78,-0.03,-0.05,-0.05
20,-2.57,-0.30,7.89,-0.03,-0.05,-0.05
21,1.57,-0.54,7.43,-0.03,-0.05,-0.05
25,1.57,-0.54,7.43,0.11,0.02,0.00
30,3.18,-1.07,7.43,0.11,0.02,0.00
36,3.18,-1.07,7.43,0.07,-0.15,0.01
41,3.18,-1.07,7.43,0.03,-0.34,-0.01
46,3.18,-1.07,7.43,0.02,-0.43,-0.03
51,2.14,-1.91,10.69,0.02,-0.43,-0.03
55,2.87,-2.26,11.19,0.02,-0.43,-0.03
61,2.87,-2.26,11.19,0.10,-0.26,0.08
66,2.87,-2.26,11.19,0.12,-0.16,0.08
71,0.42,-1.68,12.06,0.12,-0.16,0.08
75,0.65,-2.11,12.34,0.12,-0.16,0.08
81,0.65,-2.11,12.34,0.19,0.06,0.08
85,1.00,-0.54,11.99,0.19,0.06,0.08
90,0.46,-0.54,8.46,0.19,0.06,0.08
96,0.46,-0.54,8.46,0.13,0.00,0.06
101,0.46,-0.54,8.46,0.12,-0.05,0.07
105,-0.50,-0.84,6.63,0.12,-0.05,0.07
110,-1.30,-1.19,6.93,0.12,-0.05,0.07
116,-0.69,-1.23,7.47,0.12,-0.05,0.07
121,-0.69,-1.23,7.47,0.12,-0.04,0.11
125,-0.69,-1.23,7.47,0.12,-0.03,0.13
131,-0.69,-1.23,7.47,0.12,-0.03,0.16
136,-0.69,-1.23,7.47,0.14,-0.03,0.18
140,-2.14,0.27,9.31,0.14,-0.03,0.18
145,-2.38,-0.15,9.31,0.14,-0.03,0.18
150,-2.38,-0.15,9.31,0.12,-0.10,0.23
156,-2.38,-0.15,9.31,0.12,-0.15,0.25
161,-2.38,-0.15,9.31,0.11,-0.20,0.27
166,0.65,-0.42,9.43,0.11,-0.20,0.27
170,0.96,-0.38,11.22,0.11,-0.20,0.27
175,-0.27,-1.57,11.22,0.11,-0.20,0.27
181,-0.27,-1.57,11.22,0.12,-0.15,0.37
186,-0.27,-1.57,11.22,0.14,-0.04,0.37
190,-1.38,-0.84,11.60,0.14,-0.04,0.37
195,-1.53,-0.65,11.64,0.14,-0.04,0.37
201,-1.53,-0.65,11.64,0.17,0.23,0.44
205,-2.76,-0.77,9.54,0.17,0.23,0.44
210,-1.11,-1.11,8.96,0.17,0.23,0.44
216,-1.11,-1.11,8.96,0.15,0.21,0.41
221,-1.11,-1.11,8.96,0.13,0.13,0.40
225,-1.34,-0.54,7.43,0.13,0.13,0.40
230,-1.11,-0.57,7.55,0.13,0.13,0.40
236,-1.11,-0.57,7.55,0.08,-0.08,0.40
240,-1.76,-1.76,8.92,0.08,-0.08,0.40
245,-3.14,-0.92,8.35,0.08,-0.08,0.40
251,-3.14,-0.92,8.35,0.05,-0.06,0.30
256,-3.14,-0.92,8.35,0.07,-0.06,0.30
261,-3.14,-0.92,8.35,0.06,-0.07,0.28
266,-3.45,-0.80,7.70,0.06,-0.07,0.28
270,-2.18,-2.26,8.04,0.06,-0.07,0.28
275,-1.80,-1.46,8.50,0.06,-0.07,0.28
280,-1.80,-1.46,8.50,0.04,-0.08,0.18
286,-1.80,-1.46,8.50,0.04,-0.13,0.17
290,-2.38,-1.80,8.89,0.04,-0.13,0.17
295,-2.45,0.46,9.23,0.04,-0.13,0.17
301,-2.45,0.46,9.23,0.06,0.02,0.16
306,-2.45,0.46,9.23,0.07,0.12,0.16
310,-2.49,0.04,9.20,0.07,0.12,0.16
315,0.11,0.38,11.49,0.07,0.12,0.16
321,0.11,0.38,11.49,0.04,0.15,0.15
326,0.11,0.38,11.49,0.02,0.03,0.15
330,2.91,-0.42,13.17,0.02,0.03,0.15
335,2.30,-0.11,12.68,0.02,0.03,0.15
341,2.30,-0.11,12.68,0.00,-0.14,0.14
345,-1.23,0.46,10.91,0.00,-0.14,0.14
350,0.46,-0.15,9.80,0.00,-0.14,0.14
356,-0.11,0.19,10.04,0.00,-0.14,0.14
360,-1.27,0.30,10.11,0.00,-0.14,0.14
365,-1.15,1.38,10.31,0.00,-0.14,0.14
371,-1.15,1.38,10.31,-0.03,0.17,0.11
376,-1.15,1.38,10.31,-0.05,0.12,0.08
381,-1.15,1.38,10.31,-0.05,0.12,0.05
385,-1.91,1.07,4.45,-0.05,0.12,0.05
390,-1.91,1.42,4.37,-0.05,0.12,0.05
396,-1.91,1.42,4.37,-0.12,-0.06,-0.02
400,1.11,0.84,5.28,-0.12,-0.06,-0.02
405,1.49,1.04,7.28,-0.12,-0.06,-0.02
411,1.49,1.04,7.28,-0.19,-0.32,-0.05
415,1.23,1.04,10.95,-0.19,-0.32,-0.05
420,1.34,-0.42,11.04,-0.19,-0.32,-0.05
426,1.34,-0.42,11.04,-0.16,-0.32,-0.13
431,-0.04,-1.42,12.72,-0.16,-0.32,-0.13
435,0.46,-1.27,12.02,-0.16,-0.32,-0.13
440,0.61,-0.73,11.88,-0.16,-0.32,-0.13
445,0.61,-0.73,11.88,-0.06,0.09,-0.12
451,0.61,-0.73,11.88,-0.05,0.15,-0.15
457,2.72,-0.46,9.04,-0.05,0.15,-0.15
460,0.34,-0.80,7.01,-0.05,0.15,-0.15
465,-0.23,-0.80,6.75,-0.05,0.15,-0.15
470,-0.23,-0.80,6.75,-0.12,0.01,-0.19
476,-0.23,-0.80,6.75,-0.12,-0.00,-0.19
481,-0.23,-0.80,6.75,-0.13,0.01,-0.18
485,-1.84,0.50,8.62,-0.13,0.01,-0.18
490,-0.38,0.27,9.00,-0.13,0.01,-0.18
496,1.42,0.27,9.96,-0.13,0.01,-0.18
500,3.10,-0.19,11.19,-0.13,0.01,-0.18
506,4.64,0.30,11.30,-0.13,0.01,-0.18
511,4.52,0.04,10.80,-0.13,0.01,-0.18
515,0.92,0.61,9.46,-0.13,0.01,-0.18
520,-0.38,0.15,4.63,-0.13,0.01,-0.18
526,-0.38,0.15,4.63,-0.06,-0.07,0.01
531,-0.38,0.15,4.63,-0.08,0.01,0.05
535,1.27,-0.23,9.16,-0.08,0.01,0.05
540,1.53,-0.04,10.73,-0.08,0.01,0.05
546,3.64,-0.19,14.52,-0.08,0.01,0.05
550,6.02,-1.46,18.62,-0.08,0.01,0.05
555,3.87,-0.88,18.00,-0.08,0.01,0.05
562,3.87,-0.88,18.00,-0.08,-0.23,0.11
566,3.87,-0.88,18.00,-0.05,-0.05,0.13
570,-1.99,-1.95,10.39,-0.05,-0.05,0.13
575,-3.56,-1.91,8.58,-0.05,-0.05,0.13
581,-3.98,-2.14,7.97,-0.05,-0.05,0.13
585,-3.14,-0.92,7.47,-0.05,-0.05,0.13
590,-3.68,0.11,9.46,-0.05,-0.05,0.13
595,0.04,-0.50,10.57,-0.05,-0.05,0.13
601,0.04,-0.50,10.57,-0.13,0.07,0.04
605,0.65,-0.46,10.15,-0.13,0.07,0.04
610,-0.08,-0.46,9.58,-0.13,0.07,0.04
616,1.04,-1.38,9.80,-0.13,0.07,0.04
620,0.34,-0.23,8.01,-0.13,0.07,0.04
625,0.11,-0.46,7.73,-0.13,0.07,0.04
631,0.11,0.46,7.93,-0.13,0.07,0.04
635,0.54,-0.15,8.92,-0.13,0.07,0.04
640,2.22,0.54,8.89,-0.13,0.07,0.04
645,1.80,-0.34,10.31,-0.13,0.07,0.04
650,0.80,0.19,10.11,-0.13,0.07,0.04
656,0.80,0.19,10.11,-0.09,-0.10,0.23
661,0.61,-0.84,11.03,-0.09,-0.10,0.23
665,0.08,-1.19,11.07,-0.09,-0.10,0.23
670,-0.30,-1.30,10.45,-0.09,-0.10,0.23
675,-1.46,-0.77,9.69,-0.09,-0.10,0.23
680,-2.07,-1.46,9.00,-0.09,-0.10,0.23
686,-2.49,-1.91,8.31,-0.09,-0.10,0.23
690,-2.26,-1.57,7.97,-0.09,-0.10,0.23
695,-2.34,-1.65,7.73,-0.09,-0.10,0.23
701,-1.99,-1.15,7.97,-0.09,-0.10,0.23
705,-0.80,-0.69,8.50,-0.09,-0.10,0.23
710,0.57,-0.73,8.43,-0.09,-0.10,0.23
715,0.77,-0.96,8.96,-0.09,-0.10,0.23
721,0.77,-0.96,8.96,-0.12,-0.04,-0.08
725,1.11,-0.61,9.65,-0.12,-0.04,-0.08
730,1.49,-0.69,8.62,-0.12,-0.04,-0.08
736,-1.57,0.61,6.93,-0.12,-0.04,-0.08
741,1.07,-0.84,10.04,-0.12,-0.04,-0.08
745,1.07,-0.84,10.04,-0.11,0.12,-0.16
750,1.07,-0.84,10.04,-0.13,0.08,-0.20
756,2.03,-0.84,11.38,-0.13,0.08,-0.20
761,0.11,-1.00,11.88,-0.13,0.08,-0.20
765,0.11,-1.00,11.88,-0.11,0.18,-0.24
770,0.11,-1.00,11.88,-0.12,0.25,-0.27
775,0.00,-0.23,11.80,-0.12,0.25,-0.27
780,0.15,-0.08,11.49,-0.12,0.25,-0.27
786,-0.08,-0.23,10.65,-0.12,0.25,-0.27
790,3.26,-0.27,8.39,-0.12,0.25,-0.27
795,1.99,-0.15,7.20,-0.12,0.25,-0.27
800,-0.46,0.38,6.71,-0.12,0.25,-0.27
806,-2.26,1.11,6.24,-0.12,0.25,-0.27
811,-7.39,2.07,6.97,-0.12,0.25,-0.27
815,-7.39,2.07,6.97,-0.08,0.43,-0.42
820,-6.55,3.87,9.27,-0.08,0.43,-0.42
825,-3.22,3.33,9.73,-0.08,0.43,-0.42
830,-0.38,1.80,9.08,-0.08,0.43,-0.42
835,4.02,0.88,9.89,-0.08,0.43,-0.42
841,6.09,0.00,9.35,-0.08,0.43,-0.42
846,6.32,0.57,8.23,-0.08,0.43,-0.42
850,6.32,0.57,8.23,-0.28,-0.59,-0.26
855,2.26,2.07,9.27,-0.28,-0.59,-0.26
860,0.96,1.04,10.77,-0.28,-0.59,-0.26
865,-1.23,0.69,12.14,-0.28,-0.59,-0.26
870,-1.72,0.69,13.45,-0.28,-0.59,-0.26
876,-1.30,0.11,14.25,-0.28,-0.59,-0.26
881,-2.03,0.54,11.11,-0.28,-0.59,-0.26
885,-2.03,0.54,11.11,-0.13,0.46,-0.44
890,-2.03,0.54,11.11,-0.16,0.42,-0.51
895,2.95,-0.46,6.71,-0.16,0.42,-0.51
900,2.68,-1.57,6.71,-0.16,0.42,-0.51
905,2.57,-1.61,7.62,-0.16,0.42,-0.51
911,1.42,-1.72,7.97,-0.16,0.42,-0.51
916,2.80,0.15,12.68,-0.16,0.42,-0.51
920,2.80,0.15,12.68,-0.20,-0.25,-0.46
925,3.41,-1.11,14.52,-0.20,-0.25,-0.46
930,3.03,-1.07,13.53,-0.20,-0.25,-0.46
935,1.42,-0.57,11.84,-0.20,-0.25,-0.46
940,0.27,-0.61,10.27,-0.20,-0.25,-0.46
946,0.69,-1.11,9.27,-0.20,-0.25,-0.46
951,2.03,-1.68,8.28,-0.20,-0.25,-0.46
955,2.03,-1.68,8.28,-0.04,0.14,-0.35
960,0.46,-1.53,9.31,-0.04,0.14,-0.35
965,3.18,-1.23,9.20,-0.04,0.14,-0.35
970,3.64,-0.80,9.12,-0.04,0.14,-0.35
977,2.41,-1.27,8.46,-0.04,0.14,-0.35
980,1.61,-0.61,7.39,-0.04,0.14,-0.35
985,1.07,-1.11,8.35,-0.04,0.14,-0.35
992,1.68,-1.15,8.66,-0.04,0.14,-0.35
995,0.65,-1.38,9.54,-0.04,0.14,-0.35
1000,0.69,-2.18,9.65,-0.04,0.14,-0.35
1005,0.73,-2.30,9.89,-0.04,0.14,-0.35
1010,0.92,-2.38,10.34,-0.04,0.14,-0.35
1016,1.42,-1.68,10.00,-0.04,0.14,-0.35
1021,5.02,-1.84,9.50,-0.04,0.14,-0.35
1025,5.02,-1.84,9.50,0.01,-0.09,-0.15
1030,5.02,-1.84,9.50,0.02,-0.07,-0.14
1035,1.84,-1.46,9.50,0.02,-0.07,-0.14
1040,-1.00,-1.80,8.27,0.02,-0.07,-0.14
1046,-2.22,-1.99,10.38,0.02,-0.07,-0.14
1050,-4.14,-1.76,10.31,0.02,-0.07,-0.14
1055,-4.06,-1.23,9.31,0.02,-0.07,-0.14
1061,-3.07,-0.73,9.04,0.02,-0.07,-0.14
1065,-1.04,-1.07,6.02,0.02,-0.07,-0.14
1070,-0.46,-1.23,4.90,0.02,-0.07,-0.14
1075,2.57,-1.42,5.52,0.02,-0.07,-0.14
1081,3.95,-1.19,7.74,0.02,-0.07,-0.14
1086,6.97,-0.73,12.72,0.02,-0.07,-0.14
1090,6.97,-0.73,12.72,-0.04,-0.52,-0.15
1095,6.97,-0.73,12.72,-0.02,-0.38,-0.09
1100,-1.27,-2.45,10.88,-0.02,-0.38,-0.09
1107,-1.61,-3.33,10.57,-0.02,-0.38,-0.09
1110,-1.61,-3.33,10.57,0.13,0.23,-0.11
1115,0.04,-5.25,8.39,0.13,0.23,-0.11
1120,2.14,-5.29,8.84,0.13,0.23,-0.11
1125,1.53,-5.48,8.16,0.13,0.23,-0.11
1132,3.14,-4.56,9.96,0.13,0.23,-0.11
1135,2.18,-0.54,11.04,0.13,0.23,-0.11
1140,0.57,-0.15,11.46,0.13,0.23,-0.11
1146,-0.46,0.34,11.88,0.13,0.23,-0.11
1150,-0.46,0.34,11.88,0.21,0.14,0.06
1155,-3.48,0.11,8.54,0.21,0.14,0.06
1161,-1.57,-1.00,7.89,0.21,0.14,0.06
1165,-1.57,-1.00,7.89,0.22,0.16,0.12
1170,1.76,-2.38,7.28,0.22,0.16,0.12
1177,2.30,-3.10,7.43,0.22,0.16,0.12
1180,2.30,-3.10,7.43,0.16,-0.26,0.25
1185,1.46,-1.57,9.50,0.16,-0.26,0.25
1190,2.72,-1.80,9.50,0.16,-0.26,0.25
1197,3.79,-1.76,10.15,0.16,-0.26,0.25
1201,3.79,-1.76,10.15,0.18,-0.18,0.25
1207,0.57,-1.99,10.57,0.18,-0.18,0.25
1210,0.57,-1.99,10.57,0.24,0.08,0.29
1215,0.57,-1.99,10.57,0.26,0.22,0.28
1220,-3.98,-1.49,12.02,0.26,0.22,0.28
1225,-4.75,-1.11,10.54,0.26,0.22,0.28
1230,-3.14,-1.23,10.91,0.26,0.22,0.28
1236,-2.11,-1.04,10.45,0.26,0.22,0.28
1242,0.88,-1.95,9.04,0.26,0.22,0.28
1245,0.88,-1.95,9.04,0.17,-0.11,0.36
1250,0.88,-1.95,9.04,0.17,-0.24,0.38
1255,3.41,-1.57,6.97,0.17,-0.24,0.38
1261,3.07,-1.49,8.08,0.17,-0.24,0.38
1265,3.07,-1.49,8.08,0.20,-0.33,0.43
1271,3.07,-1.49,8.08,0.21,-0.24,0.43
1276,1.07,-0.69,12.60,0.21,-0.24,0.43
1280,1.07,-0.69,12.60,0.20,-0.02,0.42
1285,1.07,-0.69,12.60,0.19,0.06,0.38
1290,1.07,-0.69,12.60,0.17,0.11,0.33
1296,1.11,-1.53,9.12,0.17,0.11,0.33
1300,1.11,-1.53,9.12,0.14,0.07,0.25
1305,1.04,-1.42,9.20,0.14,0.07,0.25
1310,0.88,-0.54,8.78,0.14,0.07,0.25
1316,2.34,-0.96,9.69,0.14,0.07,0.25
1321,2.34,-0.96,9.69,0.08,-0.09,0.21
1325,1.27,-0.46,10.61,0.08,-0.09,0.21
1330,0.15,0.15,10.30,0.08,-0.09,0.21
1337,-2.14,0.57,10.35,0.08,-0.09,0.21
1342,-1.57,0.27,10.99,0.08,-0.09,0.21
1346,-0.42,1.57,10.07,0.08,-0.09,0.21
1350,-0.42,1.57,10.07,0.08,0.09,0.16
1355,-0.42,1.57,10.07,0.06,0.00,0.18
1360,1.80,-0.69,9.69,0.06,0.00,0.18
1366,1.95,-0.69,9.12,0.06,0.00,0.18
1370,1.95,-0.69,9.12,0.04,-0.14,0.17
1376,3.22,-1.53,9.92,0.04,-0.14,0.17
1382,2.30,-0.46,8.96,0.04,-0.14,0.17
1385,2.30,-0.46,8.96,0.08,-0.09,0.21
1391,2.30,-0.46,8.96,0.07,-0.02,0.21
1397,-1.19,0.54,8.92,0.07,-0.02,0.21
1400,-1.19,0.54,8.92,0.05,0.15,0.09
1405,-1.19,0.54,8.92,0.06,0.20,0.04
1410,-1.19,0.54,8.92,0.04,0.19,0.01
1415,0.92,-1.99,9.43,0.04,0.19,0.01
1422,1.61,-1.34,9.27,0.04,0.19,0.01
1425,1.61,-1.34,9.27,-0.02,-0.19,0.07
1430,3.68,-0.57,8.08,-0.02,-0.19,0.07
1437,3.37,-0.69,8.46,-0.02,-0.19,0.07
1440,3.37,-0.69,8.46,-0.02,-0.26,0.05
1445,3.07,-0.23,12.18,-0.02,-0.26,0.05
1451,2.14,-0.15,12.72,-0.02,-0.26,0.05
1455,2.14,-0.15,12.72,0.04,0.07,0.11
1461,-0.69,0.19,11.64,0.04,0.07,0.11
1466,-0.19,-0.11,10.38,0.04,0.07,0.11
1470,-0.19,-0.11,10.38,0.04,0.29,0.05
1475,-0.19,-0.11,10.38,0.03,0.23,0.03
1480,3.33,-0.54,8.23,0.03,0.23,0.03
1487,2.61,0.00,7.59,0.03,0.23,0.03
1490,2.61,0.00,7.59,-0.04,-0.01,0.01
1496,-0.15,0.54,7.82,-0.04,-0.01,0.01
1501,-1.76,0.08,9.08,-0.04,-0.01,0.01
1505,-1.76,0.08,9.08,-0.05,0.04,-0.10
1510,-1.76,0.08,9.08,-0.06,0.08,-0.10
1515,-0.08,0.15,9.80,-0.06,0.08,-0.10
1521,0.00,0.11,8.31,-0.06,0.08,-0.10
1525,0.00,0.11,8.31,-0.08,0.00,-0.15
1532,0.00,0.11,8.31,-0.09,-0.06,-0.17
1537,1.46,-0.77,7.47,-0.09,-0.06,-0.17
1540,1.46,-0.77,7.47,-0.09,-0.13,-0.16
1545,1.46,-0.77,7.47,-0.08,-0.13,-0.13
1551,1.46,-0.77,7.47,-0.07,-0.07,-0.14
1557,-0.80,0.84,11.30,-0.07,-0.07,-0.14
1560,-0.80,0.84,11.30,-0.05,0.10,-0.16
1565,0.69,0.00,10.34,-0.05,0.10,-0.16
1570,1.68,-0.30,9.73,-0.05,0.10,-0.16
1576,2.91,-0.54,9.04,-0.05,0.10,-0.16
1581,2.91,-0.54,9.04,-0.08,-0.02,-0.15
1585,1.38,-0.84,7.93,-0.08,-0.02,-0.15
1591,0.54,-0.69,8.96,-0.08,-0.02,-0.15
1595,0.54,-0.69,8.96,-0.09,0.00,-0.19
1601,-0.65,-0.08,10.80,-0.09,0.00,-0.19
1606,-1.49,0.34,9.58,-0.09,0.00,-0.19
1610,-1.49,0.34,9.58,-0.07,0.12,-0.17
1616,-1.49,0.34,9.58,-0.06,0.12,-0.16
1622,1.27,-0.08,8.77,-0.06,0.12,-0.16
1625,1.27,-0.08,8.77,-0.10,-0.03,-0.14
1630,1.27,-0.08,8.77,-0.11,-0.12,-0.14
1636,1.46,-0.30,7.97,-0.11,-0.12,-0.14
1642,0.77,-0.15,8.88,-0.11,-0.12,-0.14
1645,0.77,-0.15,8.88,-0.08,-0.10,-0.11
1651,0.77,-0.15,8.88,-0.06,-0.05,-0.09
1657,-0.23,-0.57,11.68,-0.06,-0.05,-0.09
1660,-0.23,-0.57,11.68,-0.05,0.04,-0.07
1665,-0.23,-0.57,11.68,-0.06,0.05,-0.07
1671,-0.23,-0.57,11.68,-0.06,0.04,-0.08
1676,1.15,-1.42,9.12,-0.06,0.04,-0.08
1680,1.15,-1.42,9.12,-0.07,-0.03,-0.10
1685,1.80,-1.42,9.27,-0.07,-0.03,-0.10
1690,1.80,-1.91,9.85,-0.07,-0.03,-0.10
1696,1.15,-1.53,10.00,-0.07,-0.03,-0.10
1701,1.15,-1.53,10.00,-0.03,-0.01,-0.08
1706,-0.08,-0.88,10.84,-0.03,-0.01,-0.08
1712,-0.38,-0.46,10.65,-0.03,-0.01,-0.08
1716,-0.38,-0.46,10.65,-0.04,0.11,-0.13
1721,-0.38,-0.46,10.65,-0.03,0.09,-0.14
1727,0.73,-1.15,9.38,-0.03,0.09,-0.14
1732,0.73,-1.15,9.38,-0.07,-0.01,-0.15
1736,0.73,-1.15,9.38,-0.07,-0.08,-0.15
1741,1.61,-1.07,8.89,-0.07,-0.08,-0.15
1746,1.27,-1.07,9.54,-0.07,-0.08,-0.15
1751,1.27,-1.07,9.54,-0.05,-0.09,-0.12
1755,1.27,-1.07,9.54,-0.04,-0.05,-0.12
1761,-0.04,0.34,9.30,-0.04,-0.05,-0.12
1765,-0.04,0.34,9.30,-0.05,0.03,-0.13
1771,-0.04,0.34,9.30,-0.05,0.03,-0.14
1777,0.65,-0.38,9.96,-0.05,0.03,-0.14
1780,0.65,-0.38,9.96,-0.07,-0.02,-0.16
1785,0.65,-0.38,9.96,-0.06,-0.03,-0.14
1791,0.65,-0.38,9.96,-0.06,-0.04,-0.14
1796,0.88,-1.15,8.84,-0.06,-0.04,-0.14
1801,0.88,-1.15,8.84,-0.05,-0.07,-0.13
1805,0.88,-1.15,8.84,-0.06,-0.10,-0.12
1811,0.88,-1.15,8.84,-0.06,-0.11,-0.12
1817,1.80,-1.07,9.80,-0.06,-0.11,-0.12
1821,1.80,-1.07,9.80,-0.03,-0.03,-0.11
1826,1.80,-1.07,9.80,-0.02,0.03,-0.09
1832,-0.11,-0.27,9.54,-0.02,0.03,-0.09
1836,-0.11,-0.27,9.54,-0.01,0.08,-0.09
1841,-0.11,-0.27,9.54,0.00,0.07,-0.09
1847,-2.22,-0.46,8.28,0.00,0.07,-0.09
1851,-2.22,-0.46,8.28,-0.02,0.02,-0.07
1855,-2.22,-0.46,8.28,-0.04,-0.06,-0.07
1861,2.76,-1.00,9.84,-0.04,-0.06,-0.07
1866,2.14,-0.61,10.00,-0.04,-0.06,-0.07
1871,2.14,-0.61,10.00,-0.04,-0.19,-0.01
1876,2.14,-0.61,10.00,-0.04,-0.15,-0.02
1882,0.57,-0.77,10.27,-0.04,-0.15,-0.02
1885,0.57,-0.77,10.27,-0.02,-0.01,-0.06
1890,0.57,-0.77,10.27,0.00,0.05,-0.05
1896,0.92,-0.92,9.80,0.00,0.05,-0.05
1901,1.27,-1.19,10.31,0.00,0.05,-0.05
1905,1.27,-1.19,10.31,-0.01,0.01,-0.02
1911,1.27,-1.19,10.31,-0.02,-0.05,-0.03
1916,1.49,-1.42,8.62,-0.02,-0.05,-0.03
1921,1.49,-1.42,8.62,-0.03,-0.10,-0.05
1925,1.49,-1.42,8.62,-0.03,-0.11,-0.06
1931,1.49,-1.42,8.62,-0.02,-0.10,-0.05
1937,1.84,-1.68,10.00,-0.02,-0.10,-0.05
1941,1.84,-1.68,10.00,-0.01,-0.06,-0.04
1946,1.84,-1.68,10.00,-0.01,-0.02,-0.05
1951,0.77,-0.61,9.38,-0.01,-0.02,-0.05
1956,0.77,-0.61,9.38,-0.00,0.05,-0.08
1961,0.77,-0.61,9.38,-0.01,0.04,-0.08
1966,1.72,-1.07,9.23,-0.01,0.04,-0.08
1971,1.15,-1.23,9.31,-0.01,0.04,-0.08
1976,1.15,-1.23,9.31,-0.01,-0.01,-0.03
1981,1.15,-1.23,9.31,-0.00,0.01,-0.04
1987,2.41,-1.04,10.73,-0.00,0.01,-0.04
1990,2.41,-1.04,10.73,-0.02,-0.04,-0.03
1996,2.41,-1.04,10.73,-0.01,-0.05,0.02
2002,1.42,-1.11,10.19,-0.01,-0.05,0.02
2005,1.42,-1.11,10.19,0.00,0.00,0.06
2011,1.42,-1.11,10.19,0.01,0.03,0.05
2016,0.92,-1.23,9.92,0.01,0.03,0.05
2021,1.30,-1.46,10.11,0.01,0.03,0.05
2025,1.30,-1.46,10.11,0.03,0.02,0.14
2031,1.30,-1.46,10.11,0.03,0.00,0.17
2037,1.80,-1.30,10.07,0.03,0.00,0.17
2041,1.80,-1.30,10.07,0.03,-0.04,0.19
2046,1.80,-1.30,10.07,0.04,-0.04,0.22
2051,1.80,-1.30,10.07,0.04,-0.02,0.23
2057,0.65,-1.04,9.23,0.04,-0.02,0.23
2060,0.65,-1.04,9.23,0.04,-0.02,0.27
2065,0.65,-1.04,9.23,0.05,-0.02,0.28
2070,0.65,-1.04,9.23,0.05,-0.02,0.30
2076,1.91,-1.65,9.89,0.05,-0.02,0.30
2081,1.91,-1.65,9.89,0.04,-0.03,0.32
2086,1.91,-1.65,9.89,0.05,-0.03,0.32
2091,1.19,-1.00,9.65,0.05,-0.03,0.32
2096,1.19,-1.00,9.65,0.04,-0.02,0.31
2101,1.19,-1.00,9.65,0.04,-0.01,0.29
2107,0.69,-1.72,9.96,0.04,-0.01,0.29
2111,0.69,-1.72,9.96,0.05,0.04,0.27
2116,0.69,-1.72,9.96,0.06,0.06,0.27
2121,0.30,-1.11,11.26,0.06,0.06,0.27
2127,-0.50,-1.04,10.19,0.06,0.06,0.27
2131,-0.50,-1.04,10.19,0.04,0.06,0.23
2136,-0.50,-1.04,10.19,0.03,0.03,0.22
2141,0.92,-0.69,8.93,0.03,0.03,0.22
2145,0.92,-0.69,8.93,0.00,-0.04,0.16
2151,0.92,-0.69,8.93,-0.01,-0.05,0.15
2157,0.80,-0.73,9.38,-0.01,-0.05,0.15
2160,0.80,-0.73,9.38,-0.01,-0.02,0.13
2165,0.80,-0.73,9.38,-0.01,0.01,0.12
2171,0.80,-0.73,9.38,-0.01,0.04,0.10
2177,-0.19,-0.19,9.61,-0.01,0.04,0.10
2181,-0.19,-0.19,9.61,-0.02,0.06,0.05
2186,-0.19,-0.19,9.61,-0.03,0.04,0.03
2192,0.73,-0.50,9.77,-0.03,0.04,0.03
2196,0.73,-0.50,9.77,-0.04,0.01,0.02
2201,0.73,-0.50,9.77,-0.04,0.02,0.01
2206,0.73,-0.50,9.77,-0.05,0.04,-0.02
2212,0.15,-0.38,9.16,-0.05,0.04,-0.02
2216,0.15,-0.38,9.16,-0.05,0.06,-0.04
2221,0.15,-0.38,9.16,-0.06,0.06,-0.04
2225,0.15,0.00,9.30,-0.06,0.06,-0.04
2232,0.38,0.08,9.30,-0.06,0.06,-0.04
2236,0.38,0.08,9.30,-0.10,0.03,-0.07
2241,0.38,0.08,9.30,-0.10,0.03,-0.08
2247,0.46,0.19,9.43,-0.10,0.03,-0.08
2252,0.46,0.19,9.43,-0.10,0.06,-0.06
2256,0.46,0.19,9.43,-0.08,0.08,-0.04
2261,-0.46,-0.11,10.03,-0.08,0.08,-0.04
2266,-0.46,-0.11,10.03,-0.08,0.08,-0.01
2271,-0.46,-0.11,10.03,-0.09,0.05,0.00
2276,-0.54,0.34,8.16,-0.09,0.05,0.00
2282,-1.27,0.38,6.62,-0.09,0.05,0.00
2286,-1.27,0.38,6.62,-0.09,0.04,0.02
2291,-1.27,0.38,6.62,-0.09,0.04,0.02
2297,1.07,-0.88,10.23,-0.09,0.04,0.02
2301,1.07,-0.88,10.23,-0.09,-0.06,0.05
2306,1.07,-0.88,10.23,-0.11,-0.08,0.05
2312,1.07,-0.88,10.23,-0.11,-0.05,0.04
2315,1.07,-0.88,10.23,-0.10,0.00,0.02
2321,1.07,-0.88,10.23,-0.10,0.05,0.01
2326,1.07,-0.88,10.23,-0.09,0.07,0.01
2332,-0.34,-1.23,10.03,-0.09,0.07,0.01
2336,-0.34,-1.23,10.03,-0.09,0.08,0.02
2341,-0.34,-1.23,10.03,-0.10,0.07,0.01
2346,-0.23,-1.53,8.66,-0.10,0.07,0.01
2351,0.00,-2.03,9.08,-0.10,0.07,0.01
2356,0.00,-2.03,9.08,-0.11,-0.01,-0.03
2361,0.00,-2.03,9.08,-0.11,-0.04,-0.03
2367,1.99,-1.84,10.38,-0.11,-0.04,-0.03
2371,1.99,-1.84,10.38,-0.12,-0.05,-0.02
2377,1.99,-1.84,10.38,-0.10,-0.01,-0.03
2381,0.65,-1.84,10.07,-0.10,-0.01,-0.03
2386,0.42,-1.68,10.11,-0.10,-0.01,-0.03
2391,0.42,-1.68,10.11,-0.08,0.13,-0.03
2396,0.42,-1.68,10.11,-0.07,0.14,-0.02
2402,0.69,-1.61,9.58,-0.07,0.14,-0.02
2406,0.69,-1.61,9.58,-0.08,0.07,-0.00
2411,0.69,-1.61,9.58,-0.07,0.01,0.01
2417,2.61,-1.80,9.31,-0.07,0.01,0.01
2421,2.61,-1.80,9.31,-0.06,-0.04,0.04
2426,2.61,-1.80,9.31,-0.05,-0.01,0.05
2431,2.61,-1.80,9.31,-0.04,0.05,0.06
2435,2.61,-1.80,9.31,-0.05,0.12,0.04
2441,2.61,-1.80,9.31,-0.06,0.17,0.01
2446,2.61,-1.80,9.31,-0.06,0.19,-0.01
2452,0.50,0.19,9.12,-0.06,0.19,-0.01
2456,0.50,0.19,9.12,-0.09,0.11,-0.04
2461,0.50,0.19,9.12,-0.11,0.05,-0.04
2466,0.50,0.19,9.12,-0.12,-0.01,-0.04
2471,2.18,0.80,9.69,-0.12,-0.01,-0.04
2476,2.18,0.80,9.69,-0.13,-0.03,-0.05
2481,2.18,0.80,9.69,-0.13,0.00,-0.05
2486,1.04,1.04,9.69,-0.13,0.00,-0.05
2491,1.04,1.04,9.69,-0.12,0.10,-0.07
2496,1.04,1.04,9.69,-0.12,0.12,-0.07
2501,1.76,1.34,9.54,-0.12,0.12,-0.07
2507,1.99,1.11,9.12,-0.12,0.12,-0.07
2511,1.99,1.11,9.12,-0.19,0.05,-0.14
2516,1.99,1.11,9.12,-0.20,0.01,-0.17
2522,2.18,0.38,8.43,-0.20,0.01,-0.17
2526,2.18,0.38,8.43,-0.21,-0.02,-0.21
2531,2.18,0.38,8.43,-0.22,-0.02,-0.24
2537,2.18,0.38,8.43,-0.22,0.00,-0.26
2541,2.18,0.38,8.43,-0.24,0.01,-0.29
2546,2.18,0.38,8.43,-0.24,0.03,-0.32
2551,2.18,0.38,8.43,-0.25,0.06,-0.35
2557,1.76,-0.23,9.58,-0.25,0.06,-0.35
2561,1.76,-0.23,9.58,-0.24,0.12,-0.41
2566,1.76,-0.23,9.58,-0.24,0.12,-0.44
2572,1.76,-0.23,9.58,-0.25,0.10,-0.46
2576,1.76,-0.23,9.58,-0.26,0.06,-0.50
2581,1.76,-0.23,9.58,-0.26,0.04,-0.52
2586,1.76,-0.23,9.58,-0.26,0.02,-0.55
2592,1.46,-1.65,10.00,-0.26,0.02,-0.55
2596,1.46,-1.65,10.00,-0.27,0.05,-0.57
2601,1.46,-1.65,10.00,-0.27,0.06,-0.58
2607,1.46,-1.65,10.00,-0.28,0.07,-0.61
2611,1.46,-1.65,10.00,-0.27,0.07,-0.61
2616,1.46,-1.65,10.00,-0.26,0.05,-0.60
2621,1.46,-1.65,10.00,-0.25,0.04,-0.58
2627,2.53,-2.61,9.54,-0.25,0.04,-0.58
2631,2.53,-2.61,9.54,-0.23,0.02,-0.53
2636,2.53,-2.61,9.54,-0.21,0.04,-0.52
2641,2.53,-2.61,9.54,-0.21,0.08,-0.52
2646,2.53,-2.61,9.54,-0.21,0.11,-0.53
2651,2.53,-2.61,9.54,-0.22,0.11,-0.52
2656,2.53,-2.61,9.54,-0.22,0.10,-0.51
2661,1.04,-1.42,9.42,-0.22,0.10,-0.51
2666,1.04,-1.42,9.42,-0.23,0.03,-0.46
2671,1.04,-1.42,9.42,-0.23,-0.02,-0.44
2677,1.04,-1.42,9.42,-0.24,-0.05,-0.41
2681,1.04,-1.42,9.42,-0.23,-0.06,-0.38
2686,1.04,-1.42,9.42,-0.23,-0.05,-0.36
2691,1.04,-1.42,9.42,-0.22,-0.03,-0.34
2696,0.11,-1.49,10.11,-0.22,-0.03,-0.34
2701,0.11,-1.49,10.11,-0.19,0.04,-0.29
2706,0.11,-1.49,10.11,-0.18,0.05,-0.27
2712,0.11,-1.49,10.11,-0.18,0.04,-0.25
2716,0.11,-1.49,10.11,-0.20,0.00,-0.25
2721,0.11,-1.49,10.11,-0.21,-0.06,-0.23
2725,0.11,-1.49,10.11,-0.22,-0.12,-0.20
2731,2.45,-1.76,9.65,-0.22,-0.12,-0.20
2736,2.45,-1.76,9.65,-0.21,-0.09,-0.18
2741,2.45,-1.76,9.65,-0.20,-0.03,-0.17
2747,0.57,-2.14,10.15,-0.20,-0.03,-0.17
2751,0.57,-2.14,10.15,-0.16,0.07,-0.16
2756,0.57,-2.14,10.15,-0.15,0.10,-0.14
2761,0.57,-2.14,10.15,-0.15,0.10,-0.12
2766,0.57,-2.14,10.15,-0.16,0.08,-0.10
2771,0.57,-2.14,10.15,-0.18,0.05,-0.11
2776,0.57,-2.14,10.15,-0.18,0.02,-0.11
2781,1.19,-1.72,8.62,-0.18,0.02,-0.11
2786,1.19,-1.72,8.62,-0.20,-0.05,-0.07
2791,1.19,-1.72,8.62,-0.19,-0.08,-0.05
2797,1.19,-1.72,8.62,-0.20,-0.08,-0.04
2801,1.19,-1.72,8.62,-0.19,-0.05,-0.03
2806,1.19,-1.72,8.62,-0.18,-0.02,-0.01
2811,1.19,-1.72,8.62,-0.18,0.02,-0.00
2817,0.57,-1.04,9.43,-0.18,0.02,-0.00
2821,0.57,-1.04,9.43,-0.19,0.03,-0.01
2826,0.57,-1.04,9.43,-0.21,0.03,-0.01
2831,0.57,-1.04,9.43,-0.21,0.01,-0.00
2836,0.57,-1.04,9.43,-0.21,-0.01,0.01
2841,0.57,-1.04,9.43,-0.22,-0.03,0.02
2846,0.57,-1.04,9.43,-0.23,-0.03,0.02
2851,0.84,-0.38,10.15,-0.23,-0.03,0.02
2856,0.84,-0.38,10.15,-0.25,-0.01,0.02
2861,0.84,-0.38,10.15,-0.24,0.02,0.03
2866,0.84,-0.38,10.15,-0.24,0.05,0.04
2871,0.84,-0.38,10.15,-0.24,0.06,0.04
2876,0.84,-0.38,10.15,-0.23,0.06,0.04
2881,0.84,-0.38,10.15,-0.22,0.04,0.06
2886,0.50,-1.42,9.73,-0.22,0.04,0.06
2891,0.50,-1.42,9.73,-0.21,-0.01,0.09
2896,0.50,-1.42,9.73,-0.22,-0.03,0.08
2901,0.50,-1.42,9.73,-0.22,-0.03,0.08
2906,0.50,-1.42,9.73,-0.22,-0.01,0.07
2911,0.50,-1.42,9.73,-0.23,0.00,0.08
2915,0.50,-1.42,9.73,-0.23,0.02,0.08
2921,-0.15,-1.80,9.23,-0.23,0.02,0.08
2925,-0.15,-1.80,9.23,-0.24,0.04,0.08
2930,-0.15,-1.80,9.23,-0.24,0.03,0.07
2935,-0.15,-1.80,9.23,-0.23,0.01,0.07
2940,0.42,-3.71,9.23,-0.23,0.01,0.07
2947,0.42,-3.71,9.23,-0.20,-0.02,0.08
2951,0.42,-3.71,9.23,-0.16,-0.07,0.11
2956,0.42,-3.71,9.23,-0.13,-0.07,0.10
2961,0.42,-3.71,9.23,-0.11,-0.06,0.09
2966,0.42,-3.71,9.23,-0.09,-0.05,0.09
2971,0.42,-3.71,9.23,-0.07,-0.04,0.09
2976,0.42,-3.71,9.23,-0.06,-0.02,0.08
2981,0.42,-3.71,9.23,-0.08,0.01,0.06
2985,0.42,-3.71,9.23,-0.10,0.04,0.03
2991,1.72,-3.48,9.46,-0.10,0.04,0.03
2996,1.72,-3.48,9.46,-0.13,0.09,0.00
3001,1.72,-3.48,9.46,-0.13,0.11,0.01
3006,0.96,-3.41,10.15,-0.13,0.11,0.01
3011,0.96,-3.41,10.15,-0.11,0.12,0.01
3016,0.96,-3.41,10.15,-0.08,0.09,0.01
3021,0.96,-3.41,10.15,-0.07,0.06,0.01
3026,0.96,-3.41,10.15,-0.05,0.04,0.02
3031,0.96,-3.41,10.15,-0.04,0.03,0.04
3036,0.96,-3.41,10.15,-0.03,0.03,0.05
3042,1.23,-2.49,8.54,-0.03,0.03,0.05
3046,1.23,-2.49,8.54,-0.04,0.01,0.05
3051,1.23,-2.49,8.54,-0.05,0.01,0.05
3056,1.23,-2.49,8.54,-0.08,0.02,0.05
3061,1.23,-2.49,8.54,-0.09,0.04,0.05
3066,1.23,-2.49,8.54,-0.09,0.05,0.04
3071,1.23,-2.49,8.54,-0.11,0.05,0.04
3076,-0.11,-1.80,9.46,-0.11,0.05,0.04
3081,-0.11,-1.80,9.46,-0.11,0.02,0.03
3086,-0.11,-1.80,9.46,-0.11,0.00,0.04
3091,-0.11,-1.80,9.46,-0.10,0.01,0.06
3096,-0.11,-1.80,9.46,-0.09,0.02,0.07
3101,-0.11,-1.80,9.46,-0.10,0.03,0.08
3106,-0.11,-1.80,9.46,-0.09,0.04,0.08
3111,-0.65,-0.80,9.23,-0.09,0.04,0.08
3116,-0.65,-0.80,9.23,-0.08,0.06,0.10
3121,-0.65,-0.80,9.23,-0.09,0.09,0.10
3126,-0.65,-0.80,9.23,-0.10,0.10,0.10
3131,-0.65,-0.80,9.23,-0.11,0.10,0.09
3136,-0.65,-0.80,9.23,-0.12,0.09,0.10
3140,-0.65,-0.80,9.23,-0.13,0.05,0.09
3146,-0.73,-1.19,8.78,-0.13,0.05,0.09
3151,-0.73,-1.19,8.78,-0.15,-0.02,0.08
3156,-0.73,-1.19,8.78,-0.16,-0.04,0.07
3161,-0.73,-1.19,8.78,-0.17,-0.05,0.05
3166,-0.73,-1.19,8.78,-0.18,-0.04,0.04
3171,-0.73,-1.19,8.78,-0.17,-0.01,0.02
3175,-0.73,-1.19,8.78,-0.18,0.03,0.00
3181,-1.65,-1.30,9.08,-0.18,0.03,0.00
3186,-1.65,-1.30,9.08,-0.19,0.07,-0.04
3191,-1.65,-1.30,9.08,-0.20,0.07,-0.06
3197,-1.65,-1.30,9.08,-0.21,0.06,-0.07
3201,-1.65,-1.30,9.08,-0.21,0.04,-0.07
3206,-1.65,-1.30,9.08,-0.22,0.01,-0.08
3211,-1.65,-1.30,9.08,-0.23,-0.00,-0.10
3216,-1.65,-1.30,9.08,-0.23,0.00,-0.11
3221,-1.65,-1.30,9.08,-0.22,0.02,-0.11
3226,-1.65,-1.30,9.08,-0.22,0.04,-0.10
3232,-1.65,-1.30,9.08,-0.23,0.06,-0.10
3236,-1.65,-1.30,9.08,-0.23,0.07,-0.10
3241,-1.65,-1.30,9.08,-0.23,0.06,-0.11
3245,-1.65,-1.30,9.08,-0.24,0.04,-0.12
3251,-0.80,-2.03,9.16,-0.24,0.04,-0.12
3256,-0.80,-2.03,9.16,-0.24,0.01,-0.13
3260,-0.80,-2.03,9.16,-0.25,0.00,-0.13
3266,-0.04,-2.57,10.00,-0.25,0.00,-0.13
3271,-0.04,-2.57,10.00,-0.25,0.01,-0.13
3276,-0.04,-2.57,10.00,-0.25,0.03,-0.13
3280,-0.04,-2.57,10.00,-0.24,0.04,-0.14
3286,-1.00,-2.53,9.27,-0.24,0.04,-0.14
3291,-1.00,-2.53,9.27,-0.24,0.06,-0.16
3295,-1.00,-2.53,9.27,-0.24,0.05,-0.16
3301,-0.61,-2.53,8.77,-0.24,0.05,-0.16
3306,-0.61,-2.53,8.77,-0.23,0.03,-0.15
3311,-0.61,-2.53,8.77,-0.24,0.01,-0.16
3315,-0.61,-2.53,8.77,-0.24,0.01,-0.15
3321,-0.15,-2.80,9.04,-0.24,0.01,-0.15
3327,-0.15,-2.80,9.04,-0.23,0.02,-0.14
3330,-0.15,-2.80,9.04,-0.23,0.02,-0.14
3336,0.08,-2.84,9.58,-0.23,0.02,-0.14
3341,0.08,-2.84,9.58,-0.23,0.02,-0.13
3346,0.08,-2.84,9.58,-0.22,0.02,-0.12
3351,0.08,-2.84,9.58,-0.23,0.03,-0.11
3356,0.38,-3.03,9.43,-0.23,0.03,-0.11
3361,0.38,-3.03,9.43,-0.22,0.05,-0.10
3365,0.38,-3.03,9.43,-0.21,0.06,-0.08
3371,0.08,-3.22,8.88,-0.21,0.06,-0.08
3376,0.08,-3.22,8.88,-0.22,0.04,-0.08
3381,0.08,-3.22,8.88,-0.21,0.03,-0.08
3386,0.08,-3.22,8.88,-0.21,0.01,-0.08
3391,0.38,-3.60,9.46,-0.21,0.01,-0.08
3396,0.38,-3.60,9.46,-0.21,0.01,-0.08
3400,0.38,-3.60,9.46,-0.20,0.01,-0.06
3406,0.30,-3.45,9.20,-0.20,0.01,-0.06
3411,0.30,-3.45,9.20,-0.20,0.02,-0.07
3416,0.30,-3.45,9.20,-0.20,0.03,-0.07
3421,0.30,-3.45,9.20,-0.20,0.04,-0.07
3426,0.30,-3.45,9.20,-0.20,0.03,-0.07
3431,0.30,-3.45,9.20,-0.19,0.03,-0.06
3435,0.30,-3.45,9.20,-0.19,0.02,-0.06
3441,0.27,-3.45,9.23,-0.19,0.02,-0.06
3446,0.27,-3.45,9.23,-0.18,0.02,-0.05
3450,0.27,-3.45,9.23,-0.18,0.02,-0.05
3456,0.27,-3.45,9.23,-0.18,0.01,-0.05
3461,0.27,-3.45,9.23,-0.17,0.02,-0.05
3466,0.27,-3.45,9.23,-0.17,0.02,-0.04
3470,0.27,-3.45,9.23,-0.16,0.02,-0.04
3476,0.46,-3.03,9.16,-0.16,0.02,-0.04
3481,0.46,-3.03,9.16,-0.16,0.03,-0.04
3485,0.46,-3.03,9.16,-0.15,0.03,-0.05
3491,0.46,-3.03,9.16,-0.15,0.03,-0.04
3496,0.46,-3.03,9.16,-0.16,0.03,-0.04
3501,0.46,-3.03,9.16,-0.15,0.02,-0.04
3505,0.46,-3.03,9.16,-0.17,0.00,-0.05
3511,0.42,-3.18,9.12,-0.17,0.00,-0.05
3516,0.42,-3.18,9.12,-0.16,-0.01,-0.05
3520,0.42,-3.18,9.12,-0.16,-0.01,-0.05
3526,0.46,-2.95,9.20,-0.16,-0.01,-0.05
3531,0.46,-2.95,9.20,-0.16,0.00,-0.06
3536,0.46,-2.95,9.20,-0.16,0.01,-0.06
3541,0.46,-2.95,9.20,-0.17,0.02,-0.06
3546,0.23,-3.48,9.16,-0.17,0.02,-0.06
3551,0.23,-3.48,9.16,-0.16,0.02,-0.05
3555,0.23,-3.48,9.16,-0.16,0.02,-0.05
3561,0.30,-3.33,9.16,-0.16,0.02,-0.05
3566,0.30,-3.33,9.16,-0.15,0.01,-0.05
3571,0.30,-3.33,9.16,-0.14,0.01,-0.05
3576,0.30,-3.33,9.16,-0.15,0.01,-0.05
3581,0.19,-3.41,9.20,-0.15,0.01,-0.05
3586,0.19,-3.41,9.20,-0.15,0.01,-0.04
3590,0.19,-3.41,9.20,-0.15,0.01,-0.04
3596,0.08,-3.29,9.16,-0.15,0.01,-0.04
3601,0.08,-3.29,9.16,-0.15,0.01,-0.04
3606,0.08,-3.29,9.16,-0.15,0.01,-0.04
3611,0.08,-3.29,9.16,-0.14,0.01,-0.05
3616,-0.15,-3.48,9.08,-0.14,0.01,-0.05
3621,-0.15,-3.48,9.08,-0.14,0.01,-0.05
3625,-0.15,-3.48,9.08,-0.13,0.01,-0.05
3631,0.88,-4.02,8.81,-0.13,0.01,-0.05
3636,0.88,-4.02,8.81,-0.12,0.00,0.02
3641,0.88,-4.02,8.81,-0.12,0.00,0.01
3646,0.88,-4.02,8.81,-0.14,0.02,-0.05
3651,0.23,-3.71,9.00,-0.14,0.02,-0.05
3656,0.23,-3.71,9.00,-0.14,0.00,-0.04
3660,0.23,-3.71,9.00,-0.12,0.00,0.00
3666,-0.50,-3.41,9.04,-0.12,0.00,0.00
3671,-0.50,-3.41,9.04,-0.13,0.03,-0.03
3675,-0.50,-3.41,9.04,-0.12,0.02,-0.07
3681,-0.50,-3.41,9.04,-0.13,0.03,-0.08
3686,-0.50,-3.41,9.04,-0.12,0.03,-0.05
3691,-0.50,-3.41,9.04,-0.12,0.03,-0.04
3696,-0.50,-3.41,9.04,-0.12,0.01,-0.05
3701,-0.15,-3.26,9.12,-0.12,0.01,-0.05
3706,-0.15,-3.26,9.12,-0.13,0.01,-0.07
3710,-0.15,-3.26,9.12,-0.13,0.02,-0.06
3716,-0.15,-3.26,9.12,-0.12,0.02,-0.04
3721,-0.15,-3.26,9.12,-0.12,0.01,-0.03
3726,-0.15,-3.26,9.12,-0.12,0.01,-0.04
3731,-0.15,-3.26,9.12,-0.11,0.01,-0.05
3736,-0.57,-3.56,9.04,-0.11,0.01,-0.05
3741,-0.57,-3.56,9.04,-0.11,0.01,-0.04
3745,-0.57,-3.56,9.04,-0.12,0.01,-0.05
3751,-0.57,-3.56,9.04,-0.11,0.00,-0.04
3756,-0.57,-3.56,9.04,-0.11,0.00,-0.03
3761,-0.57,-3.56,9.04,-0.11,0.01,-0.03
3766,-0.57,-3.56,9.04,-0.11,0.01,-0.04
3771,-0.73,-3.41,9.00,-0.11,0.01,-0.04
3776,-0.73,-3.41,9.00,-0.11,0.02,-0.03
3780,-0.73,-3.41,9.00,-0.11,0.01,-0.03
3786,-0.73,-3.45,9.00,-0.11,0.01,-0.03
3791,-0.73,-3.45,9.00,-0.10,0.01,-0.03
3796,-0.73,-3.45,9.00,-0.11,0.01,-0.03
3801,-0.73,-3.45,9.00,-0.10,0.01,-0.01
3806,-0.88,-3.22,8.96,-0.10,0.01,-0.01
3811,-0.88,-3.22,8.96,-0.10,0.01,-0.01
3815,-0.88,-3.22,8.96,-0.10,0.01,-0.01
3821,-0.80,-3.26,8.92,-0.10,0.01,-0.01
3826,-0.80,-3.26,8.92,-0.09,0.00,0.02
3831,-0.80,-3.26,8.92,-0.09,0.00,0.02
3836,-0.80,-3.26,8.92,-0.09,0.00,0.02
3841,-0.84,-3.29,8.96,-0.09,0.00,0.02
3846,-0.84,-3.29,8.96,-0.08,0.00,0.04
3850,-0.84,-3.29,8.96,-0.08,0.00,0.03
3856,-0.92,-3.48,8.96,-0.08,0.00,0.03
3860,-0.92,-3.48,8.96,-0.09,0.00,0.03
3865,-0.92,-3.48,8.96,-0.07,0.00,0.03
3871,-0.92,-3.48,8.96,-0.07,0.00,0.03
3876,-1.19,-3.71,9.00,-0.07,0.00,0.03
3881,-1.19,-3.71,9.00,-0.07,-0.00,0.01
3885,-1.19,-3.71,9.00,-0.07,0.00,0.01
3891,-1.23,-3.52,9.00,-0.07,0.00,0.01
3896,-1.23,-3.52,9.00,-0.07,0.01,0.01
3900,-1.23,-3.52,9.00,-0.08,0.01,-0.01
3906,-1.23,-3.52,9.00,-0.07,0.01,-0.02
3911,-1.19,-3.68,8.92,-0.07,0.01,-0.02
3916,-1.19,-3.68,8.92,-0.07,0.01,-0.01
3920,-1.19,-3.68,8.92,-0.07,-0.00,-0.02
3926,-1.15,-3.60,9.00,-0.07,-0.00,-0.02
3931,-1.15,-3.60,9.00,-0.06,-0.00,-0.03
3935,-1.15,-3.60,9.00,-0.06,0.00,-0.03
3941,-1.23,-3.64,9.04,-0.06,0.00,-0.03
3946,-1.23,-3.64,9.04,-0.06,0.00,-0.04
3951,-1.23,-3.64,9.04,-0.06,-0.00,-0.04
3956,-1.23,-3.64,9.04,-0.05,0.00,-0.04
3961,-1.23,-3.75,8.96,-0.05,0.00,-0.04
3966,-1.23,-3.75,8.96,-0.05,0.01,-0.05
3970,-1.23,-3.75,8.96,-0.05,0.01,-0.06
3976,-1.30,-3.98,8.96,-0.05,0.01,-0.06
3980,-1.30,-3.98,8.96,-0.05,0.01,-0.05
3985,-1.30,-3.98,8.96,-0.05,0.01,-0.05
3991,-1.30,-3.98,8.96,-0.05,0.00,-0.05
3996,-1.30,-3.91,8.96,-0.05,0.00,-0.05
4001,-1.30,-3.91,8.96,-0.04,0.00,-0.05
4005,-1.30,-3.91,8.96,-0.04,0.01,-0.04
4011,-1.30,-3.91,8.96,-0.04,0.00,-0.05
4016,-1.30,-3.91,8.96,-0.03,-0.00,-0.04
4021,-1.30,-3.91,8.96,-0.02,0.00,-0.03
4026,-1.30,-3.91,8.96,-0.02,0.00,-0.03
4031,-1.30,-3.75,8.89,-0.02,0.00,-0.03
4036,-1.30,-3.75,8.89,-0.02,0.01,-0.01
4040,-1.30,-3.75,8.89,-0.02,0.01,-0.00
4046,-1.27,-3.79,8.92,-0.02,0.01,-0.00
4051,-1.27,-3.79,8.92,-0.01,0.00,0.01
4055,-1.27,-3.79,8.92,-0.01,-0.00,0.02
4061,-1.27,-3.79,8.92,0.00,-0.00,0.03
4066,-1.27,-3.79,8.92,0.00,-0.00,0.03
4071,-1.27,-3.79,8.92,0.01,-0.00,0.04
4076,-1.27,-3.79,8.92,0.01,-0.00,0.05
4081,-1.27,-3.64,8.96,0.01,-0.00,0.05
4086,-1.27,-3.64,8.96,0.01,-0.00,0.06
4090,-1.27,-3.64,8.96,0.02,0.00,0.06
4096,-1.27,-3.64,8.96,0.02,0.00,0.07
4101,-1.27,-3.71,8.92,0.02,0.00,0.07
4106,-1.27,-3.71,8.92,0.01,-0.00,0.08
4111,-1.27,-3.71,8.92,0.02,-0.00,0.09
4116,-1.23,-3.52,9.00,0.02,-0.00,0.09
4121,-1.23,-3.52,9.00,0.02,-0.00,0.10
4125,-1.23,-3.52,9.00,0.02,-0.00,0.09
4131,-1.23,-3.52,9.00,0.03,0.00,0.09
4136,-1.23,-3.52,9.00,0.02,-0.01,0.10
4141,-1.23,-3.52,9.00,0.02,-0.00,0.09
4145,-1.23,-3.52,9.00,0.03,-0.01,0.10
4151,-1.23,-3.52,9.00,0.03,-0.01,0.10
4156,-1.23,-3.52,9.00,0.03,-0.01,0.10
4160,-1.23,-3.52,9.00,0.03,-0.01,0.11
4166,-1.04,-3.29,8.96,0.03,-0.01,0.11
4171,-1.00,-3.33,8.96,0.03,-0.01,0.11
4175,-1.00,-3.33,8.96,0.03,-0.00,0.11
4181,-1.00,-3.33,8.96,0.03,-0.01,0.11
4186,-0.96,-3.29,9.00,0.03,-0.01,0.11
4191,-0.96,-3.29,9.00,0.03,-0.01,0.11
4195,-0.96,-3.29,9.00,0.03,-0.01,0.11
4201,-0.96,-3.22,9.00,0.03,-0.01,0.11
4206,-0.96,-3.22,9.00,0.02,-0.01,0.11
4210,-0.96,-3.22,9.00,0.03,-0.01,0.10
4216,-0.96,-3.22,9.00,0.03,-0.01,0.10
4221,-0.88,-3.33,8.96,0.03,-0.01,0.10
4226,-0.88,-3.33,8.96,0.03,-0.01,0.09
4230,-0.88,-3.33,8.96,0.03,-0.01,0.08
4236,-0.84,-3.29,8.96,0.03,-0.01,0.08
4240,-0.84,-3.29,8.96,0.02,-0.01,0.07
4245,-0.84,-3.29,8.96,0.02,-0.01,0.06
4251,-0.84,-3.29,8.96,0.02,-0.00,0.05
4256,-0.88,-3.29,9.00,0.02,-0.00,0.05
4261,-0.88,-3.29,9.00,0.02,0.00,0.05
4265,-0.88,-3.29,9.00,0.02,-0.01,0.04
4271,-0.88,-3.29,9.00,0.02,-0.00,0.04
4276,-0.88,-3.29,9.00,0.02,-0.00,0.03
4281,-0.88,-3.29,9.00,0.02,-0.01,0.02
4286,-0.88,-3.29,9.00,0.02,-0.01,0.02
4291,-0.80,-3.33,8.96,0.02,-0.01,0.02
4296,-0.80,-3.33,8.96,0.02,-0.00,0.01
4300,-0.80,-3.33,8.96,0.02,-0.00,0.00
4306,-0.73,-3.26,9.00,0.02,-0.00,0.00
4311,-0.73,-3.26,9.00,0.02,-0.00,-0.02
4315,-0.73,-3.26,9.00,0.01,-0.00,-0.03
4321,-0.73,-3.26,9.00,0.01,-0.00,-0.03
4326,-0.73,-3.26,9.00,0.01,-0.00,-0.04
4331,-0.73,-3.26,9.00,0.01,-0.01,-0.04
4336,-0.73,-3.26,9.00,0.00,0.01,-0.05
4341,-0.80,-3.33,9.04,0.00,0.01,-0.05
4346,-0.80,-3.33,9.04,0.01,0.00,-0.06
4350,-0.80,-3.33,9.04,0.01,0.00,-0.06
4356,-0.80,-3.33,9.04,0.00,0.00,-0.07
4360,-0.80,-3.33,9.04,0.00,0.00,-0.07
4365,-0.80,-3.33,9.04,-0.00,0.01,-0.08
4371,-0.80,-3.33,9.04,0.00,0.00,-0.07
4376,-0.77,-3.29,9.00,0.00,0.00,-0.07
4381,-0.77,-3.29,9.00,-0.00,0.00,-0.08
4385,-0.77,-3.29,9.00,0.00,0.00,-0.08
4391,-0.77,-3.29,9.00,0.00,0.00,-0.08
4396,-0.77,-3.29,9.00,0.01,0.00,-0.08
4400,-0.77,-3.29,9.00,0.00,0.01,-0.08
4405,-0.77,-3.29,9.00,0.00,-0.00,-0.08
4411,-0.77,-3.29,9.00,0.00,-0.00,-0.08
4415,-0.77,-3.29,9.00,0.01,-0.01,-0.08
4420,-0.77,-3.29,9.00,0.00,0.00,-0.08
4426,-0.73,-3.37,9.04,0.00,0.00,-0.08
4431,-0.73,-3.37,9.00,0.00,0.00,-0.08
4435,-0.73,-3.37,9.00,0.00,0.00,-0.09
4441,-0.73,-3.37,9.00,0.00,0.00,-0.08
4445,-0.73,-3.37,9.00,0.00,0.00,-0.08
4450,-0.73,-3.37,9.00,-0.00,0.01,-0.09
4455,-0.73,-3.37,9.00,0.01,0.00,-0.09
4461,-0.73,-3.52,9.00,0.01,0.00,-0.09
4465,-0.73,-3.52,9.00,0.00,0.00,-0.09
4470,-0.73,-3.52,9.00,0.01,0.00,-0.08
4476,-0.73,-3.52,9.00,0.01,0.00,-0.08
4480,-0.73,-3.52,9.00,0.02,0.01,-0.07
4485,-0.73,-3.52,9.00,0.01,0.00,-0.08
4490,-0.73,-3.52,9.00,0.01,0.00,-0.07
4496,-0.73,-3.45,8.96,0.01,0.00,-0.07
4501,-0.73,-3.45,8.96,0.01,0.00,-0.06
4505,-0.73,-3.45,8.96,0.01,0.00,-0.06
4511,-0.73,-3.45,8.96,0.01,0.00,-0.05
4515,-0.73,-3.45,8.96,0.01,-0.00,-0.04
4520,-0.73,-3.45,8.96,0.02,-0.00,-0.03
4526,-0.73,-3.45,8.96,0.02,0.00,-0.03
4531,-0.73,-3.45,8.96,0.02,-0.00,-0.02
4535,-0.73,-3.45,8.96,0.03,0.00,-0.01
4540,-0.73,-3.45,8.96,0.03,-0.00,-0.02
4545,-0.73,-3.45,8.96,0.03,-0.00,-0.01
4551,-0.77,-3.56,9.00,0.03,-0.00,-0.01
4555,-0.77,-3.56,9.00,0.03,-0.00,0.01
4561,-0.77,-3.56,9.00,0.03,-0.00,0.01
4566,-0.88,-3.45,9.00,0.03,-0.00,0.01
4570,-0.88,-3.45,9.00,0.04,0.00,0.03
4575,-0.88,-3.45,9.00,0.03,-0.00,0.04
4581,-0.88,-3.45,9.00,0.03,-0.01,0.04
4585,-0.88,-3.45,9.00,0.04,-0.01,0.04
4590,-0.88,-3.45,9.00,0.04,-0.01,0.05
4596,-0.88,-3.45,9.00,0.04,-0.01,0.06
4601,-0.80,-3.29,9.04,0.04,-0.01,0.06
4605,-0.80,-3.29,9.04,0.04,-0.01,0.07
4611,-0.80,-3.29,9.04,0.04,-0.01,0.07
4616,-0.80,-3.29,9.04,0.04,-0.00,0.08
4620,-0.80,-3.29,9.04,0.04,-0.01,0.08
4625,-0.80,-3.29,9.04,0.04,-0.00,0.08
4631,-0.80,-3.29,9.04,0.04,-0.00,0.08
4635,-0.80,-3.29,9.04,0.05,-0.01,0.09
4640,-0.80,-3.29,9.04,0.05,-0.01,0.08
4645,-0.80,-3.29,9.04,0.05,-0.01,0.09
4651,-0.80,-3.29,9.04,0.04,-0.01,0.08
4655,-0.80,-3.29,9.04,0.04,-0.01,0.08
4660,-0.80,-3.29,9.04,0.04,-0.00,0.08
4666,-0.80,-3.29,9.04,0.04,-0.01,0.07
4671,-0.80,-3.29,9.04,0.05,-0.01,0.07
4675,-0.80,-3.29,9.04,0.05,-0.01,0.07
4681,-0.80,-3.29,9.04,0.04,-0.01,0.06
4686,-0.96,-3.18,9.04,0.04,-0.01,0.06
4690,-0.96,-3.18,9.04,0.04,-0.00,0.05
4695,-0.96,-3.18,9.04,0.04,-0.00,0.05
4701,-0.96,-3.18,9.04,0.04,0.00,0.04
4705,-0.96,-3.18,9.04,0.03,-0.00,0.03
4710,-0.96,-3.18,9.04,0.03,0.00,0.03
4715,-0.96,-3.18,9.04,0.03,-0.00,0.02
4721,-0.92,-3.07,9.04,0.03,-0.00,0.02
4725,-0.92,-3.07,9.04,0.03,-0.00,0.01
4731,-0.92,-3.07,9.04,0.03,-0.01,0.00
4736,-0.92,-3.07,9.04,0.03,-0.01,-0.00
4740,-0.92,-3.07,9.04,0.03,-0.01,-0.01
4745,-0.92,-3.07,9.04,0.03,-0.01,-0.02
4750,-0.92,-3.07,9.04,0.03,-0.00,-0.02
4756,-1.04,-3.18,9.00,0.03,-0.00,-0.02
4760,-1.04,-3.18,9.00,0.03,0.00,-0.03
4765,-1.04,-3.18,9.00,0.02,0.00,-0.04
4771,-1.04,-3.18,9.00,0.03,0.00,-0.04
4775,-1.04,-3.18,9.00,0.02,0.00,-0.04
4781,-1.04,-3.18,9.00,0.02,0.00,-0.04
4785,-1.04,-3.18,9.00,0.02,0.00,-0.05
4791,-1.04,-3.18,9.00,0.01,0.01,-0.05
4795,-1.04,-3.18,9.00,0.01,0.01,-0.05
4800,-1.04,-3.18,9.00,0.01,0.00,-0.05
4805,-1.04,-3.18,9.00,0.01,0.01,-0.06
4811,-1.00,-2.91,9.00,0.01,0.01,-0.06
4815,-1.00,-2.91,9.00,0.01,0.01,-0.06
4820,-1.00,-2.91,9.00,0.01,0.01,-0.06
4826,-1.00,-2.95,9.00,0.01,0.01,-0.06
4830,-1.00,-2.95,9.00,0.01,0.00,-0.06
4835,-1.00,-2.95,9.00,0.01,0.00,-0.06
4841,-1.00,-2.95,9.00,0.01,0.00,-0.06
4846,-1.00,-2.95,9.00,0.00,-0.00,-0.06
4850,-0.96,-2.99,9.08,0.00,-0.00,-0.06
4855,-0.96,-2.99,9.08,-0.00,0.00,-0.06
4861,-1.00,-2.99,9.04,-0.00,0.00,-0.06
4866,-1.00,-2.99,9.04,0.00,-0.00,-0.06
4870,-0.96,-2.80,9.00,0.00,-0.00,-0.06
4876,-0.96,-2.80,9.00,-0.01,0.01,-0.06
4880,-0.96,-2.80,9.00,-0.01,0.00,-0.07
4885,-0.96,-2.80,9.00,-0.01,0.01,-0.06
4891,-0.96,-2.80,9.00,-0.00,0.00,-0.06
4895,-0.96,-2.80,9.00,-0.00,0.00,-0.05
4901,-0.96,-2.80,9.00,-0.00,0.00,-0.05
4905,-0.96,-2.80,9.00,-0.01,0.00,-0.05
4911,-0.96,-2.80,9.00,-0.01,-0.00,-0.04
4916,-0.96,-2.80,9.00,0.00,0.00,-0.04
4921,-0.96,-3.07,9.08,0.00,0.00,-0.04
4826,-1.00,-2.95,9.00,0.01,0.01,-0.06
4830,-1.00,-2.95,9.00,0.01,0.00,-0.06
4835,-1.00,-2.95,9.00,0.01,0.00,-0.06
4841,-1.00,-2.95,9.00,0.01,0.00,-0.06
4846,-1.00,-2.95,9.00,0.00,-0.00,-0.06
4850,-0.96,-2.99,9.08,0.00,-0.00,-0.06
4855,-0.96,-2.99,9.08,-0.00,0.00,-0.06
4861,-1.00,-2.99,9.04,-0.00,0.00,-0.06
4866,-1.00,-2.99,9.04,0.00,-0.00,-0.06
4870,-0.96,-2.80,9.00,0.00,-0.00,-0.06
4876,-0.96,-2.80,9.00,-0.01,0.01,-0.06
4880,-0.96,-2.80,9.00,-0.01,0.00,-0.07
4885,-0.96,-2.80,9.00,-0.01,0.01,-0.06
4891,-0.96,-2.80,9.00,-0.00,0.00,-0.06
4895,-0.96,-2.80,9.00,-0.00,0.00,-0.05
4901,-0.96,-2.80,9.00,-0.00,0.00,-0.05
