timestamp,accX,accY,accZ,gyroX,gyroY,gyroZ
Right
6,-0.38,-0.46,9.30,0.02,0.00,0.35
18,-0.38,-0.46,9.30,0.03,0.01,0.36
20,-1.07,-0.65,9.38,0.03,0.01,0.36
21,-1.07,-0.65,9.38,0.17,0.04,0.23
26,0.65,0.61,8.78,0.17,0.04,0.23
31,0.65,0.61,8.78,0.15,0.01,0.25
36,0.54,1.07,8.82,0.15,0.01,0.25
41,0.65,0.46,8.39,0.15,0.01,0.25
47,-0.92,0.61,8.16,0.15,0.01,0.25
51,-0.92,0.61,8.16,0.08,-0.07,0.24
56,-0.46,0.38,8.81,0.08,-0.07,0.24
61,0.38,-0.38,9.08,0.08,-0.07,0.24
67,0.88,-0.27,9.96,0.08,-0.07,0.24
71,0.88,-0.27,9.96,0.08,-0.12,0.24
76,1.76,-1.19,10.88,0.08,-0.12,0.24
81,1.11,-0.77,10.65,0.08,-0.12,0.24
86,1.49,-1.34,11.11,0.08,-0.12,0.24
91,1.07,-0.80,10.35,0.08,-0.12,0.24
96,-0.04,-1.00,9.58,0.08,-0.12,0.24
101,-0.04,-1.00,9.58,0.14,0.07,0.29
106,-1.07,-0.04,8.93,0.14,0.07,0.29
111,-0.84,-0.08,8.78,0.14,0.07,0.29
117,-0.80,1.04,8.66,0.14,0.07,0.29
121,-0.80,1.04,8.66,0.04,0.03,0.23
127,0.08,0.08,8.92,0.04,0.03,0.23
132,-0.65,-0.46,9.12,0.04,0.03,0.23
136,-0.65,-0.46,9.12,0.02,-0.07,0.19
141,-0.65,-0.46,9.12,0.03,-0.05,0.18
146,-1.46,-1.57,10.41,0.03,-0.05,0.18
152,-1.72,-1.11,9.96,0.03,-0.05,0.18
156,-1.72,-1.11,9.96,0.06,-0.04,0.19
162,-1.72,-1.11,9.96,0.06,-0.05,0.19
167,0.96,-0.42,10.04,0.06,-0.05,0.19
171,0.96,-0.42,10.04,0.05,-0.08,0.20
176,0.96,-0.42,10.04,0.03,-0.08,0.19
181,-1.11,-0.08,8.58,0.03,-0.08,0.19
187,-1.72,0.23,8.96,0.03,-0.08,0.19
191,-1.72,0.23,8.96,0.05,0.06,0.22
196,-1.46,1.38,10.07,0.05,0.06,0.22
201,-0.77,1.49,9.50,0.05,0.06,0.22
207,-0.46,1.38,10.57,0.05,0.06,0.22
212,-0.46,1.38,10.57,-0.03,0.04,0.19
216,-0.08,0.77,9.43,-0.03,0.04,0.19
221,-0.57,0.23,9.16,-0.03,0.04,0.19
227,-1.04,0.11,9.46,-0.03,0.04,0.19
232,0.15,-0.15,10.80,-0.03,0.04,0.19
237,-0.73,-0.27,10.77,-0.03,0.04,0.19
241,-0.73,-0.27,10.77,0.01,0.01,0.31
246,-0.73,-0.27,10.77,0.01,0.03,0.31
251,-1.80,-0.30,8.81,0.01,0.03,0.31
257,-1.88,-0.23,8.62,0.01,0.03,0.31
261,-1.88,-0.23,8.62,0.01,0.02,0.30
266,-1.19,-0.15,9.65,0.01,0.02,0.30
271,-1.11,0.34,9.77,0.01,0.02,0.30
277,-0.92,-0.34,10.15,0.01,0.02,0.30
282,-0.92,-0.34,10.15,-0.04,-0.05,0.24
287,-0.42,-1.23,9.73,-0.04,-0.05,0.24
291,-0.42,-1.23,9.73,-0.04,-0.05,0.21
296,-0.42,-1.23,9.73,-0.04,-0.04,0.20
301,-0.42,-1.23,9.73,-0.02,-0.02,0.21
307,-0.42,-0.54,9.73,-0.02,-0.02,0.21
311,-0.42,-0.54,9.73,-0.05,0.05,0.16
316,-1.04,-1.00,9.69,-0.05,0.05,0.16
321,-1.38,-1.04,8.66,-0.05,0.05,0.16
327,-0.92,-1.42,8.35,-0.05,0.05,0.16
331,-0.92,-1.42,8.35,-0.01,0.04,0.15
336,0.54,0.15,8.85,-0.01,0.04,0.15
342,0.34,0.27,8.70,-0.01,0.04,0.15
346,0.34,0.27,8.70,-0.04,-0.01,0.16
351,-0.15,-0.46,8.08,-0.04,-0.01,0.16
356,0.11,-0.73,7.89,-0.04,-0.01,0.16
361,0.11,-0.73,7.89,-0.02,-0.04,0.19
366,0.11,-0.73,7.89,-0.01,-0.04,0.21
371,0.15,0.00,10.69,-0.01,-0.04,0.21
377,-0.15,-0.23,11.07,-0.01,-0.04,0.21
381,-0.15,-0.23,11.07,-0.03,0.00,0.20
386,0.23,0.11,10.27,-0.03,0.00,0.20
392,0.73,-0.69,10.73,-0.03,0.00,0.20
396,0.73,-0.69,10.73,-0.01,0.01,0.18
401,0.73,-0.69,10.73,-0.03,0.02,0.20
406,0.38,-0.04,10.61,-0.03,0.02,0.20
412,1.30,-0.34,10.34,-0.03,0.02,0.20
416,1.30,-0.34,10.34,-0.07,0.04,0.19
421,1.30,-0.34,10.34,-0.08,0.05,0.18
427,-0.69,0.50,9.04,-0.08,0.05,0.18
431,-0.69,0.50,9.04,-0.06,0.10,0.15
436,-0.69,0.50,9.04,-0.08,0.11,0.16
441,-1.11,1.34,8.77,-0.08,0.11,0.16
447,-1.61,0.57,8.74,-0.08,0.11,0.16
451,-1.61,0.57,8.74,-0.16,0.05,0.10
456,-1.42,0.04,8.92,-0.16,0.05,0.10
461,-0.73,-0.08,8.46,-0.16,0.05,0.10
467,0.80,-1.04,8.39,-0.16,0.05,0.10
471,0.80,-1.04,8.39,-0.17,-0.21,0.08
476,3.18,-1.23,9.12,-0.17,-0.21,0.08
481,3.22,-1.19,9.23,-0.17,-0.21,0.08
487,2.64,-0.96,9.50,-0.17,-0.21,0.08
491,1.19,-1.11,10.92,-0.17,-0.21,0.08
496,0.65,-0.50,11.95,-0.17,-0.21,0.08
501,0.65,-0.50,11.95,-0.06,0.15,0.09
507,0.65,-0.50,11.95,-0.06,0.23,0.07
512,-0.38,-0.27,10.77,-0.06,0.23,0.07
516,-0.38,-0.27,10.77,-0.08,0.28,0.04
521,-0.38,-0.27,10.77,-0.09,0.23,0.02
526,0.34,0.54,8.35,-0.09,0.23,0.02
532,0.57,0.92,7.85,-0.09,0.23,0.02
536,0.57,0.92,7.85,-0.14,-0.00,0.00
541,0.57,0.92,7.85,-0.16,-0.04,-0.01
547,-1.95,0.88,8.82,-0.16,-0.04,-0.01
571,-1.95,0.88,8.82,-0.17,0.00,-0.08
580,-1.95,0.88,8.82,-0.16,0.04,-0.08
583,1.34,0.73,9.04,-0.16,0.04,-0.08
586,0.27,-0.38,9.08,-0.16,0.04,-0.08
591,0.27,-0.38,9.08,-0.15,-0.10,-0.02
596,-2.22,-0.61,9.80,-0.15,-0.10,-0.02
602,-1.84,-0.38,9.96,-0.15,-0.10,-0.02
606,-1.84,-0.38,9.96,-0.06,0.07,0.07
611,-0.27,-0.19,11.07,-0.06,0.07,0.07
617,0.30,0.50,10.96,-0.06,0.07,0.07
621,0.30,0.50,10.96,-0.09,0.06,0.03
627,0.30,0.50,10.96,-0.08,0.05,0.04
633,-0.88,-1.46,9.65,-0.08,0.05,0.04
636,-0.88,-1.46,9.65,-0.07,0.07,0.09
641,-0.88,-1.46,9.65,-0.06,0.08,0.10
648,-1.65,-1.61,9.35,-0.06,0.08,0.10
652,-2.80,-0.84,7.97,-0.06,0.08,0.10
656,-2.80,-0.84,7.97,-0.08,0.06,0.10
662,-2.80,-0.84,7.97,-0.09,0.05,0.09
667,-1.19,-0.84,7.73,-0.09,0.05,0.09
671,-1.19,-0.84,7.73,-0.11,-0.05,0.07
676,-1.19,-0.84,7.73,-0.11,-0.11,0.07
681,-1.19,-0.84,7.73,-0.09,-0.13,0.08
687,1.27,-1.38,12.48,-0.09,-0.13,0.08
692,1.27,-1.38,12.48,-0.04,-0.06,0.06
696,1.27,-1.38,12.48,-0.03,0.02,0.04
701,1.27,-1.38,12.48,-0.02,0.10,0.05
706,-0.73,-1.46,8.74,-0.02,0.10,0.05
711,-0.73,-1.46,8.74,-0.03,0.14,0.09
716,-0.73,-1.46,8.74,-0.06,0.12,0.09
722,-0.19,-0.42,8.89,-0.06,0.12,0.09
727,-0.19,-0.42,8.89,-0.11,0.03,0.04
731,-0.19,-0.42,8.89,-0.12,0.01,-0.01
737,-1.00,-0.38,8.92,-0.12,0.01,-0.01
741,-1.00,-0.38,8.92,-0.09,-0.00,0.04
746,-1.00,-0.38,8.92,-0.09,-0.01,0.07
751,-0.27,0.69,9.88,-0.09,-0.01,0.07
757,-1.34,-3.14,9.30,-0.09,-0.01,0.07
762,-1.34,-3.14,9.30,-0.07,-0.03,0.12
766,-1.34,-3.14,9.30,-0.04,-0.09,0.20
772,-0.69,0.15,9.12,-0.04,-0.09,0.20
776,-0.69,0.15,9.12,-0.07,-0.05,0.13
782,-0.69,0.15,9.12,-0.06,-0.03,0.16
788,-2.80,-0.42,10.65,-0.06,-0.03,0.16
791,-2.80,-0.42,10.65,-0.06,0.10,0.23
796,-2.80,-0.42,10.65,-0.05,0.09,0.25
801,-2.80,-0.42,10.65,-0.04,0.05,0.25
807,-0.15,-0.57,9.77,-0.04,0.05,0.25
812,-0.15,-0.57,9.77,-0.07,-0.01,0.20
816,-0.15,-0.57,9.77,-0.09,-0.02,0.20
821,-0.15,-0.57,9.77,-0.10,-0.02,0.22
827,0.08,-1.00,10.35,-0.10,-0.02,0.22
832,0.08,-1.00,10.35,-0.11,-0.00,0.16
837,0.08,-1.00,10.35,-0.12,0.03,0.14
842,-2.07,-0.69,10.04,-0.12,0.03,0.14
847,-2.07,-0.69,10.04,-0.10,0.10,0.14
852,-2.07,-0.69,10.04,-0.11,0.09,0.16
857,-0.65,1.30,8.50,-0.11,0.09,0.16
862,-0.65,1.30,8.50,-0.16,0.03,0.17
866,-0.65,1.30,8.50,-0.17,-0.02,0.13
871,-0.54,-0.50,8.62,-0.17,-0.02,0.13
877,-1.19,-0.73,9.04,-0.17,-0.02,0.13
882,-1.19,-0.73,9.04,-0.16,-0.04,0.14
887,-1.19,-0.73,9.04,-0.16,-0.04,0.15
893,-0.65,-0.65,9.35,-0.16,-0.04,0.15
896,-0.65,-0.65,9.35,-0.17,-0.04,0.10
902,-0.65,-0.65,9.35,-0.18,-0.06,0.06
907,2.11,-0.08,11.41,-0.18,-0.06,0.06
912,2.03,-0.57,11.38,-0.18,-0.06,0.06
916,2.03,-0.57,11.38,-0.15,0.04,-0.04
921,2.03,-0.57,11.38,-0.15,0.14,-0.05
927,-1.49,-0.11,9.31,-0.15,0.14,-0.05
932,-1.49,-0.11,9.31,-0.16,0.26,-0.03
936,-1.49,-0.11,9.31,-0.17,0.24,-0.04
941,-1.49,-0.11,9.31,-0.19,0.18,-0.03
947,0.11,0.92,7.93,-0.19,0.18,-0.03
951,0.11,0.92,7.93,-0.21,-0.01,-0.03
956,0.11,0.92,7.93,-0.22,-0.08,-0.03
961,0.11,0.92,7.93,-0.21,-0.11,-0.03
967,-0.23,-1.00,10.54,-0.21,-0.11,-0.03
971,-0.23,-1.00,10.54,-0.16,-0.05,0.02
976,-0.23,-1.00,10.54,-0.14,-0.00,0.04
982,-2.03,-0.84,9.20,-0.14,-0.00,0.04
986,-2.03,-0.84,9.20,-0.15,0.04,0.04
991,-2.03,-0.84,9.20,-0.17,0.02,0.04
997,1.65,-0.77,8.92,-0.17,0.02,0.04
1001,1.65,-0.77,8.92,-0.20,-0.07,-0.00
1007,1.65,-0.77,8.92,-0.18,-0.06,-0.04
1013,-1.00,-1.80,9.34,-0.18,-0.06,-0.04
1016,-1.00,-1.80,9.34,-0.14,0.04,0.00
1022,-1.00,-1.80,9.34,-0.13,0.10,0.07
1026,-1.00,-1.80,9.34,-0.11,0.11,0.10
1032,-0.57,0.46,9.93,-0.11,0.11,0.10
1036,-0.57,0.46,9.93,-0.14,0.07,-0.01
1042,-0.57,0.46,9.93,-0.14,0.03,-0.04
1047,0.19,-0.42,9.73,-0.14,0.03,-0.04
1051,0.19,-0.42,9.73,-0.14,0.01,0.04
1056,0.19,-0.42,9.73,-0.14,0.02,0.05
1061,0.19,-0.42,9.73,-0.15,0.04,0.04
1067,-3.75,1.38,7.55,-0.15,0.04,0.04
1071,-3.75,1.38,7.55,-0.20,0.08,0.03
1076,-3.75,1.38,7.55,-0.22,0.06,0.04
1081,-3.75,1.38,7.55,-0.24,0.01,0.04
1087,-0.11,1.38,10.00,-0.24,0.01,0.04
1091,-0.11,1.38,10.00,-0.25,-0.12,-0.02
1096,-0.11,1.38,10.00,-0.20,-0.15,-0.04
1103,1.34,-0.88,13.03,-0.20,-0.15,-0.04
1106,1.34,-0.88,13.03,-0.16,-0.04,-0.07
1111,1.34,-0.88,13.03,-0.15,0.05,-0.06
1117,-1.61,0.57,9.42,-0.15,0.05,-0.06
1121,-1.61,0.57,9.42,-0.20,0.21,-0.06
1127,-1.61,0.57,9.42,-0.23,0.24,-0.08
1131,-2.18,2.03,7.82,-0.23,0.24,-0.08
1137,-1.76,1.68,8.32,-0.23,0.24,-0.08
1141,-1.76,1.68,8.32,-0.34,0.11,-0.16
1146,-1.76,1.68,8.32,-0.31,0.04,-0.16
1152,-0.11,-1.49,9.93,-0.31,0.04,-0.16
1156,-0.11,-1.49,9.93,-0.24,-0.06,-0.07
1161,-0.11,-1.49,9.93,-0.21,-0.08,-0.04
1166,-0.65,-0.92,9.04,-0.21,-0.08,-0.04
1172,-0.61,-0.65,9.27,-0.21,-0.08,-0.04
1176,-0.61,-0.65,9.27,-0.21,-0.03,-0.08
1181,-0.61,-0.65,9.27,-0.21,-0.01,-0.08
1187,-0.54,0.15,9.46,-0.21,-0.01,-0.08
1191,-0.54,0.15,9.46,-0.23,0.05,-0.07
1196,-0.54,0.15,9.46,-0.26,0.08,-0.10
1201,-0.54,0.15,9.46,-0.27,0.10,-0.14
1207,-0.19,-0.46,9.46,-0.27,0.10,-0.14
1211,-0.19,-0.46,9.46,-0.25,0.08,-0.17
1216,-0.19,-0.46,9.46,-0.24,0.07,-0.14
1222,0.27,-0.50,9.65,-0.24,0.07,-0.14
1226,0.27,-0.50,9.65,-0.21,0.06,-0.07
1231,0.27,-0.50,9.65,-0.21,0.07,-0.06
1236,1.72,-0.27,10.23,-0.21,0.07,-0.06
1243,1.04,-0.23,10.15,-0.21,0.07,-0.06
1246,1.04,-0.23,10.15,-0.21,0.06,-0.09
1251,-1.53,-0.42,9.20,-0.21,0.06,-0.09
1257,-2.26,0.46,8.50,-0.21,0.06,-0.09
1261,-2.26,0.46,8.50,-0.19,0.15,-0.02
1267,-2.26,0.46,8.50,-0.21,0.14,0.02
1272,0.04,1.53,8.23,-0.21,0.14,0.02
1276,0.04,1.53,8.23,-0.27,0.03,-0.05
1281,0.04,1.53,8.23,-0.28,-0.02,-0.11
1286,0.04,1.53,8.23,-0.28,-0.05,-0.12
1292,-1.46,-1.38,8.89,-0.28,-0.05,-0.12
1296,-1.46,-1.38,8.89,-0.27,-0.04,-0.06
1301,-1.46,-1.38,8.89,-0.24,-0.04,-0.04
1307,1.68,-0.34,11.04,-0.24,-0.04,-0.04
1312,1.68,-0.34,11.04,-0.24,-0.03,-0.10
1317,1.68,-0.34,11.04,-0.21,-0.01,-0.17
1321,1.68,-0.34,11.04,-0.20,0.04,-0.22
1327,-0.30,-0.11,10.15,-0.20,0.04,-0.22
1331,-0.30,-0.11,10.15,-0.23,0.21,-0.25
1336,-0.30,-0.11,10.15,-0.24,0.23,-0.26
1342,-0.69,1.30,8.39,-0.24,0.23,-0.26
1346,-0.69,1.30,8.39,-0.31,0.19,-0.34
1352,-0.69,1.30,8.39,-0.32,0.11,-0.37
1356,1.27,0.73,9.69,-0.32,0.11,-0.37
1363,2.03,0.30,9.58,-0.32,0.11,-0.37
1366,2.03,0.30,9.58,-0.33,-0.05,-0.46
1371,2.03,0.30,9.58,-0.31,-0.03,-0.48
1377,0.27,-0.27,9.89,-0.31,-0.03,-0.48
1381,0.27,-0.27,9.89,-0.30,0.07,-0.48
1386,0.27,-0.27,9.89,-0.30,0.11,-0.49
1391,-1.46,1.57,8.20,-0.30,0.11,-0.49
2342,-0.30,1.00,8.12,-0.30,0.11,-0.49
2353,-0.30,1.00,8.12,-0.32,0.06,-0.45
2356,-0.30,1.00,8.12,-0.22,0.08,-1.01
2357,-1.38,-0.80,12.87,-0.22,0.08,-1.01
2361,-6.66,0.27,14.02,-0.22,0.08,-1.01
2366,-6.66,0.27,14.02,-0.12,0.27,-0.59
2371,-6.66,0.27,14.02,-0.08,0.37,-0.58
2376,-6.66,0.27,14.02,-0.04,0.36,-0.60
2383,10.23,4.48,13.45,-0.04,0.36,-0.60
2386,10.23,4.48,13.45,-0.04,-0.25,-0.63
2391,10.23,4.48,13.45,-0.08,-0.43,-0.77
2396,10.23,4.48,13.45,-0.09,-0.58,-0.84
2402,10.23,4.48,13.45,-0.05,-0.67,-0.77
2406,10.23,4.48,13.45,-0.10,-0.62,-0.63
2411,10.23,4.48,13.45,-0.16,-0.47,-0.54
2417,0.19,-1.23,11.72,-0.16,-0.47,-0.54
2421,0.19,-1.23,11.72,-0.14,0.05,-0.72
2426,0.19,-1.23,11.72,-0.24,0.45,-0.97
2432,0.19,-1.23,11.72,-0.16,0.59,-1.09
2436,0.19,-1.23,11.72,-0.06,0.59,-1.14
2441,0.19,-1.23,11.72,-0.00,0.53,-1.12
2446,0.19,-1.23,11.72,0.02,0.40,-1.05
2452,-1.23,-5.79,5.75,0.02,0.40,-1.05
2456,-1.23,-5.79,5.75,0.01,0.20,-0.89
2461,-1.23,-5.79,5.75,0.02,0.17,-0.87
2467,-1.23,-5.79,5.75,0.04,0.20,-0.88
2471,-1.23,-5.79,5.75,0.07,0.29,-0.90
2476,-1.23,-5.79,5.75,0.10,0.35,-0.86
2481,-1.23,-5.79,5.75,0.16,0.34,-0.79
2487,-5.25,11.49,11.49,0.16,0.34,-0.79
2491,-5.25,11.49,11.49,0.08,0.36,-0.65
2496,-5.25,11.49,11.49,0.07,0.28,-0.52
2502,0.00,-1.80,5.66,0.07,0.28,-0.52
2506,0.00,-1.80,5.66,0.10,0.04,-0.41
2512,0.00,-1.80,5.66,0.15,0.04,-0.35
2516,0.00,-1.80,5.66,0.21,0.11,-0.19
2521,-6.02,-3.60,13.53,0.21,0.11,-0.19
2526,-6.02,-3.60,13.53,0.30,0.21,0.03
2531,-6.02,-3.60,13.53,0.41,0.27,0.30
2537,-2.64,1.27,13.37,0.41,0.27,0.30
2541,-2.64,1.27,13.37,0.29,0.32,0.01
2546,-2.64,1.27,13.37,0.26,0.38,-0.14
2552,-2.64,1.27,13.37,0.23,0.38,-0.15
2557,-2.41,-8.39,6.47,0.23,0.38,-0.15
2561,-2.41,-8.39,6.47,0.19,0.23,0.05
2566,-2.41,-8.39,6.47,0.15,0.12,0.06
2572,3.10,-4.37,11.19,0.15,0.12,0.06
2576,3.10,-4.37,11.19,0.12,-0.07,-0.09
2581,3.10,-4.37,11.19,0.16,-0.09,-0.21
2587,3.10,-4.37,11.19,0.24,-0.02,-0.30
2592,3.22,-6.32,10.54,0.24,-0.02,-0.30
2596,3.22,-6.32,10.54,0.40,0.17,-0.17
2601,3.22,-6.32,10.54,0.43,0.27,-0.00
2607,1.19,-1.00,9.85,0.43,0.27,-0.00
2611,1.19,-1.00,9.85,0.43,0.37,0.22
2616,1.19,-1.00,9.85,0.36,0.33,0.22
2621,1.19,-1.00,9.85,0.25,0.24,0.14
2627,2.03,0.04,7.66,0.25,0.24,0.14
2632,2.03,0.04,7.66,0.17,0.08,-0.08
2636,2.03,0.04,7.66,0.17,0.03,-0.07
2642,-1.00,-2.26,7.77,0.17,0.03,-0.07
2646,-1.00,-2.26,7.77,0.18,0.02,0.11
2651,-1.00,-2.26,7.77,0.18,0.01,0.16
2656,-1.00,-2.26,7.77,0.18,0.00,0.12
2662,0.92,2.30,9.96,0.18,0.00,0.12
2666,0.92,2.30,9.96,0.12,-0.00,-0.05
2671,0.92,2.30,9.96,0.11,-0.00,-0.07
2677,-1.76,-0.34,8.04,0.11,-0.00,-0.07
2681,-1.76,-0.34,8.04,0.10,0.05,-0.00
2686,-1.76,-0.34,8.04,0.09,0.07,0.04
2692,-1.76,-0.34,8.04,0.04,0.10,0.03
2696,-1.76,-0.34,8.04,-0.03,0.10,-0.03
2701,-1.76,-0.34,8.04,-0.06,0.06,-0.08
2707,-1.76,-0.34,8.04,-0.09,-0.01,-0.13
2712,1.19,1.27,13.33,-0.09,-0.01,-0.13
2717,1.19,1.27,13.33,-0.07,-0.10,-0.24
2721,1.19,1.27,13.33,-0.04,-0.06,-0.29
2727,1.19,1.27,13.33,-0.01,0.04,-0.33
2731,1.19,1.27,13.33,-0.02,0.14,-0.34
2736,1.19,1.27,13.33,-0.04,0.22,-0.35
2742,1.19,1.27,13.33,-0.07,0.28,-0.40
2747,-4.64,1.11,7.51,-0.07,0.28,-0.40
2752,-4.64,1.11,7.51,-0.14,0.36,-0.56
2756,-4.64,1.11,7.51,-0.15,0.29,-0.59
2762,1.84,4.67,8.12,-0.15,0.29,-0.59
2766,1.84,4.67,8.12,-0.29,0.06,-0.78
2771,1.84,4.67,8.12,-0.32,0.01,-0.93
2777,1.84,4.67,8.12,-0.36,0.01,-1.07
2782,0.46,-2.76,11.57,-0.36,0.01,-1.07
2786,0.46,-2.76,11.57,-0.34,0.10,-1.14
2791,0.46,-2.76,11.57,-0.29,0.13,-1.11
2797,-0.11,-1.91,10.54,-0.29,0.13,-1.11
2801,-0.11,-1.91,10.54,-0.25,0.22,-1.14
2806,-0.11,-1.91,10.54,-0.22,0.23,-1.11
2811,-0.11,-1.91,10.54,-0.21,0.27,-1.10
2817,-0.77,0.80,13.53,-0.21,0.27,-1.10
2821,-0.77,0.80,13.53,-0.13,0.44,-1.08
2826,-0.77,0.80,13.53,-0.08,0.55,-1.06
2832,-4.48,1.84,12.48,-0.08,0.55,-1.06
2836,-4.48,1.84,12.48,-0.06,0.62,-0.91
2841,-4.48,1.84,12.48,-0.06,0.51,-0.81
2846,-4.48,1.84,12.48,-0.14,0.37,-0.78
2852,-1.80,0.46,3.95,-0.14,0.37,-0.78
2856,-1.80,0.46,3.95,-0.18,0.06,-0.74
2862,-1.80,0.46,3.95,-0.18,-0.02,-0.65
2867,-4.14,-2.72,8.62,-0.18,-0.02,-0.65
2871,-4.14,-2.72,8.62,-0.06,-0.03,-0.38
2876,-4.14,-2.72,8.62,0.01,-0.01,-0.26
2882,-4.14,-2.72,8.62,0.04,0.04,-0.19
2886,-4.14,-2.72,8.62,0.05,0.07,-0.14
2892,-4.14,-2.72,8.62,0.04,0.04,-0.12
2896,-4.14,-2.72,8.62,0.08,0.01,-0.13
2902,-2.11,-4.18,9.42,0.08,0.01,-0.13
2906,-2.11,-4.18,9.42,0.00,0.05,-0.17
2911,-2.11,-4.18,9.42,0.06,0.04,-0.05
2916,-4.06,-1.91,8.96,0.06,0.04,-0.05
2922,-2.84,-3.98,9.88,0.06,0.04,-0.05
2926,-2.84,-3.98,9.88,-0.07,0.14,-0.15
2931,-2.84,-3.98,9.88,-0.07,0.10,-0.25
2937,3.37,-3.83,12.83,-0.07,0.10,-0.25
2941,3.37,-3.83,12.83,0.03,0.11,-0.43
2946,3.37,-3.83,12.83,0.09,0.15,-0.44
2952,-0.38,-6.63,8.20,0.09,0.15,-0.44
2956,-0.38,-6.63,8.20,0.10,0.29,-0.30
2961,-0.38,-6.63,8.20,0.09,0.31,-0.23
2966,-0.38,-6.63,8.20,0.07,0.33,-0.22
2972,1.30,0.04,10.84,0.07,0.33,-0.22
2977,1.30,0.04,10.84,0.04,0.28,-0.34
2981,1.30,0.04,10.84,0.04,0.22,-0.41
2987,0.30,-0.54,11.68,0.04,0.22,-0.41
2991,0.30,-0.54,11.68,0.03,0.17,-0.47
2996,0.30,-0.54,11.68,0.06,0.20,-0.42
3001,0.30,-0.54,11.68,0.05,0.24,-0.34
3007,-2.72,-0.96,8.27,0.05,0.24,-0.34
3011,-2.72,-0.96,8.27,0.04,0.26,-0.19
3016,-2.72,-0.96,8.27,0.01,0.19,-0.16
3021,-2.72,-0.96,8.27,-0.02,0.09,-0.18
3026,-0.54,3.41,8.70,-0.02,0.09,-0.18
3031,-0.54,3.41,8.70,-0.10,-0.07,-0.29
3037,-0.54,3.41,8.70,-0.09,-0.09,-0.29
3042,-0.15,-0.57,9.43,-0.09,-0.09,-0.29
3046,-0.15,-0.57,9.43,-0.07,-0.11,-0.15
3051,-0.15,-0.57,9.43,-0.07,-0.10,-0.13
3057,3.60,1.11,10.65,-0.07,-0.10,-0.13
3062,3.60,1.11,10.65,-0.10,-0.11,-0.27
3066,3.60,1.11,10.65,-0.14,-0.07,-0.39
3071,0.73,0.11,9.20,-0.14,-0.07,-0.39
3077,-0.65,-0.80,8.82,-0.14,-0.07,-0.39
3081,-0.65,-0.80,8.82,-0.20,0.21,-0.57
3087,-0.65,-0.80,8.82,-0.22,0.31,-0.56
3092,-3.87,1.15,5.82,-0.22,0.31,-0.56
3096,-3.87,1.15,5.82,-0.24,0.40,-0.61
3101,-3.87,1.15,5.82,-0.26,0.36,-0.66
3106,-1.80,1.00,10.77,-0.26,0.36,-0.66
3112,0.77,-0.23,13.60,-0.26,0.36,-0.66
3116,0.77,-0.23,13.60,-0.15,0.07,-0.70
3121,0.77,-0.23,13.60,-0.13,-0.01,-0.73
3127,1.04,-2.14,15.44,-0.13,-0.01,-0.73
3131,1.04,-2.14,15.44,-0.10,0.10,-0.87
3136,1.04,-2.14,15.44,-0.12,0.21,-0.90
3142,1.04,-2.14,15.44,-0.16,0.34,-0.89
3146,1.04,-2.14,15.44,-0.18,0.42,-0.88
3151,1.04,-2.14,15.44,-0.25,0.45,-0.92
3157,1.04,-2.14,15.44,-0.32,0.45,-1.02
3162,1.04,-2.14,15.44,-0.34,0.43,-1.12
3166,1.04,-2.14,15.44,-0.30,0.40,-1.20
3171,1.04,-2.14,15.44,-0.26,0.40,-1.21
3177,-1.27,-1.38,12.76,-0.26,0.40,-1.21
3181,-1.27,-1.38,12.76,-0.13,0.38,-1.02
3186,-1.27,-1.38,12.76,-0.12,0.33,-0.93
3192,-1.27,-1.38,12.76,-0.10,0.25,-0.89
3196,-1.27,-1.38,12.76,-0.12,0.19,-0.94
3201,-1.27,-1.38,12.76,-0.16,0.17,-1.03
3206,-1.27,-1.38,12.76,-0.19,0.19,-1.07
3212,-3.68,0.96,8.66,-0.19,0.19,-1.07
3216,-3.68,0.96,8.66,-0.21,0.39,-0.96
3221,-3.68,0.96,8.66,-0.23,0.48,-0.87
3226,-3.68,0.96,8.66,-0.23,0.51,-0.81
3232,-2.14,2.30,10.80,-0.23,0.51,-0.81
3236,-2.14,2.30,10.80,-0.23,0.40,-0.86
3242,-2.14,2.30,10.80,-0.19,0.29,-0.91
3247,1.23,-1.68,11.15,-0.19,0.29,-0.91
3251,1.23,-1.68,11.15,-0.10,0.10,-0.81
3256,1.23,-1.68,11.15,-0.07,0.09,-0.72
3262,1.23,-1.68,11.15,-0.05,0.12,-0.60
3266,1.23,-1.68,11.15,-0.07,0.15,-0.52
3271,1.23,-1.68,11.15,-0.07,0.20,-0.49
3276,1.23,-1.68,11.15,-0.09,0.26,-0.54
3281,1.23,-1.68,11.15,-0.10,0.32,-0.62
3286,-1.11,0.38,10.80,-0.10,0.32,-0.62
3291,-1.11,0.38,10.80,-0.12,0.49,-0.73
3297,-1.11,0.38,10.80,-0.11,0.57,-0.69
3302,-6.51,-2.91,3.95,-0.11,0.57,-0.69
3306,-6.51,-2.91,3.95,-0.06,0.57,-0.40
3311,-6.51,-2.91,3.95,-0.04,0.44,-0.24
3317,-2.68,-0.27,6.44,-0.04,0.44,-0.24
3321,-2.68,-0.27,6.44,-0.06,0.07,-0.16
3326,-2.68,-0.27,6.44,-0.05,-0.11,-0.23
3332,1.27,-2.53,11.03,-0.05,-0.11,-0.23
3336,1.27,-2.53,11.03,0.06,-0.24,-0.29
3341,1.27,-2.53,11.03,0.08,-0.17,-0.23
3346,1.27,-2.53,11.03,0.12,-0.06,-0.09
3352,-0.77,-2.26,7.43,0.12,-0.06,-0.09
3356,-0.77,-2.26,7.43,0.01,0.07,0.04
3361,-0.77,-2.26,7.43,-0.02,0.07,-0.01
3367,6.59,-1.57,16.74,-0.02,0.07,-0.01
3371,6.59,-1.57,16.74,-0.03,0.09,-0.29
3376,6.59,-1.57,16.74,0.01,0.15,-0.47
3381,6.59,-1.57,16.74,0.03,0.28,-0.60
3387,-2.87,-4.98,9.08,0.03,0.28,-0.60
3391,-2.87,-4.98,9.08,0.03,0.57,-0.57
3396,-2.87,-4.98,9.08,0.03,0.62,-0.45
3402,-2.87,-4.98,9.08,0.01,0.61,-0.33
3406,-2.87,-4.98,9.08,-0.04,0.50,-0.30
3411,-2.87,-4.98,9.08,-0.07,0.30,-0.38
3416,-2.87,-4.98,9.08,-0.10,0.09,-0.53
3422,-2.87,-4.98,9.08,-0.07,-0.06,-0.71
3426,-2.87,-4.98,9.08,-0.03,-0.13,-0.80
3431,-2.87,-4.98,9.08,0.05,-0.13,-0.76
3437,0.46,-3.41,11.15,0.05,-0.13,-0.76
3441,0.46,-3.41,11.15,0.07,0.01,-0.50
3446,0.46,-3.41,11.15,0.03,0.12,-0.52
3452,0.46,-3.41,11.15,-0.05,0.19,-0.65
3456,0.46,-3.41,11.15,-0.10,0.20,-0.86
3461,0.46,-3.41,11.15,-0.13,0.19,-1.04
3466,0.46,-3.41,11.15,-0.14,0.19,-1.16
3472,0.11,-1.68,10.54,-0.14,0.19,-1.16
3476,0.11,-1.68,10.54,-0.09,0.20,-1.16
3481,0.11,-1.68,10.54,-0.11,0.22,-1.17
3487,0.11,-1.68,10.54,-0.12,0.25,-1.23
3491,0.11,-1.68,10.54,-0.18,0.26,-1.33
3496,0.11,-1.68,10.54,-0.23,0.26,-1.41
3501,0.11,-1.68,10.54,-0.26,0.23,-1.45
3507,4.21,5.32,13.37,-0.26,0.23,-1.45
3511,4.21,5.32,13.37,-0.26,0.09,-1.46
3516,4.21,5.32,13.37,-0.25,0.08,-1.52
3522,4.21,5.32,13.37,-0.22,0.15,-1.60
3526,4.21,5.32,13.37,-0.20,0.31,-1.61
3531,4.21,5.32,13.37,-0.23,0.51,-1.57
3536,4.21,5.32,13.37,-0.21,0.64,-1.47
3541,4.21,5.32,13.37,-0.22,0.73,-1.36
3546,-2.07,5.29,9.73,-0.22,0.73,-1.36
3551,-2.07,5.29,9.73,-0.24,0.68,-1.25
3557,-2.07,5.29,9.73,-0.24,0.58,-1.29
3561,-2.07,5.29,9.73,-0.18,0.45,-1.34
3566,-2.07,5.29,9.73,-0.14,0.32,-1.33
3571,-2.07,5.29,9.73,-0.06,0.26,-1.27
3577,-4.10,-5.94,13.37,-0.06,0.26,-1.27
3581,-4.10,-5.94,13.37,0.01,0.35,-1.11
3586,-4.10,-5.94,13.37,0.07,0.37,-1.04
3592,-1.57,-2.11,15.52,0.07,0.37,-1.04
3596,-1.57,-2.11,15.52,0.06,0.40,-1.06
3601,-1.57,-2.11,15.52,0.05,0.29,-1.05
3606,-1.57,-2.11,15.52,-0.02,0.22,-1.09
3612,2.87,-7.62,7.93,-0.02,0.22,-1.09
3617,2.87,-7.62,7.93,-0.01,0.30,-1.20
3621,-5.67,-8.35,10.07,-0.01,0.30,-1.20
3626,-5.67,-8.35,10.07,0.14,0.57,-0.97
3631,-5.67,-8.35,10.07,0.28,0.71,-0.78
3636,-5.67,-8.35,10.07,0.40,0.76,-0.58
3642,-5.67,-8.35,10.07,0.42,0.73,-0.49
3646,-5.67,-8.35,10.07,0.46,0.66,-0.51
3652,-5.67,-8.35,10.07,0.47,0.56,-0.57
3656,-5.67,-8.35,10.07,0.46,0.46,-0.57
3662,-5.67,-8.35,10.07,0.48,0.41,-0.47
3666,-5.67,-8.35,10.07,0.50,0.39,-0.28
3671,-5.67,-8.35,10.07,0.52,0.38,-0.04
3676,-5.67,-8.35,10.07,0.56,0.39,0.14
3682,-5.67,-8.35,10.07,0.57,0.42,0.18
3686,-5.67,-8.35,10.07,0.56,0.46,0.15
3692,-5.67,-8.35,10.07,0.57,0.48,0.10
3697,-5.67,-8.35,10.07,0.55,0.44,0.04
3701,-1.38,-5.29,6.05,0.55,0.44,0.04
3706,-1.38,-5.29,6.05,0.60,0.25,0.11
3712,-1.38,-5.29,6.05,0.60,0.12,0.27
3717,-1.38,-5.29,6.05,0.62,0.03,0.42
3721,-0.34,0.08,10.57,0.62,0.03,0.42
3726,-0.34,0.08,10.57,0.58,0.02,0.39
3732,-2.11,1.38,10.15,0.58,0.02,0.39
3736,-2.11,1.38,10.15,0.46,0.22,0.05
3741,-2.11,1.38,10.15,0.45,0.31,-0.02
3747,-2.11,1.38,10.15,0.39,0.36,-0.02
3752,-2.11,1.38,10.15,0.35,0.35,0.02
3756,2.45,1.27,8.35,0.35,0.35,0.02
3761,2.45,1.27,8.35,0.32,0.20,-0.03
3767,2.99,1.04,9.43,0.32,0.20,-0.03
3771,2.99,1.04,9.43,0.30,0.10,-0.22
3776,2.99,1.04,9.43,0.25,0.13,-0.29
3781,2.99,1.04,9.43,0.24,0.17,-0.30
3786,-2.14,-0.19,8.04,0.24,0.17,-0.30
3792,-2.14,-0.19,8.04,0.26,0.20,-0.30
3797,-2.14,-0.19,8.04,0.20,0.22,-0.41
3802,-2.14,-0.19,8.04,0.20,0.18,-0.48
3806,2.14,0.23,8.62,0.20,0.18,-0.48
3811,2.14,0.23,8.62,0.12,0.10,-0.64
3816,2.14,0.23,8.62,0.09,0.07,-0.72
3821,2.18,-2.76,10.03,0.09,0.07,-0.72
3826,2.18,-2.76,10.03,0.13,0.12,-0.77
3831,2.18,-2.76,10.03,0.14,0.19,-0.75
3836,2.18,-2.76,10.03,0.15,0.26,-0.76
3841,2.18,-2.76,10.03,0.16,0.29,-0.80
3847,2.18,-2.76,10.03,0.15,0.32,-0.88
3852,2.18,-2.76,10.03,0.14,0.34,-0.96
3856,-0.30,0.08,8.84,0.14,0.34,-0.96
3861,-1.57,-0.08,8.66,0.14,0.34,-0.96
3867,-1.57,-0.08,8.66,0.14,0.36,-0.86
3872,-1.57,-0.08,8.66,0.14,0.35,-0.79
3876,-1.00,-0.19,8.36,0.14,0.35,-0.79
3881,-1.00,-0.19,8.36,0.10,0.20,-0.72
3887,1.15,1.23,11.34,0.10,0.20,-0.72
3892,1.15,1.23,11.34,0.16,0.03,-0.75
3896,2.84,-2.14,13.87,0.16,0.03,-0.75
3901,1.91,-1.19,14.06,0.16,0.03,-0.75
3906,1.91,-1.19,14.06,0.27,0.04,-0.78
3911,1.91,-1.19,14.06,0.31,0.15,-0.75
3916,1.91,-1.19,14.06,0.29,0.27,-0.69
3922,1.91,-1.19,14.06,0.26,0.36,-0.64
3926,-0.19,1.46,8.20,0.26,0.36,-0.64
3931,0.57,1.46,8.66,0.26,0.36,-0.64
3936,0.57,1.46,8.66,0.12,0.30,-0.78
3942,0.57,1.46,8.66,0.12,0.22,-0.84
3947,0.57,1.46,8.66,0.15,0.21,-0.85
3952,-0.46,-1.76,11.11,0.15,0.21,-0.85
3956,-1.61,-2.76,10.99,0.15,0.21,-0.85
3961,0.11,-1.61,11.92,0.15,0.21,-0.85
3966,0.11,-1.61,11.92,0.31,0.21,-0.57
3972,0.11,-1.61,11.92,0.33,0.16,-0.57
3977,0.11,-1.61,11.92,0.32,0.13,-0.62
3981,0.96,-2.26,9.27,0.32,0.13,-0.62
3986,-0.73,-2.57,9.54,0.32,0.13,-0.62
3992,-0.73,-2.57,9.54,0.35,0.21,-0.54
3996,-1.61,-3.07,9.38,0.35,0.21,-0.54
4001,-2.38,-1.99,8.50,0.35,0.21,-0.54
4007,-2.38,-1.99,8.50,0.34,0.35,-0.45
4012,-2.38,-1.99,8.50,0.31,0.36,-0.47
4016,-1.15,-2.61,11.19,0.31,0.36,-0.47
4021,-2.87,-2.64,11.15,0.31,0.36,-0.47
4027,-2.87,-2.64,11.15,0.41,0.26,-0.35
4031,-0.69,-2.80,10.04,0.41,0.26,-0.35
4036,-3.18,-2.14,9.88,0.41,0.26,-0.35
4041,-3.18,-2.14,9.88,0.46,0.20,-0.16
4046,-3.18,-2.14,9.88,0.47,0.18,-0.09
4051,-3.18,-2.14,9.88,0.48,0.14,-0.01
4057,-3.18,-2.14,9.88,0.47,0.14,0.01
4062,-3.18,-2.14,9.88,0.44,0.18,0.00
4066,-3.10,0.27,9.69,0.44,0.18,0.00
4071,-4.86,-0.42,8.77,0.44,0.18,0.00
4077,-4.86,-0.42,8.77,0.42,0.28,0.05
4082,-4.86,-0.42,8.77,0.41,0.29,0.11
4086,-4.37,-2.22,6.79,0.41,0.29,0.11
4091,-2.80,-2.18,6.74,0.41,0.29,0.11
4096,-2.80,-2.18,6.74,0.39,0.09,0.27
4101,-2.80,-2.18,6.74,0.40,-0.02,0.26
4106,-2.80,-2.18,6.74,0.38,-0.10,0.25
4112,-2.80,-2.18,6.74,0.40,-0.13,0.25
4116,-0.42,-0.77,12.38,0.40,-0.13,0.25
4121,-3.71,-0.73,9.50,0.40,-0.13,0.25
4127,-3.71,-0.73,9.50,0.39,0.03,0.20
4132,-3.71,-0.73,9.50,0.35,0.14,0.19
4136,-3.60,0.92,7.70,0.35,0.14,0.19
4141,-1.19,0.69,8.70,0.35,0.14,0.19
4147,-1.19,0.69,8.70,0.25,0.24,0.12
4151,-0.80,0.73,8.50,0.25,0.24,0.12
4156,-0.27,0.19,9.84,0.25,0.24,0.12
4162,-0.27,0.19,9.84,0.21,0.08,-0.05
4167,-0.27,0.19,9.84,0.19,0.06,-0.06
4171,-2.26,0.00,10.00,0.19,0.06,-0.06
4176,-1.00,-0.19,8.96,0.19,0.06,-0.06
4182,-1.00,-0.19,8.96,0.16,0.09,-0.07
4186,-0.92,1.38,9.73,0.16,0.09,-0.07
4191,0.23,0.69,9.69,0.16,0.09,-0.07
4196,0.23,0.69,9.69,0.08,0.04,-0.23
4202,0.23,0.69,9.69,0.08,0.02,-0.27
4207,0.23,0.69,9.69,0.04,0.00,-0.31
4212,1.04,0.77,8.62,0.04,0.00,-0.31
4216,0.30,1.15,10.39,0.04,0.00,-0.31
4221,0.54,-0.19,11.26,0.04,0.00,-0.31
4226,0.54,-0.19,11.26,0.03,0.12,-0.45
4232,0.54,-0.19,11.26,0.03,0.12,-0.47
4236,2.72,-0.19,12.03,0.03,0.12,-0.47
4241,2.18,-0.08,11.46,0.03,0.12,-0.47
4247,2.18,-0.08,11.46,0.00,0.13,-0.74
4252,2.18,-0.08,11.46,0.01,0.17,-0.77
4256,0.34,0.73,8.16,0.01,0.17,-0.77
4261,-1.15,1.38,7.12,0.01,0.17,-0.77
4266,-1.65,1.19,7.09,0.01,0.17,-0.77
4271,0.54,0.80,7.24,0.01,0.17,-0.77
4276,1.19,1.23,9.54,0.01,0.17,-0.77
4282,1.19,1.23,9.54,-0.11,0.05,-0.90
4287,1.19,1.23,9.54,-0.09,-0.02,-0.92
4291,6.51,-2.11,17.54,-0.09,-0.02,-0.92
4296,4.10,-2.11,16.55,-0.09,-0.02,-0.92
4302,4.10,-2.11,16.55,0.08,0.02,-0.99
4307,4.10,-2.11,16.55,0.10,0.19,-1.04
4311,-1.84,0.00,8.46,0.10,0.19,-1.04
4316,-2.84,2.61,5.98,0.10,0.19,-1.04
4322,-1.99,3.64,5.74,0.10,0.19,-1.04
4326,0.69,4.48,6.47,0.10,0.19,-1.04
4331,1.72,2.91,7.85,0.10,0.19,-1.04
4337,1.72,2.91,7.85,-0.12,0.22,-1.03
4342,1.72,2.91,7.85,-0.09,0.14,-1.08
4346,1.07,-2.26,12.57,-0.09,0.14,-1.08
4351,-1.57,-1.34,12.10,-0.09,0.14,-1.08
4357,-1.57,-1.34,12.10,0.16,0.07,-0.79
4361,1.11,0.69,11.60,0.16,0.07,-0.79
4366,0.46,2.41,10.61,0.16,0.07,-0.79
4371,0.46,2.41,10.61,0.21,0.13,-0.58
4376,0.61,2.64,8.88,0.21,0.13,-0.58
4381,0.04,2.38,8.46,0.21,0.13,-0.58
4386,-0.46,0.19,8.62,0.21,0.13,-0.58
4392,-0.46,0.19,8.62,0.07,0.19,-0.60
4396,-2.84,-1.42,11.26,0.07,0.19,-0.60
4401,-3.33,-0.69,10.80,0.07,0.19,-0.60
4407,-3.33,-0.69,10.80,0.14,0.29,-0.42
4411,-1.61,-1.65,11.45,0.14,0.29,-0.42
4416,-1.68,-2.61,10.27,0.14,0.29,-0.42
4422,-2.14,-1.57,9.04,0.14,0.29,-0.42
4426,-1.49,-2.53,9.50,0.14,0.29,-0.42
4431,-2.76,-2.87,9.20,0.14,0.29,-0.42
4436,-3.64,-2.87,9.20,0.14,0.29,-0.42
4442,-2.57,-3.14,9.27,0.14,0.29,-0.42
4446,-3.37,-2.57,8.43,0.14,0.29,-0.42
4451,-2.41,-2.72,8.85,0.14,0.29,-0.42
4456,-1.95,-2.34,8.46,0.14,0.29,-0.42
4461,-0.96,-1.91,8.70,0.14,0.29,-0.42
4466,-0.96,-1.91,8.70,0.25,0.11,-0.19
4472,-0.96,-1.91,8.70,0.28,0.12,-0.19
4476,-0.96,-1.91,8.70,0.29,0.13,-0.18
4481,-5.63,-3.68,8.96,0.29,0.13,-0.18
4486,-5.63,-3.68,8.96,0.36,0.21,-0.07
4491,-5.63,-3.68,8.96,0.35,0.22,-0.03
4497,-2.49,-3.18,9.27,0.35,0.22,-0.03
4501,-1.04,-2.95,10.69,0.35,0.22,-0.03
4506,3.87,-3.56,12.68,0.35,0.22,-0.03
4511,2.22,-3.98,12.41,0.35,0.22,-0.03
4516,1.19,-3.52,10.91,0.35,0.22,-0.03
4521,-0.46,-3.29,10.15,0.35,0.22,-0.03
4527,-1.46,-3.68,10.27,0.35,0.22,-0.03
4531,-4.10,-3.29,7.05,0.35,0.22,-0.03
4536,-3.48,-2.68,6.21,0.35,0.22,-0.03
4541,-4.98,-1.84,5.74,0.35,0.22,-0.03
4547,-4.98,-1.84,5.74,0.38,0.35,0.10
4551,-2.26,-1.00,6.93,0.38,0.35,0.10
4556,-1.00,-1.46,8.08,0.38,0.35,0.10
4562,-1.00,-1.46,8.08,0.38,0.04,0.08
4566,1.27,-3.33,11.03,0.38,0.04,0.08
4571,1.27,-3.33,11.03,0.43,-0.23,0.13
4576,-0.34,-4.52,11.49,0.43,-0.23,0.13
4582,-1.11,-4.10,10.95,0.43,-0.23,0.13
4586,-1.68,-3.33,10.11,0.43,-0.23,0.13
4591,-2.41,-1.88,10.11,0.43,-0.23,0.13
4597,-1.00,-1.34,9.50,0.43,-0.23,0.13
4601,-0.54,-0.84,8.08,0.43,-0.23,0.13
4606,-0.73,-1.11,8.08,0.43,-0.23,0.13
4612,0.50,-1.57,8.78,0.43,-0.23,0.13
4616,1.04,-1.53,9.46,0.43,-0.23,0.13
4621,-0.30,-1.53,9.27,0.43,-0.23,0.13
4626,-0.92,-1.99,9.77,0.43,-0.23,0.13
4631,-0.92,-1.99,9.77,0.37,0.08,-0.13
4636,-0.84,0.04,9.04,0.37,0.08,-0.13
4641,0.38,0.38,8.78,0.37,0.08,-0.13
4647,0.65,0.42,8.36,0.37,0.08,-0.13
4651,1.00,0.80,8.16,0.37,0.08,-0.13
4656,1.00,0.80,8.16,0.26,-0.12,-0.19
4661,0.57,0.04,9.46,0.26,-0.12,-0.19
4667,0.57,0.04,9.46,0.25,-0.13,-0.21
4671,-2.11,-0.11,7.59,0.25,-0.13,-0.21
4676,-2.11,-0.11,7.59,0.23,0.07,-0.18
4681,-1.11,1.34,9.08,0.23,0.07,-0.18
4686,0.69,1.84,11.84,0.23,0.07,-0.18
4691,2.53,0.92,12.45,0.23,0.07,-0.18
4696,3.95,-0.38,13.57,0.23,0.07,-0.18
4701,3.22,0.19,13.56,0.23,0.07,-0.18
4706,1.07,-1.57,11.88,0.23,0.07,-0.18
4711,1.07,-1.57,11.88,0.27,0.04,-0.33
4716,-1.34,-0.92,8.81,0.27,0.04,-0.33
4721,-1.34,-0.92,8.81,0.27,0.12,-0.27
4727,-0.08,1.80,8.01,0.27,0.12,-0.27
4731,1.19,1.88,8.78,0.27,0.12,-0.27
4736,-0.23,1.23,8.08,0.27,0.12,-0.27
4741,1.27,0.00,9.00,0.27,0.12,-0.27
4746,0.80,-1.11,9.12,0.27,0.12,-0.27
4752,1.34,-1.11,8.70,0.27,0.12,-0.27
4756,-0.65,-0.84,9.08,0.27,0.12,-0.27
4761,-0.65,-0.84,9.08,0.22,0.06,-0.29
4766,-1.65,-0.08,9.38,0.22,0.06,-0.29
4771,-1.91,0.08,9.58,0.22,0.06,-0.29
4776,-1.88,0.84,9.35,0.22,0.06,-0.29
4781,0.30,0.04,9.84,0.22,0.06,-0.29
4787,0.19,-0.34,9.73,0.22,0.06,-0.29
4792,-1.23,-0.27,9.35,0.22,0.06,-0.29
4796,-1.23,-0.27,9.35,0.23,0.02,-0.23
4801,-3.83,-1.23,8.58,0.23,0.02,-0.23
4806,-4.06,-0.69,8.35,0.23,0.02,-0.23
4811,-2.07,-1.04,8.66,0.23,0.02,-0.23
4816,-1.11,-0.80,9.27,0.23,0.02,-0.23
4821,-1.49,-1.27,9.96,0.23,0.02,-0.23
4827,-1.23,-1.15,10.57,0.23,0.02,-0.23
4831,-1.23,-1.15,10.57,0.26,-0.04,-0.21
4836,-1.23,-1.15,10.57,0.27,-0.06,-0.16
4841,-0.19,-2.34,11.22,0.27,-0.06,-0.16
4846,-0.11,-2.34,10.34,0.27,-0.06,-0.16
4852,-0.50,-2.72,10.11,0.27,-0.06,-0.16
4856,-2.87,0.15,9.88,0.27,-0.06,-0.16
4861,-3.29,0.57,9.00,0.27,-0.06,-0.16
4866,-3.41,-0.04,8.62,0.27,-0.06,-0.16
4871,-2.72,0.84,7.62,0.27,-0.06,-0.16
4877,-2.64,1.61,8.20,0.27,-0.06,-0.16
4881,-2.64,1.61,8.20,0.25,0.07,0.03
4886,-1.46,-1.07,6.59,0.25,0.07,0.03
4891,-2.18,-2.07,7.97,0.25,0.07,0.03
4896,-1.84,-1.88,7.70,0.25,0.07,0.03
4901,-0.69,-1.84,8.82,0.25,0.07,0.03
4907,0.15,-1.61,9.81,0.25,0.07,0.03
4912,0.77,-1.19,11.38,0.25,0.07,0.03
4916,0.77,-1.19,11.38,0.33,-0.22,0.25
4921,0.69,0.04,11.15,0.33,-0.22,0.25
4926,-1.49,-0.04,10.23,0.33,-0.22,0.25
4931,-0.84,-1.34,10.65,0.33,-0.22,0.25
4936,-1.76,-1.57,8.74,0.33,-0.22,0.25
4841,-0.19,-2.34,11.22,0.27,-0.06,-0.16
4846,-0.11,-2.34,10.34,0.27,-0.06,-0.16
4852,-0.50,-2.72,10.11,0.27,-0.06,-0.16
4856,-2.87,0.15,9.88,0.27,-0.06,-0.16
4861,-3.29,0.57,9.00,0.27,-0.06,-0.16
4866,-3.41,-0.04,8.62,0.27,-0.06,-0.16
4871,-2.72,0.84,7.62,0.27,-0.06,-0.16
4877,-2.64,1.61,8.20,0.27,-0.06,-0.16
4881,-2.64,1.61,8.20,0.25,0.07,0.03
4886,-1.46,-1.07,6.59,0.25,0.07,0.03
4891,-2.18,-2.07,7.97,0.25,0.07,0.03
4896,-1.84,-1.88,7.70,0.25,0.07,0.03
4901,-0.69,-1.84,8.82,0.25,0.07,0.03
