timestamp,accX,accY,accZ,gyroX,gyroY,gyroZ
Straight
5,-3.41,-0.92,5.40,0.12,-0.13,-0.15
18,-1.38,-0.80,7.31,0.12,-0.13,-0.15
19,-1.07,3.52,5.14,0.12,-0.13,-0.15
20,-1.07,3.52,5.14,-0.18,-0.02,-0.13
25,1.00,-0.38,8.62,-0.18,-0.02,-0.13
31,3.56,-0.11,10.34,-0.18,-0.02,-0.13
37,2.07,-1.19,11.88,-0.18,-0.02,-0.13
40,2.07,-1.19,11.88,-0.05,-0.38,-0.04
46,2.07,-1.19,11.88,0.10,-0.25,-0.06
51,1.38,-2.38,14.36,0.10,-0.25,-0.06
56,-2.18,-4.02,10.96,0.10,-0.25,-0.06
60,-2.18,-4.02,10.96,0.14,0.37,-0.10
66,-4.18,0.00,5.06,0.14,0.37,-0.10
71,-4.18,1.68,4.86,0.14,0.37,-0.10
75,-4.18,1.68,4.86,-0.08,-0.02,-0.01
81,-4.18,1.68,4.86,-0.12,-0.15,-0.05
86,-0.30,0.30,9.08,-0.12,-0.15,-0.05
90,-0.30,0.30,9.08,-0.09,-0.26,-0.17
95,-0.30,0.30,9.08,-0.06,-0.10,-0.11
101,-0.30,0.30,9.08,0.04,0.10,0.00
106,-1.76,-2.61,11.84,0.04,0.10,0.00
110,-1.76,-2.61,11.84,0.10,0.14,0.02
115,2.72,-0.54,14.48,0.10,0.14,0.02
120,1.15,0.88,14.06,0.10,0.14,0.02
127,1.84,0.57,14.36,0.10,0.14,0.02
131,1.84,0.57,14.36,0.12,0.19,-0.08
136,1.84,0.57,14.36,0.11,0.23,-0.09
141,-2.76,0.73,6.89,0.11,0.23,-0.09
145,-2.76,0.73,6.89,0.01,0.26,-0.12
151,-4.02,0.80,4.14,0.01,0.26,-0.12
156,-9.23,2.68,3.56,0.01,0.26,-0.12
160,-9.23,2.68,3.56,-0.12,0.23,0.01
165,-9.23,2.68,3.56,-0.09,0.12,0.04
171,-3.33,0.00,8.58,-0.09,0.12,0.04
176,-1.38,-0.65,11.19,-0.09,0.12,0.04
181,-1.38,-0.65,11.19,0.06,-0.20,0.15
186,-1.38,-0.65,11.19,0.15,-0.26,0.22
191,0.23,-1.30,12.06,0.15,-0.26,0.22
195,0.23,-1.30,12.06,0.18,0.13,0.23
200,0.23,-1.30,12.06,0.15,0.21,0.25
206,-2.18,0.00,8.96,0.15,0.21,0.25
211,-3.71,-0.34,9.16,0.15,0.21,0.25
215,-3.71,-0.34,9.16,0.04,0.19,0.13
221,-3.71,-0.34,9.16,0.04,0.20,0.12
226,-10.00,0.19,6.05,0.04,0.20,0.12
232,-10.00,0.19,6.05,-0.06,0.22,0.15
235,-10.00,0.19,6.05,-0.03,0.06,0.26
241,1.61,-1.30,11.19,-0.03,0.06,0.26
246,5.82,-2.91,12.76,-0.03,0.06,0.26
251,5.82,-2.91,12.76,0.13,-0.42,0.26
256,5.82,-2.91,12.76,0.26,-0.21,0.19
261,1.11,-4.83,13.57,0.26,-0.21,0.19
266,1.11,-4.83,13.57,0.18,0.48,0.22
271,1.11,-4.83,13.57,0.24,0.44,0.17
277,-4.90,-0.34,7.39,0.24,0.44,0.17
281,-4.90,-0.34,7.39,0.05,0.21,0.20
285,-4.90,-0.34,7.39,0.02,0.13,0.17
291,2.61,0.54,8.08,0.02,0.13,0.17
296,6.86,-0.96,7.86,0.02,0.13,0.17
301,6.86,-0.96,7.86,-0.05,-0.38,0.01
306,6.86,-0.96,7.86,-0.08,-0.44,-0.01
312,1.65,-2.80,10.15,-0.08,-0.44,-0.01
315,1.65,-2.80,10.15,0.15,-0.18,0.15
320,1.65,-2.80,10.15,0.05,0.17,0.20
326,-2.45,-1.95,8.81,0.05,0.17,0.20
332,1.95,-4.48,11.64,0.05,0.17,0.20
335,1.95,-4.48,11.64,0.10,0.03,0.20
341,1.95,-4.48,11.64,-0.04,-0.03,0.07
347,4.41,0.54,7.82,-0.04,-0.03,0.07
350,4.41,0.54,7.82,0.01,-0.15,0.01
355,4.41,0.54,7.82,-0.11,-0.09,-0.01
361,4.41,0.54,7.82,-0.05,-0.10,0.09
366,0.65,-1.30,10.80,-0.05,-0.10,0.09
371,0.65,-1.30,10.80,-0.05,-0.23,0.25
376,0.65,-1.30,10.80,-0.06,-0.20,0.16
382,3.37,0.27,11.68,-0.06,-0.20,0.16
386,3.37,0.27,11.68,0.01,0.00,0.01
391,3.37,0.27,11.68,-0.03,0.05,0.06
396,3.95,0.34,9.43,-0.03,0.05,0.06
402,1.19,0.77,9.58,-0.03,0.05,0.06
406,1.19,0.77,9.58,-0.10,0.12,-0.12
411,1.19,0.77,9.58,-0.11,0.19,-0.17
416,-6.09,2.41,7.20,-0.11,0.19,-0.17
421,-6.09,2.41,7.20,-0.15,0.20,-0.25
426,-6.09,2.41,7.20,-0.16,0.14,-0.21
432,-0.57,0.42,7.01,-0.16,0.14,-0.21
435,-0.57,0.42,7.01,-0.18,-0.15,-0.20
440,-0.57,0.42,7.01,-0.17,-0.30,-0.26
446,-0.57,0.42,7.01,-0.17,-0.42,-0.31
451,3.22,0.61,11.72,-0.17,-0.42,-0.31
455,3.22,0.61,11.72,-0.11,0.05,-0.26
461,3.22,0.61,11.72,-0.11,0.30,-0.28
467,0.92,-0.88,9.39,-0.11,0.30,-0.28
470,0.92,-0.88,9.39,-0.03,0.11,-0.35
475,0.92,-0.88,9.39,-0.09,0.05,-0.35
481,0.92,-0.88,9.39,-0.17,0.06,-0.29
486,-9.77,1.95,3.41,-0.17,0.06,-0.29
491,-9.77,1.95,3.41,-0.18,0.18,-0.15
495,-9.77,1.95,3.41,-0.15,0.11,-0.04
501,-9.77,1.95,3.41,-0.11,-0.09,0.08
507,3.91,0.73,10.30,-0.11,-0.09,0.08
511,3.91,0.73,10.30,-0.07,-0.54,0.25
516,3.91,0.73,10.30,-0.03,-0.61,0.27
521,5.32,-3.48,15.36,-0.03,-0.61,0.27
526,5.32,-3.48,15.36,0.08,0.22,0.35
531,5.32,-3.48,15.36,0.11,0.36,0.36
537,-3.68,-0.38,7.17,0.11,0.36,0.36
541,-3.68,-0.38,7.17,0.10,0.10,0.38
546,-3.68,-0.38,7.17,0.03,-0.00,0.36
551,-3.98,1.88,7.47,0.03,-0.00,0.36
556,-5.18,0.84,4.71,0.03,-0.00,0.36
561,-5.18,0.84,4.71,-0.12,-0.07,0.13
566,-5.18,0.84,4.71,-0.13,-0.18,0.12
572,-0.65,-2.49,7.66,-0.13,-0.18,0.12
575,-0.65,-2.49,7.66,-0.08,-0.29,0.17
581,-0.65,-2.49,7.66,-0.03,-0.15,0.15
586,0.57,-2.03,12.76,-0.03,-0.15,0.15
591,0.11,-2.41,12.57,-0.03,-0.15,0.15
595,0.11,-2.41,12.57,0.00,0.03,0.19
601,0.11,-2.41,12.57,0.01,-0.07,0.15
606,-0.92,-1.19,9.77,0.01,-0.07,0.15
611,-0.92,-1.19,9.77,0.04,0.01,0.13
615,-0.92,-1.19,9.77,-0.02,0.07,0.13
621,-0.92,-1.19,9.77,-0.05,0.09,0.14
627,-0.77,0.08,9.08,-0.05,0.09,0.14
630,-0.77,0.08,9.08,-0.08,-0.04,0.11
635,-2.53,1.07,8.46,-0.08,-0.04,0.11
642,-0.73,0.08,9.54,-0.08,-0.04,0.11
645,-0.73,0.08,9.54,-0.15,-0.15,-0.03
651,-0.73,0.08,9.54,-0.16,-0.09,-0.04
656,0.57,2.45,8.74,-0.16,-0.09,-0.04
661,0.57,2.45,8.74,-0.19,-0.01,-0.06
666,0.57,2.45,8.74,-0.18,-0.06,-0.06
671,0.57,2.45,8.74,-0.18,-0.03,-0.05
676,-0.88,1.42,9.54,-0.18,-0.03,-0.05
681,-0.88,1.42,9.54,-0.18,0.12,-0.03
686,-0.88,1.42,9.54,-0.14,0.11,-0.04
692,-4.10,0.61,7.85,-0.14,0.11,-0.04
695,-4.10,0.61,7.85,-0.18,0.00,-0.02
701,-4.10,0.61,7.85,-0.18,-0.10,0.01
706,-4.10,0.61,7.85,-0.22,-0.20,-0.00
711,1.42,0.92,6.82,-0.22,-0.20,-0.00
716,1.42,0.92,6.82,-0.22,-0.28,-0.08
721,1.42,0.92,6.82,-0.27,-0.11,-0.09
727,3.71,-2.80,11.11,-0.27,-0.11,-0.09
731,3.71,-2.80,11.11,-0.29,0.05,-0.15
736,3.71,-2.80,11.11,-0.26,0.02,-0.16
741,3.71,-2.80,11.11,-0.19,0.05,-0.11
747,-0.69,0.00,13.11,-0.19,0.05,-0.11
750,-0.69,0.00,13.11,-0.11,0.13,-0.09
756,-0.69,0.00,13.11,-0.16,0.10,-0.11
761,-0.69,0.00,13.11,-0.19,0.04,-0.12
766,-0.69,0.00,13.11,-0.21,-0.01,-0.13
771,-0.69,0.00,13.11,-0.20,-0.02,-0.14
776,-0.77,-1.80,8.46,-0.20,-0.02,-0.14
782,-0.96,-1.84,7.93,-0.20,-0.02,-0.14
785,-0.96,-1.84,7.93,-0.13,0.18,-0.08
791,-0.96,-1.84,7.93,-0.17,0.16,-0.11
796,2.18,-0.96,7.85,-0.17,0.16,-0.11
801,2.18,-0.96,7.85,-0.24,-0.01,-0.25
806,2.18,-0.96,7.85,-0.24,0.03,-0.33
811,-1.34,0.69,8.58,-0.24,0.03,-0.33
817,-3.18,1.34,9.96,-0.24,0.03,-0.33
821,-3.18,1.34,9.96,-0.21,0.30,-0.37
826,-3.18,1.34,9.96,-0.20,0.24,-0.38
832,-1.80,1.04,10.15,-0.20,0.24,-0.38
836,-1.80,1.04,10.15,-0.25,0.02,-0.38
841,-1.80,1.04,10.15,-0.25,-0.13,-0.39
847,-1.80,1.04,10.15,-0.24,-0.26,-0.40
851,-1.80,1.04,10.15,-0.22,-0.32,-0.38
855,-1.80,1.04,10.15,-0.14,-0.23,-0.32
860,-1.80,1.04,10.15,-0.15,-0.00,-0.28
865,1.80,1.30,9.77,-0.15,-0.00,-0.28
871,1.80,1.30,9.77,-0.18,0.20,-0.30
877,0.00,0.11,9.61,-0.18,0.20,-0.30
882,0.00,0.11,9.61,-0.22,0.01,-0.36
886,0.00,0.11,9.61,-0.21,0.03,-0.43
891,0.00,0.11,9.61,-0.21,0.08,-0.45
896,0.00,0.11,9.61,-0.19,0.07,-0.42
901,1.15,1.00,5.98,-0.19,0.07,-0.42
906,1.15,1.00,5.98,-0.20,0.02,-0.37
911,1.15,1.00,5.98,-0.21,0.02,-0.39
915,-5.02,0.65,8.85,-0.21,0.02,-0.39
922,-5.94,-0.30,8.43,-0.21,0.02,-0.39
927,-5.94,-0.30,8.43,-0.21,0.22,-0.51
931,1.23,-1.99,10.31,-0.21,0.22,-0.51
936,0.65,-0.69,9.81,-0.21,0.22,-0.51
941,0.65,-0.69,9.81,-0.12,-0.15,-0.51
946,0.65,-0.69,9.81,-0.12,-0.03,-0.51
952,-1.19,0.84,6.17,-0.12,-0.03,-0.51
955,-1.19,0.84,6.17,-0.16,0.07,-0.54
961,-1.19,0.84,6.17,-0.18,-0.02,-0.54
966,-1.19,0.84,6.17,-0.20,-0.10,-0.57
971,-0.96,0.84,10.49,-0.20,-0.10,-0.57
976,-0.96,0.84,10.49,-0.16,-0.19,-0.58
981,-0.96,0.84,10.49,-0.13,-0.13,-0.55
987,4.29,-1.76,13.21,-0.13,-0.13,-0.55
991,4.29,-1.76,13.21,-0.08,0.05,-0.52
996,4.29,-1.76,13.21,-0.04,0.05,-0.51
1001,4.29,-1.76,13.21,-0.01,0.06,-0.52
1007,-2.38,0.23,9.42,-0.01,0.06,-0.52
1011,-2.38,0.23,9.42,-0.05,0.08,-0.55
1016,-2.38,0.23,9.42,-0.07,0.06,-0.59
1021,-1.88,-0.61,11.57,-0.07,0.06,-0.59
1026,-1.88,-0.61,11.57,-0.12,-0.02,-0.68
1031,-1.88,-0.61,11.57,-0.10,-0.09,-0.69
1036,-1.88,-0.61,11.57,-0.09,-0.11,-0.67
1041,0.38,-0.46,8.50,-0.09,-0.11,-0.67
1046,0.38,-0.46,8.50,-0.06,-0.03,-0.61
1051,0.38,-0.46,8.50,-0.06,-0.00,-0.63
1057,1.27,-1.95,10.69,-0.06,-0.00,-0.63
1061,1.27,-1.95,10.69,0.01,-0.03,-0.57
1066,1.27,-1.95,10.69,0.06,0.01,-0.53
1071,1.27,-1.95,10.69,0.10,0.05,-0.48
1076,1.27,-1.95,10.69,0.12,0.04,-0.46
1081,1.27,-1.95,10.69,0.12,-0.01,-0.44
1086,1.27,-1.95,10.69,0.13,-0.02,-0.41
1091,-0.27,-0.92,7.27,0.13,-0.02,-0.41
1096,-0.27,-0.92,7.27,0.08,-0.17,-0.33
1101,-0.27,-0.92,7.27,0.10,-0.24,-0.32
1106,-0.27,-0.92,7.27,0.09,-0.13,-0.31
1111,-0.27,-0.92,7.27,0.11,0.03,-0.27
1116,-0.27,-0.92,7.27,0.14,0.09,-0.22
1121,-0.27,-0.92,7.27,0.18,0.01,-0.19
1127,2.03,-2.87,11.19,0.18,0.01,-0.19
1131,2.03,-2.87,11.19,0.25,-0.08,-0.07
1136,2.03,-2.87,11.19,0.26,0.01,0.00
1141,2.03,-2.87,11.19,0.27,0.11,0.04
1146,2.03,-2.87,11.19,0.28,0.12,0.09
1151,2.03,-2.87,11.19,0.26,0.07,0.13
1156,2.03,-2.87,11.19,0.29,0.03,0.17
1161,-0.80,-1.76,11.11,0.29,0.03,0.17
1166,-0.80,-1.76,11.11,0.31,0.11,0.26
1171,-0.80,-1.76,11.11,0.35,0.13,0.32
1176,-0.80,-1.76,11.11,0.36,0.10,0.36
1181,-0.80,-1.76,11.11,0.35,0.06,0.38
1186,-0.80,-1.76,11.11,0.34,0.04,0.40
1191,-0.80,-1.76,11.11,0.34,0.01,0.43
1196,-0.19,-3.68,7.93,0.34,0.01,0.43
1201,-0.19,-3.68,7.93,0.38,0.04,0.48
1206,-0.19,-3.68,7.93,0.40,0.10,0.52
1211,-4.02,-3.26,7.51,0.40,0.10,0.52
1216,-4.02,-3.26,7.51,0.40,0.12,0.53
1221,-4.02,-3.26,7.51,0.37,0.04,0.53
1227,-4.02,-3.26,7.51,0.36,-0.06,0.52
1231,-4.02,-3.26,7.51,0.34,-0.11,0.49
1236,-4.02,-3.26,7.51,0.35,-0.09,0.47
1241,-4.02,-3.26,7.51,0.35,-0.05,0.49
1247,1.68,-2.14,9.77,0.35,-0.05,0.49
1251,1.68,-2.14,9.77,0.37,-0.04,0.51
1256,1.68,-2.14,9.77,0.37,-0.02,0.50
1262,1.68,-2.14,9.77,0.36,0.01,0.49
1266,1.68,-2.14,9.77,0.36,0.07,0.48
1271,1.68,-2.14,9.77,0.33,0.10,0.45
1276,1.68,-2.14,9.77,0.32,0.09,0.41
1281,-4.21,0.04,7.55,0.32,0.09,0.41
1286,-4.21,0.04,7.55,0.27,0.04,0.33
1291,-4.21,0.04,7.55,0.22,0.00,0.30
1296,-4.21,0.04,7.55,0.21,-0.06,0.25
1301,-4.21,0.04,7.55,0.18,-0.13,0.22
1306,-4.21,0.04,7.55,0.15,-0.20,0.18
1311,-4.21,0.04,7.55,0.19,-0.19,0.16
1316,3.91,0.00,10.91,0.19,-0.19,0.16
1321,3.91,0.00,10.91,0.12,0.07,0.10
1326,3.91,0.00,10.91,0.13,0.13,0.07
1331,3.91,0.00,10.91,0.12,0.15,0.05
1336,3.91,0.00,10.91,0.12,0.15,0.04
1341,3.91,0.00,10.91,0.12,0.12,0.01
1346,3.91,0.00,10.91,0.09,0.11,0.00
1351,-1.61,1.07,11.15,0.09,0.11,0.00
1356,-1.61,1.07,11.15,0.04,-0.00,-0.02
1361,-1.61,1.07,11.15,-0.00,-0.12,-0.05
1366,-1.61,1.07,11.15,-0.00,-0.21,-0.09
1371,-1.61,1.07,11.15,-0.01,-0.26,-0.10
1376,-1.61,1.07,11.15,0.02,-0.16,-0.07
1380,-1.61,1.07,11.15,0.00,0.06,-0.05
1386,-1.49,1.04,9.04,0.00,0.06,-0.05
1391,-1.49,1.04,9.04,-0.00,0.20,-0.07
1396,-1.49,1.04,9.04,-0.01,0.13,-0.07
1401,-1.49,1.04,9.04,-0.02,0.06,-0.07
1406,-1.49,1.04,9.04,-0.02,0.02,-0.08
1411,-1.49,1.04,9.04,-0.02,0.00,-0.09
1415,-1.49,1.04,9.04,-0.04,-0.07,-0.06
1421,1.72,1.15,5.90,-0.04,-0.07,-0.06
1426,1.72,1.15,5.90,-0.07,-0.42,-0.00
1431,1.72,1.15,5.90,-0.11,-0.53,-0.00
1436,1.72,1.15,5.90,-0.02,-0.47,-0.01
1441,1.72,1.15,5.90,-0.04,-0.13,-0.00
1446,1.72,1.15,5.90,-0.05,0.16,-0.00
1451,1.72,1.15,5.90,-0.04,0.17,-0.01
1456,1.72,1.15,5.90,0.03,-0.01,0.01
1461,1.72,1.15,5.90,0.07,-0.06,0.03
1466,1.72,1.15,5.90,0.08,0.04,0.07
1471,-4.10,-0.50,8.82,0.08,0.04,0.07
1476,-4.10,-0.50,8.82,0.09,0.18,0.04
1481,-4.10,-0.50,8.82,0.02,0.13,0.02
1486,-4.10,-0.50,8.82,-0.02,0.03,0.01
1491,-4.10,-0.50,8.82,-0.04,-0.12,-0.01
1496,-4.10,-0.50,8.82,-0.07,-0.23,-0.06
1501,-4.10,-0.50,8.82,-0.09,-0.31,-0.10
1507,0.19,-0.65,11.84,-0.09,-0.31,-0.10
1511,0.19,-0.65,11.84,-0.01,-0.10,-0.07
1516,0.19,-0.65,11.84,-0.01,0.06,-0.09
1521,0.19,-0.65,11.84,0.02,0.05,-0.08
1527,0.19,-0.65,11.84,0.07,-0.01,-0.06
1531,0.19,-0.65,11.84,0.07,0.02,-0.04
1536,0.19,-0.65,11.84,0.07,0.11,-0.03
1542,-6.97,2.11,6.21,0.07,0.11,-0.03
1546,-6.97,2.11,6.21,0.05,0.17,-0.07
1551,-6.97,2.11,6.21,0.01,0.12,-0.07
1556,-6.97,2.11,6.21,0.02,0.00,-0.06
1561,-6.97,2.11,6.21,0.01,-0.12,-0.07
1566,-6.97,2.11,6.21,0.01,-0.21,-0.05
1570,-6.97,2.11,6.21,0.02,-0.24,-0.04
1576,2.22,-0.61,11.60,0.02,-0.24,-0.04
1581,2.22,-0.61,11.60,0.02,0.08,-0.06
1586,2.22,-0.61,11.60,0.04,0.22,-0.05
1591,2.22,-0.61,11.60,0.07,0.20,-0.03
1596,2.22,-0.61,11.60,0.09,0.13,-0.01
1601,2.22,-0.61,11.60,0.10,0.10,-0.00
1605,2.22,-0.61,11.60,0.05,0.11,0.00
1611,2.22,-0.77,9.12,0.05,0.11,0.00
1616,2.22,-0.77,9.12,0.02,-0.04,-0.03
1621,2.22,-0.77,9.12,0.01,-0.15,-0.04
1626,2.22,-0.77,9.12,0.01,-0.22,-0.01
1631,2.22,-0.77,9.12,0.01,-0.28,0.02
1636,2.22,-0.77,9.12,0.04,-0.20,0.01
1640,2.22,-0.77,9.12,0.01,-0.01,-0.03
1646,4.45,-2.14,10.80,0.01,-0.01,-0.03
1651,4.45,-2.14,10.80,0.04,0.09,-0.01
1656,4.45,-2.14,10.80,0.06,0.05,-0.00
1661,4.45,-2.14,10.80,0.05,0.04,-0.01
1666,4.45,-2.14,10.80,0.05,0.03,-0.01
1671,4.45,-2.14,10.80,0.05,0.05,-0.01
1675,4.45,-2.14,10.80,0.04,0.04,-0.02
1681,2.07,-3.26,14.06,0.04,0.04,-0.02
1686,2.07,-3.26,14.06,0.02,-0.08,0.02
1691,2.07,-3.26,14.06,0.03,-0.10,0.00
1696,2.07,-3.26,14.06,0.06,-0.03,-0.01
1701,2.07,-3.26,14.06,0.09,0.06,0.02
1706,2.07,-3.26,14.06,0.14,0.08,0.07
1711,2.07,-3.26,14.06,0.15,0.02,0.12
1716,2.07,-3.26,14.06,0.17,0.01,0.13
1721,2.07,-3.26,14.06,0.14,0.13,0.12
1726,2.07,-3.26,14.06,0.12,0.28,0.11
1731,2.07,-3.26,14.06,0.11,0.30,0.10
1736,2.07,-3.26,14.06,0.15,0.26,0.09
1741,2.07,-3.26,14.06,0.15,0.21,0.09
1746,2.07,-3.26,14.06,0.16,0.14,0.12
1751,2.07,-3.26,14.06,0.18,0.02,0.16
1756,2.07,-3.26,14.06,0.15,-0.09,0.17
1760,2.07,-3.26,14.06,0.13,-0.16,0.17
1766,-0.57,-0.65,5.98,0.13,-0.16,0.17
1771,-0.57,-0.65,5.98,0.15,-0.09,0.18
1775,-0.57,-0.65,5.98,0.14,0.11,0.21
1780,-0.57,-0.65,5.98,0.14,0.30,0.23
1785,-3.95,0.34,9.34,0.14,0.30,0.23
1792,-3.95,0.34,9.34,0.13,0.35,0.26
1795,-3.95,0.34,9.34,0.13,0.27,0.25
1801,-6.36,0.38,8.12,0.13,0.27,0.25
1806,-6.36,0.38,8.12,0.10,0.09,0.21
1811,-6.36,0.38,8.12,0.09,-0.09,0.21
1815,-6.36,0.38,8.12,0.09,-0.29,0.24
1821,2.03,-0.46,7.70,0.09,-0.29,0.24
1826,2.03,-0.46,7.70,0.08,-0.46,0.31
1830,2.03,-0.46,7.70,0.12,-0.23,0.27
1836,2.34,-1.19,11.26,0.12,-0.23,0.27
1841,2.34,-1.19,11.26,0.10,0.29,0.29
1846,2.34,-1.19,11.26,0.14,0.19,0.31
1851,2.34,-1.19,11.26,0.14,0.03,0.33
1856,-4.64,0.50,8.08,0.14,0.03,0.33
1861,-4.64,0.50,8.08,0.08,-0.03,0.26
1865,-4.64,0.50,8.08,0.05,-0.03,0.21
1871,-0.04,-0.34,6.21,0.05,-0.03,0.21
1876,-0.04,-0.34,6.21,0.01,-0.11,0.18
1881,-0.04,-0.34,6.21,-0.00,-0.16,0.19
1886,-0.04,-0.34,6.21,0.02,-0.17,0.19
1891,-0.04,-0.34,6.21,0.00,-0.07,0.17
1896,-0.04,-0.34,6.21,-0.02,0.03,0.15
1900,-0.04,-0.34,6.21,-0.01,0.02,0.15
1906,2.34,-1.34,9.88,-0.01,0.02,0.15
1911,2.34,-1.34,9.88,0.05,0.05,0.16
1916,2.34,-1.34,9.88,0.04,0.18,0.16
1921,2.34,-1.34,9.88,0.02,0.20,0.15
1926,2.34,-1.34,9.88,0.01,0.21,0.13
1931,2.34,-1.34,9.88,-0.04,0.16,0.11
1935,2.34,-1.34,9.88,-0.08,0.05,0.09
1941,4.10,-2.34,15.32,-0.08,0.05,0.09
1946,4.10,-2.34,15.32,-0.07,-0.20,0.01
1951,4.10,-2.34,15.32,-0.08,-0.24,-0.00
1956,4.10,-2.34,15.32,0.01,-0.21,0.05
1961,4.10,-2.34,15.32,0.08,-0.06,0.15
1966,4.10,-2.34,15.32,0.09,0.15,0.23
1970,4.10,-2.34,15.32,0.04,0.30,0.24
1976,-4.10,3.29,7.59,0.04,0.30,0.24
1981,-4.10,3.29,7.59,-0.00,0.28,0.16
1985,-4.10,3.29,7.59,-0.02,0.29,0.07
1991,-1.04,2.91,12.38,-0.02,0.29,0.07
1996,-1.04,2.91,12.38,-0.08,0.13,0.04
2001,-1.04,2.91,12.38,-0.10,-0.04,0.07
2005,-1.04,2.91,12.38,-0.14,-0.21,0.09
2011,2.72,-0.15,8.58,-0.14,-0.21,0.09
2016,2.72,-0.15,8.58,-0.21,-0.43,-0.00
2020,2.72,-0.15,8.58,-0.23,-0.46,-0.03
2026,6.78,0.30,11.53,-0.23,-0.46,-0.03
2031,6.78,0.30,11.53,-0.17,0.08,-0.03
2036,6.78,0.30,11.53,-0.21,0.39,-0.07
2041,6.78,0.30,11.53,-0.20,0.37,-0.07
2046,-2.30,-0.73,6.51,-0.20,0.37,-0.07
2051,-2.30,-0.73,6.51,-0.15,0.12,-0.04
2055,-2.30,-0.73,6.51,-0.16,0.07,-0.04
2061,-0.96,1.00,7.63,-0.16,0.07,-0.04
2066,-0.96,1.00,7.63,-0.22,-0.05,-0.08
2071,-0.96,1.00,7.63,-0.24,-0.11,-0.12
2075,-0.96,1.00,7.63,-0.19,-0.13,-0.13
2081,2.18,-0.73,11.92,-0.19,-0.13,-0.13
2086,2.18,-0.73,11.92,-0.17,0.15,-0.10
2090,2.18,-0.73,11.92,-0.18,0.18,-0.13
2096,-0.15,-0.38,8.31,-0.18,0.18,-0.13
2101,-0.15,-0.38,8.31,-0.17,0.06,-0.14
2105,-0.15,-0.38,8.31,-0.17,0.11,-0.16
2111,-0.15,-0.38,8.31,-0.18,0.21,-0.19
2116,-3.68,0.00,11.07,-0.18,0.21,-0.19
2121,-3.68,0.00,11.07,-0.19,0.21,-0.23
2125,-3.68,0.00,11.07,-0.20,0.12,-0.24
2131,1.99,-1.68,12.22,-0.20,0.12,-0.24
2136,1.99,-1.68,12.22,-0.19,-0.09,-0.28
2140,1.99,-1.68,12.22,-0.17,-0.13,-0.31
2146,1.99,-1.68,12.22,-0.14,-0.09,-0.31
2151,1.99,-1.68,12.22,-0.13,0.07,-0.29
2156,1.99,-1.68,12.22,-0.17,0.21,-0.32
2160,1.99,-1.68,12.22,-0.17,0.22,-0.35
2166,-1.38,-0.57,10.19,-0.17,0.22,-0.35
2171,-1.38,-0.57,10.19,-0.15,0.02,-0.37
2175,-1.38,-0.57,10.19,-0.15,-0.04,-0.39
2181,-1.38,-0.57,10.19,-0.14,-0.11,-0.38
2186,-1.38,-0.57,10.19,-0.16,-0.23,-0.36
2191,-1.38,-0.57,10.19,-0.11,-0.24,-0.36
2195,-1.38,-0.57,10.19,-0.11,-0.04,-0.37
2201,2.11,0.08,10.77,-0.11,-0.04,-0.37
2206,2.11,0.08,10.77,-0.12,0.21,-0.35
2210,2.11,0.08,10.77,-0.10,0.10,-0.33
2216,2.11,0.08,10.77,-0.09,-0.02,-0.32
2221,2.11,0.08,10.77,-0.07,-0.03,-0.31
2226,2.11,0.08,10.77,-0.06,0.05,-0.28
2230,2.11,0.08,10.77,-0.07,0.11,-0.28
2236,-0.77,0.84,8.39,-0.07,0.11,-0.28
2241,-0.77,0.84,8.39,-0.05,0.08,-0.28
2245,-0.77,0.84,8.39,-0.08,0.01,-0.25
2251,1.46,0.73,6.29,-0.08,0.01,-0.25
2256,1.46,0.73,6.29,-0.10,-0.19,-0.22
2260,1.46,0.73,6.29,-0.08,-0.21,-0.23
2265,1.46,0.73,6.29,-0.06,-0.12,-0.21
2271,1.04,-0.65,12.26,-0.06,-0.12,-0.21
2276,1.04,-0.65,12.26,-0.06,0.08,-0.22
2280,1.04,-0.65,12.26,-0.03,-0.01,-0.21
2286,5.13,-2.53,10.04,-0.03,-0.01,-0.21
2290,5.13,-2.53,10.04,0.05,-0.07,-0.14
2295,5.13,-2.53,10.04,0.05,0.15,-0.13
2301,5.13,-2.53,10.04,0.03,0.31,-0.13
2306,-10.19,0.80,5.67,0.03,0.31,-0.13
2311,-10.19,0.80,5.67,0.01,0.30,-0.15
2315,-10.19,0.80,5.67,0.02,0.24,-0.16
2321,-4.41,-2.03,7.24,0.02,0.24,-0.16
2326,-4.41,-2.03,7.24,0.01,-0.08,-0.17
2330,-4.41,-2.03,7.24,0.01,-0.33,-0.14
2336,-4.41,-2.03,7.24,0.02,-0.52,-0.07
2341,4.67,-1.99,8.31,0.02,-0.52,-0.07
2346,4.67,-1.99,8.31,0.17,-0.49,0.02
2350,4.67,-1.99,8.31,0.14,0.07,0.02
2356,-1.65,-3.10,10.84,0.14,0.07,0.02
2361,-1.65,-3.10,10.84,0.18,0.40,0.04
2365,-1.65,-3.10,10.84,0.19,0.23,0.07
2371,-1.65,-3.10,10.84,0.21,0.15,0.07
2376,-1.65,-3.10,10.84,0.18,0.10,0.06
2381,-1.65,-3.10,10.84,0.13,-0.02,0.05
2386,-1.65,-3.10,10.84,0.08,-0.22,0.05
2391,3.68,-2.03,5.21,0.08,-0.22,0.05
2396,3.68,-2.03,5.21,0.01,-0.66,0.07
2400,3.68,-2.03,5.21,0.04,-0.75,0.08
2406,3.68,-2.03,5.21,0.18,-0.44,0.10
2410,3.68,-2.03,5.21,0.13,0.12,0.12
2416,3.68,-2.03,5.21,0.14,0.29,0.10
2421,3.68,-2.03,5.21,0.23,0.16,0.12
2426,-1.53,-1.38,10.23,0.23,0.16,0.12
2431,-1.53,-1.38,10.23,0.21,-0.12,0.17
2435,-1.53,-1.38,10.23,0.22,-0.14,0.14
2441,-1.53,-1.38,10.23,0.18,-0.13,0.12
2446,-1.53,-1.38,10.23,0.10,-0.15,0.11
2451,-1.53,-1.38,10.23,0.08,-0.29,0.14
2456,-1.53,-1.38,10.23,0.04,-0.45,0.13
2461,6.78,-1.27,18.04,0.04,-0.45,0.13
2466,6.78,-1.27,18.04,0.15,-0.47,0.12
2470,6.78,-1.27,18.04,0.15,-0.11,0.14
2476,5.13,-1.65,14.29,0.15,-0.11,0.14
2481,2.41,-1.53,11.76,0.15,-0.11,0.14
2485,2.41,-1.53,11.76,0.18,0.02,0.10
2491,2.41,-1.53,11.76,0.18,0.01,0.10
2496,-2.22,0.92,7.47,0.18,0.01,0.10
2501,-2.22,0.92,7.47,0.14,0.07,0.16
2505,-2.22,0.92,7.47,0.07,0.09,0.16
2511,0.80,0.38,15.13,0.07,0.09,0.16
2516,0.80,0.38,15.13,0.00,-0.05,0.07
2520,0.80,0.38,15.13,0.00,-0.09,-0.03
2526,0.80,0.38,15.13,0.02,-0.11,-0.06
2531,-0.54,-1.46,8.66,0.02,-0.11,-0.06
2536,-0.54,-1.46,8.66,0.06,-0.13,0.12
2541,-0.54,-1.46,8.66,0.09,-0.12,0.21
2546,1.30,0.69,9.35,0.09,-0.12,0.21
2551,1.30,0.69,9.35,0.06,0.10,0.10
2555,1.30,0.69,9.35,0.03,0.22,0.05
2561,1.30,0.69,9.35,0.05,0.21,0.06
2566,-4.18,0.50,9.39,0.05,0.21,0.06
2571,-4.18,0.50,9.39,0.05,0.12,0.07
2575,-4.18,0.50,9.39,0.02,0.07,0.09
2581,-4.18,0.50,9.39,-0.05,-0.03,0.08
2586,-4.18,0.50,9.39,-0.09,-0.16,0.05
2590,-4.18,0.50,9.39,-0.08,-0.25,-0.00
2596,-4.18,0.50,9.39,-0.04,-0.12,-0.05
2601,-1.42,-1.61,9.84,-0.04,-0.12,-0.05
2606,-1.42,-1.61,9.84,0.03,0.26,0.02
2611,-1.42,-1.61,9.84,0.07,0.08,0.04
2616,3.91,0.34,7.82,0.07,0.08,0.04
2621,3.91,0.34,7.82,0.13,0.11,0.12
2625,3.91,0.34,7.82,0.08,0.38,0.09
2631,-9.42,0.77,8.20,0.08,0.38,0.09
2636,-9.42,0.77,8.20,0.12,0.56,0.03
2640,-9.42,0.77,8.20,0.11,0.47,0.00
2646,-9.42,0.77,8.20,0.10,0.31,0.02
2651,-1.34,1.61,8.82,0.10,0.31,0.02
2656,-1.34,1.61,8.82,0.04,-0.08,0.06
2660,-1.34,1.61,8.82,-0.01,-0.20,0.04
2666,1.38,-0.57,3.56,-0.01,-0.20,0.04
2670,1.38,-0.57,3.56,-0.10,-0.37,-0.04
2675,1.38,-0.57,3.56,0.00,-0.40,-0.00
2681,1.38,-0.57,3.56,0.09,0.06,0.08
2686,-2.38,-0.88,8.88,0.09,0.06,0.08
2691,-2.38,-0.88,8.88,0.04,0.62,0.06
2695,-2.38,-0.88,8.88,0.14,0.54,0.05
2701,-2.38,-0.88,8.88,0.14,0.40,0.05
2706,-2.38,-0.88,8.88,0.12,0.23,0.06
2711,-2.38,-0.88,8.88,0.11,-0.03,0.10
2716,-2.38,-0.88,8.88,0.07,-0.27,0.17
2721,5.36,-1.23,6.55,0.07,-0.27,0.17
2726,5.36,-1.23,6.55,-0.02,-0.53,0.21
2730,5.36,-1.23,6.55,0.00,-0.55,0.20
2736,4.10,-2.84,10.30,0.00,-0.55,0.20
2741,4.10,-2.84,10.30,0.12,0.23,0.27
2745,4.10,-2.84,10.30,0.09,0.46,0.27
2751,4.10,-2.84,10.30,0.15,0.36,0.29
2756,-3.56,-0.11,13.71,0.15,0.36,0.29
2761,-3.56,-0.11,13.71,0.14,0.11,0.27
2766,-3.56,-0.11,13.71,0.09,0.04,0.22
2771,4.33,-1.23,8.01,0.09,0.04,0.22
2776,4.33,-1.23,8.01,0.07,-0.18,0.21
2780,4.33,-1.23,8.01,0.05,-0.26,0.26
2786,4.33,-1.23,8.01,0.04,-0.29,0.30
2791,1.88,0.00,8.96,0.04,-0.29,0.30
2796,1.88,0.00,8.96,0.05,-0.23,0.34
2801,1.88,0.00,8.96,0.06,-0.12,0.31
2806,0.27,-2.26,11.99,0.06,-0.12,0.31
2811,0.27,-2.26,11.99,0.03,0.04,0.25
2815,0.27,-2.26,11.99,0.10,0.03,0.25
2821,0.27,-2.26,11.99,0.14,-0.00,0.27
2826,0.27,-2.26,11.99,0.13,-0.02,0.30
2831,0.27,-2.26,11.99,0.08,-0.05,0.34
2836,0.27,-2.26,11.99,0.05,-0.08,0.31
2841,0.27,-2.26,11.99,0.02,-0.05,0.22
2846,0.27,-2.26,11.99,0.01,0.05,0.14
2850,0.27,-2.26,11.99,0.07,0.14,0.14
2856,-1.84,1.27,6.85,0.07,0.14,0.14
2861,1.72,1.04,10.00,0.07,0.14,0.14
2865,1.72,1.04,10.00,0.08,-0.05,0.32
2871,1.72,1.04,10.00,-0.02,-0.17,0.25
2876,-0.46,1.65,9.88,-0.02,-0.17,0.25
2881,-0.46,1.65,9.88,-0.03,-0.05,0.00
2885,-0.46,1.65,9.88,-0.02,0.21,-0.01
2891,-4.79,1.46,10.35,-0.02,0.21,-0.01
2896,-4.79,1.46,10.35,0.04,0.26,0.07
2900,-4.79,1.46,10.35,-0.00,0.14,0.12
2905,-4.79,1.46,10.35,-0.05,0.02,0.13
2911,-0.15,0.61,7.59,-0.05,0.02,0.13
2916,-0.15,0.61,7.59,-0.10,-0.14,0.00
2920,-0.15,0.61,7.59,-0.10,-0.13,-0.03
2926,2.34,0.27,8.82,-0.10,-0.13,-0.03
2930,2.34,0.27,8.82,-0.07,0.05,0.07
2935,2.34,0.27,8.82,-0.11,0.23,0.06
2941,2.34,0.27,8.82,-0.15,0.30,0.02
2945,2.34,0.27,8.82,-0.12,0.32,-0.02
2950,2.34,0.27,8.82,-0.11,0.29,-0.06
2955,2.34,0.27,8.82,-0.09,0.27,-0.10
2961,2.34,0.27,8.82,-0.11,0.23,-0.11
2965,2.34,0.27,8.82,-0.09,0.16,-0.10
2970,2.34,0.27,8.82,-0.09,0.08,-0.08
2975,2.34,0.27,8.82,-0.11,0.02,-0.07
2981,-1.00,1.91,5.02,-0.11,0.02,-0.07
2985,-1.00,1.91,5.02,-0.18,-0.00,-0.09
2990,-1.00,1.91,5.02,-0.21,0.00,-0.13
2996,-0.50,1.38,9.50,-0.21,0.00,-0.13
3000,-0.50,1.38,9.50,-0.21,-0.00,-0.23
3005,-0.50,1.38,9.50,-0.18,0.06,-0.25
3011,-0.50,1.38,9.50,-0.19,0.10,-0.25
3015,-0.50,1.38,9.50,-0.18,0.06,-0.22
3020,-0.50,1.38,9.50,-0.18,-0.01,-0.21
3026,-0.50,1.38,9.50,-0.19,-0.08,-0.21
3031,2.26,0.08,10.41,-0.19,-0.08,-0.21
3035,2.26,0.08,10.41,-0.16,-0.03,-0.23
3040,2.26,0.08,10.41,-0.17,0.09,-0.23
3046,2.26,0.08,10.41,-0.15,0.12,-0.22
3051,2.26,0.08,10.41,-0.12,0.09,-0.22
3055,2.26,0.08,10.41,-0.09,0.05,-0.21
3060,2.26,0.08,10.41,-0.11,0.02,-0.18
3066,1.00,-1.07,9.61,-0.11,0.02,-0.18
3070,1.00,-1.07,9.61,-0.08,0.01,-0.13
3076,1.00,-1.07,9.61,-0.11,0.03,-0.14
3081,1.00,-1.07,9.61,-0.12,-0.02,-0.16
3085,1.00,-1.07,9.61,-0.13,-0.07,-0.15
3090,1.00,-1.07,9.61,-0.15,-0.11,-0.16
3096,1.00,-1.07,9.61,-0.16,-0.12,-0.19
3101,1.00,-1.07,9.61,-0.17,-0.11,-0.21
3105,1.00,-1.07,9.61,-0.17,-0.08,-0.22
3110,1.00,-1.07,9.61,-0.16,-0.07,-0.21
3115,0.65,-1.91,10.50,-0.16,-0.07,-0.21
3121,0.46,-1.34,9.92,-0.16,-0.07,-0.21
3125,0.46,-1.34,9.92,-0.12,-0.14,-0.19
3131,0.46,-1.34,9.92,-0.11,-0.16,-0.18
3135,0.46,-1.34,9.92,-0.08,-0.14,-0.15
3140,0.46,-1.34,9.92,-0.07,-0.09,-0.12
3146,0.46,-1.34,9.92,-0.07,-0.06,-0.11
3151,0.65,-1.68,11.38,-0.07,-0.06,-0.11
3155,0.65,-1.68,11.38,-0.04,0.00,-0.09
3160,0.65,-1.68,11.38,-0.02,0.02,-0.08
3166,0.65,-1.68,11.38,-0.00,0.03,-0.08
3171,0.65,-1.68,11.38,0.00,0.07,-0.08
3175,0.65,-1.68,11.38,0.01,0.09,-0.08
3181,0.65,-1.68,11.38,0.02,0.09,-0.07
3186,-1.61,-0.23,9.35,0.02,0.09,-0.07
3190,-1.61,-0.57,9.20,0.02,0.09,-0.07
3196,-1.61,-0.57,9.20,-0.02,-0.07,-0.09
3201,-1.61,-0.57,9.20,-0.02,-0.08,-0.10
3205,-1.61,-0.57,9.20,-0.05,-0.12,-0.11
3210,-1.61,-0.57,9.20,-0.06,-0.21,-0.09
3215,-1.61,-0.57,9.20,-0.07,-0.28,-0.09
3221,-1.61,-0.57,9.20,-0.09,-0.29,-0.11
3225,-1.61,-0.57,9.20,-0.05,-0.22,-0.12
3231,-1.61,-0.57,9.20,-0.06,-0.07,-0.11
3235,-1.61,-0.57,9.20,-0.06,0.03,-0.11
3241,2.57,-0.92,12.45,-0.06,0.03,-0.11
3245,2.57,-0.92,12.45,-0.01,-0.14,-0.06
3250,2.57,-0.92,12.45,0.03,-0.15,-0.02
3256,1.53,-2.18,11.76,0.03,-0.15,-0.02
3260,1.53,-2.18,11.76,0.05,0.16,0.02
3265,1.53,-2.18,11.76,0.05,0.21,0.01
3271,1.53,-2.18,11.76,0.07,0.18,0.03
3275,1.53,-2.18,11.76,0.07,0.16,0.05
3280,1.53,-2.18,11.76,0.06,0.16,0.06
3285,1.53,-2.18,11.76,0.03,0.13,0.06
3291,-2.03,-0.23,7.43,0.03,0.13,0.06
3296,-2.03,-0.23,7.43,0.00,-0.02,0.04
3300,-0.69,-1.00,5.86,0.00,-0.02,0.04
3306,-0.69,-1.00,5.86,-0.02,-0.20,0.04
3310,-0.69,-1.00,5.86,-0.03,-0.29,0.06
3315,-0.69,-1.00,5.86,-0.03,-0.35,0.08
3321,-0.69,-1.00,5.86,0.04,-0.27,0.07
3325,-0.69,-1.00,5.86,0.02,0.02,0.06
3330,-0.69,-1.00,5.86,0.02,0.27,0.06
3335,-0.69,-1.00,5.86,0.04,0.30,0.06
3341,-0.69,-1.00,5.86,0.05,0.21,0.06
3345,-0.69,-1.00,5.86,0.03,0.11,0.04
3351,-0.69,-1.00,5.86,0.01,0.01,0.02
3355,-0.69,-1.00,5.86,-0.01,-0.10,0.03
3361,-0.69,-1.00,5.86,-0.02,-0.18,0.04
3365,-0.69,-1.00,5.86,-0.02,-0.21,0.05
3371,-0.69,-1.00,5.86,0.01,-0.17,0.06
3375,-0.69,-1.00,5.86,0.02,-0.02,0.06
3380,-0.69,-1.00,5.86,-0.00,0.16,0.05
3385,-0.69,-1.00,5.86,0.01,0.21,0.04
3391,-0.69,-1.00,5.86,0.01,0.15,0.04
3395,-0.69,-1.00,5.86,0.02,0.11,0.00
3400,-0.69,-1.00,5.86,-0.04,0.05,-0.03
3405,-0.69,-1.00,5.86,-0.04,-0.07,-0.05
3411,1.76,-0.73,8.96,-0.04,-0.07,-0.05
3416,1.76,-0.73,8.96,-0.06,-0.27,-0.05
3420,2.95,-1.53,12.45,-0.06,-0.27,-0.05
3426,2.95,-1.53,12.45,-0.01,-0.23,-0.05
3431,2.95,-1.53,12.45,-0.03,0.00,-0.08
3435,2.95,-0.69,10.80,-0.03,0.00,-0.08
3440,2.95,-0.69,10.80,-0.03,0.14,-0.09
3446,-0.77,-0.54,10.31,-0.03,0.14,-0.09
3450,-0.84,0.19,9.54,-0.03,0.14,-0.09
3455,-0.84,0.19,9.54,-0.04,0.10,-0.13
3461,-0.84,0.19,9.54,-0.04,0.13,-0.14
3466,-0.84,0.19,9.54,-0.05,0.13,-0.14
3471,-1.11,-0.61,9.34,-0.05,0.13,-0.14
3475,-0.61,-1.27,10.42,-0.05,0.13,-0.14
3481,-0.61,-1.27,10.42,-0.06,-0.03,-0.13
3486,-0.61,-1.27,10.42,-0.06,-0.08,-0.13
3490,-0.42,-1.38,10.34,-0.06,-0.08,-0.13
3495,0.00,-1.19,10.27,-0.06,-0.08,-0.13
3501,-0.11,0.15,10.49,-0.06,-0.08,-0.13
3506,-0.11,0.15,10.49,0.02,0.07,-0.02
3510,0.11,0.00,9.27,0.02,0.07,-0.02
3516,0.11,0.00,9.27,0.02,0.02,0.03
3521,0.11,0.00,9.27,0.04,0.00,0.04
3526,0.11,0.00,9.27,-0.01,0.03,0.02
3531,-0.38,0.08,7.89,-0.01,0.03,0.02
3536,-0.88,-0.15,8.31,-0.01,0.03,0.02
3540,0.38,-0.19,10.38,-0.01,0.03,0.02
3546,0.38,-0.19,10.38,0.01,-0.03,0.08
3551,0.38,-0.19,10.38,0.01,0.00,0.07
3556,-0.84,-1.00,11.45,0.01,0.00,0.07
3560,-0.19,-0.27,10.77,0.01,0.00,0.07
3566,-0.19,-0.27,10.77,0.00,0.08,0.06
3571,-0.19,-0.27,10.77,0.02,0.04,0.07
3575,-1.80,-1.57,8.58,0.02,0.04,0.07
3580,-1.42,-0.92,7.97,0.02,0.04,0.07
3585,-1.42,-0.92,7.97,0.07,0.18,0.10
3591,-1.42,-0.92,7.97,0.04,0.20,0.10
3595,-1.42,-0.92,7.97,0.04,0.19,0.11
3601,-1.42,-0.92,7.97,0.03,0.13,0.11
3606,-0.11,-0.23,8.93,0.03,0.13,0.11
3610,0.80,-0.54,10.00,0.03,0.13,0.11
3615,0.80,-0.54,10.00,-0.04,-0.20,0.01
3621,0.80,-0.54,10.00,-0.06,-0.26,-0.00
3626,0.80,-0.54,10.00,-0.00,-0.20,-0.01
3631,3.95,-1.65,11.68,-0.00,-0.20,-0.01
3635,-0.08,-1.04,10.73,-0.00,-0.20,-0.01
3640,-1.34,-0.57,10.34,-0.00,-0.20,-0.01
3645,-1.34,-0.57,10.34,0.02,0.23,-0.02
3651,-1.34,-0.57,10.34,0.02,0.18,-0.03
3656,-1.34,-0.57,10.34,-0.00,0.18,-0.07
3661,-2.22,0.54,9.00,-0.00,0.18,-0.07
3665,-1.53,-0.08,8.36,-0.00,0.18,-0.07
3671,-1.53,-0.08,8.36,-0.02,0.04,-0.11
3676,0.30,0.42,6.21,-0.02,0.04,-0.11
3680,0.61,0.61,5.67,-0.02,0.04,-0.11
3686,0.61,0.61,5.67,-0.07,-0.24,-0.08
3691,0.61,0.61,5.67,-0.07,-0.30,-0.11
3695,1.68,0.77,11.76,-0.07,-0.30,-0.11
3700,1.23,1.04,12.64,-0.07,-0.30,-0.11
3706,1.23,1.04,12.64,-0.06,0.12,-0.12
3710,-3.29,0.92,8.96,-0.06,0.12,-0.12
3715,-0.38,-0.80,10.46,-0.06,0.12,-0.12
3720,1.61,-0.19,10.61,-0.06,0.12,-0.12
3725,1.61,-0.19,10.61,-0.04,-0.09,-0.15
3730,1.61,-0.19,10.61,-0.06,-0.15,-0.15
3735,1.61,-0.19,10.61,-0.05,-0.19,-0.13
3741,1.61,-0.19,10.61,-0.03,-0.12,-0.11
3746,1.61,-0.19,10.61,-0.04,0.06,-0.12
3750,0.88,-1.72,11.22,-0.04,0.06,-0.12
3755,2.68,-1.46,9.69,-0.04,0.06,-0.12
3760,2.68,-1.46,9.69,-0.02,0.11,-0.13
3765,2.68,-1.46,9.69,-0.01,0.09,-0.14
3771,2.68,-1.46,9.69,0.01,0.12,-0.14
3776,2.68,-1.46,9.69,0.02,0.16,-0.11
3780,-1.68,-0.08,9.43,0.02,0.16,-0.11
3785,-1.99,1.00,9.00,0.02,0.16,-0.11
3791,-1.99,1.00,9.00,-0.03,0.04,-0.16
3796,-1.99,1.00,9.00,-0.04,-0.06,-0.19
3800,-1.00,-0.61,9.00,-0.04,-0.06,-0.19
3805,-0.54,0.04,9.00,-0.04,-0.06,-0.19
3810,-0.54,0.04,9.00,-0.03,-0.20,-0.12
3815,-0.54,0.04,9.00,-0.02,-0.12,-0.12
3822,-0.54,0.04,9.00,-0.02,0.02,-0.14
3826,-0.54,0.04,9.00,-0.01,0.07,-0.12
3830,-0.61,-1.27,8.82,-0.01,0.07,-0.12
3835,-1.76,-0.92,7.39,-0.01,0.07,-0.12
3841,-1.76,-0.92,7.39,0.03,0.18,-0.09
3846,-1.76,-0.92,7.39,0.02,0.21,-0.10
3850,-5.67,0.08,7.89,0.02,0.21,-0.10
3855,-3.91,0.61,7.63,0.02,0.21,-0.10
3861,-3.91,0.61,7.63,0.02,0.04,-0.09
3865,1.46,-0.57,9.58,0.02,0.04,-0.09
3870,1.84,-0.46,8.54,0.02,0.04,-0.09
3875,1.84,-0.46,8.54,-0.00,-0.36,-0.02
3881,1.84,-0.46,8.54,0.04,-0.35,-0.02
3886,1.84,-0.46,8.54,0.07,-0.17,0.00
3891,1.91,-0.46,9.50,0.07,-0.17,0.00
3895,0.00,-1.53,9.81,0.07,-0.17,0.00
3900,-1.46,0.08,10.49,0.07,-0.17,0.00
3905,-1.46,0.08,10.49,0.09,0.03,0.07
3911,-1.46,0.08,10.49,0.06,-0.02,0.05
3916,-1.46,0.08,10.49,0.05,-0.03,0.01
3920,1.53,-1.91,11.30,0.05,-0.03,0.01
3925,2.45,-2.14,10.91,0.05,-0.03,0.01
3931,2.45,-2.14,10.91,0.08,0.02,0.09
3935,0.65,-1.34,10.15,0.08,0.02,0.09
3940,0.15,-1.88,10.57,0.08,0.02,0.09
3946,0.15,-1.88,10.57,0.09,0.09,0.10
3951,0.15,-1.88,10.57,0.11,0.08,0.10
3956,-2.99,-0.46,10.07,0.11,0.08,0.10
3960,-3.03,0.11,8.27,0.11,0.08,0.10
3965,-3.83,-0.27,9.96,0.11,0.08,0.10
3970,-1.46,0.00,8.81,0.11,0.08,0.10
3976,-1.46,0.00,8.81,0.08,0.09,0.08
3981,-0.54,-1.23,9.42,0.08,0.09,0.08
3985,1.95,-1.80,10.15,0.08,0.09,0.08
3990,2.22,-1.23,11.07,0.08,0.09,0.08
3996,2.22,-1.23,11.07,0.06,-0.28,0.06
4001,2.14,-0.77,11.60,0.06,-0.28,0.06
4005,1.57,-0.65,10.41,0.06,-0.28,0.06
4010,0.38,-1.34,10.73,0.06,-0.28,0.06
4016,0.38,-1.34,10.73,0.07,0.13,0.06
4021,0.38,-1.34,10.73,0.08,0.03,0.08
4025,-1.42,-1.38,9.61,0.08,0.03,0.08
4030,-4.06,-0.80,9.27,0.08,0.03,0.08
4036,-4.06,-0.80,9.27,0.08,0.08,0.08
4040,-1.84,-0.27,7.05,0.08,0.08,0.08
4045,-1.53,0.19,5.48,0.08,0.08,0.08
4051,-2.30,0.57,5.21,0.08,0.08,0.08
4055,-1.91,0.88,4.67,0.08,0.08,0.08
4060,-1.76,1.04,4.79,0.08,0.08,0.08
4065,-1.61,0.69,5.40,0.08,0.08,0.08
4071,-1.61,0.69,5.40,0.01,-0.21,0.11
4075,5.75,-1.07,9.88,0.01,-0.21,0.11
4080,4.75,-0.77,10.11,0.01,-0.21,0.11
4086,4.75,-0.77,10.11,0.03,-0.08,0.14
4090,1.11,-0.96,8.96,0.03,-0.08,0.14
4095,-1.76,-1.04,9.73,0.03,-0.08,0.14
4101,-1.42,-0.50,10.84,0.03,-0.08,0.14
4105,-2.49,-0.88,12.52,0.03,-0.08,0.14
4110,-2.03,-0.96,12.38,0.03,-0.08,0.14
4115,-1.15,-1.49,13.17,0.03,-0.08,0.14
4121,-1.00,-1.38,12.14,0.03,-0.08,0.14
4125,-2.80,-1.00,7.89,0.03,-0.08,0.14
4130,-2.41,-1.23,7.20,0.03,-0.08,0.14
4136,-2.18,-0.54,6.32,0.03,-0.08,0.14
4140,-1.11,-0.34,7.59,0.03,-0.08,0.14
4145,-1.15,0.08,8.77,0.03,-0.08,0.14
4150,-0.84,-0.46,10.69,0.03,-0.08,0.14
4156,-0.84,-0.46,10.69,0.04,0.02,0.12
4160,-4.21,-0.69,11.72,0.04,0.02,0.12
4165,-1.19,-1.57,11.53,0.04,0.02,0.12
4171,-1.19,-0.96,11.11,0.04,0.02,0.12
4175,0.30,-0.42,8.85,0.04,0.02,0.12
4180,1.61,-0.50,10.15,0.04,0.02,0.12
4185,1.53,0.15,9.43,0.04,0.02,0.12
4191,1.53,0.15,9.43,0.02,-0.08,0.05
4195,0.38,-0.08,10.15,0.02,-0.08,0.05
4200,1.07,-0.61,10.19,0.02,-0.08,0.05
4206,-0.34,-0.50,10.19,0.02,-0.08,0.05
4210,-2.53,-0.38,10.23,0.02,-0.08,0.05
4215,-2.26,0.04,9.54,0.02,-0.08,0.05
4220,-1.76,-0.15,9.23,0.02,-0.08,0.05
4226,-1.76,-0.15,9.23,-0.00,0.03,-0.03
4231,-0.34,0.19,9.77,-0.00,0.03,-0.03
4235,-0.34,0.19,9.77,-0.03,-0.14,-0.00
4240,0.57,0.84,9.23,-0.03,-0.14,-0.00
4245,1.27,0.92,8.82,-0.03,-0.14,-0.00
4250,-0.23,1.00,8.16,-0.03,-0.14,-0.00
4256,-0.38,1.34,8.89,-0.03,-0.14,-0.00
4260,1.72,1.38,9.08,-0.03,-0.14,-0.00
4265,2.18,0.23,10.19,-0.03,-0.14,-0.00
4270,2.57,-0.15,10.49,-0.03,-0.14,-0.00
4275,2.68,0.08,10.84,-0.03,-0.14,-0.00
4281,2.68,0.08,10.84,-0.08,-0.08,-0.05
4286,1.38,-0.34,9.20,-0.08,-0.08,-0.05
4290,-1.30,-0.50,5.36,-0.08,-0.08,-0.05
4295,1.15,0.88,6.85,-0.08,-0.08,-0.05
4300,0.73,0.04,7.63,-0.08,-0.08,-0.05
4305,-0.77,0.69,8.28,-0.08,-0.08,-0.05
4311,-0.61,0.34,9.77,-0.08,-0.08,-0.05
4316,0.61,-0.42,12.45,-0.08,-0.08,-0.05
4320,0.61,-0.42,12.45,-0.09,0.03,-0.13
4325,-0.73,-1.88,11.41,-0.09,0.03,-0.13
4330,-0.57,-1.42,10.27,-0.09,0.03,-0.13
4335,-1.76,-0.34,9.77,-0.09,0.03,-0.13
4341,-2.38,0.23,8.78,-0.09,0.03,-0.13
4345,-2.95,0.34,8.78,-0.09,0.03,-0.13
4350,-3.48,0.34,8.70,-0.09,0.03,-0.13
4355,-4.98,1.57,4.94,-0.09,0.03,-0.13
4361,-2.30,0.27,7.05,-0.09,0.03,-0.13
4366,-0.34,1.46,6.59,-0.09,0.03,-0.13
4370,-0.34,1.46,6.59,-0.13,-0.16,-0.16
4375,-0.34,1.46,6.59,-0.13,-0.22,-0.13
4381,1.27,-0.08,7.85,-0.13,-0.22,-0.13
4386,1.72,0.23,10.34,-0.13,-0.22,-0.13
4390,1.72,0.23,10.34,-0.12,0.05,-0.13
4395,1.72,0.23,10.34,-0.11,0.04,-0.11
4400,1.42,-0.80,12.64,-0.11,0.04,-0.11
4405,0.50,-0.73,12.49,-0.11,0.04,-0.11
4411,0.08,-0.34,12.30,-0.11,0.04,-0.11
4415,-1.38,-0.08,11.22,-0.11,0.04,-0.11
4420,2.61,-0.65,11.72,-0.11,0.04,-0.11
4425,2.11,-0.65,11.07,-0.11,0.04,-0.11
4431,2.87,-1.00,10.19,-0.11,0.04,-0.11
4436,2.26,-1.00,11.15,-0.11,0.04,-0.11
4440,2.26,-1.00,11.15,-0.06,0.07,-0.05
4445,0.00,-0.73,9.42,-0.06,0.07,-0.05
4450,-0.30,-0.84,9.08,-0.06,0.07,-0.05
4455,-0.34,-0.11,9.00,-0.06,0.07,-0.05
4460,0.04,-0.34,9.73,-0.06,0.07,-0.05
4466,-0.84,-0.11,9.42,-0.06,0.07,-0.05
4471,-0.77,-0.42,9.23,-0.06,0.07,-0.05
4475,-0.77,-0.42,9.23,-0.09,-0.02,-0.10
4480,-1.38,-1.19,10.77,-0.09,-0.02,-0.10
4485,1.72,-1.99,9.81,-0.09,-0.02,-0.10
4490,1.34,-1.61,10.92,-0.09,-0.02,-0.10
4495,2.07,-2.26,11.07,-0.09,-0.02,-0.10
4501,1.27,-1.61,11.80,-0.09,-0.02,-0.10
4506,-0.69,-1.76,11.68,-0.09,-0.02,-0.10
4510,-0.69,-1.76,11.68,0.00,0.13,-0.06
4515,-0.69,-1.76,11.68,0.00,0.09,-0.07
4520,-2.26,-0.34,9.42,0.00,0.09,-0.07
4525,1.15,-1.19,8.54,0.00,0.09,-0.07
4530,1.53,-1.30,9.46,0.00,0.09,-0.07
4536,0.27,-0.73,9.00,0.00,0.09,-0.07
4541,-1.95,0.15,7.74,0.00,0.09,-0.07
4545,-1.95,0.15,7.74,0.04,0.25,-0.04
4550,-5.36,-0.65,5.21,0.04,0.25,-0.04
4555,-5.09,0.15,7.17,0.04,0.25,-0.04
4560,-3.10,-0.23,8.62,0.04,0.25,-0.04
4565,-3.48,0.65,7.63,0.04,0.25,-0.04
4571,-1.15,1.15,10.27,0.04,0.25,-0.04
4575,0.73,0.73,10.84,0.04,0.25,-0.04
4580,1.27,2.07,9.73,0.04,0.25,-0.04
4586,2.22,0.73,10.53,0.04,0.25,-0.04
4591,5.52,0.11,10.80,0.04,0.25,-0.04
4595,5.52,0.11,10.80,0.01,0.17,0.03
4601,1.46,-0.08,9.42,0.01,0.17,0.03
4605,-0.88,0.23,9.00,0.01,0.17,0.03
4611,-1.04,1.07,15.63,0.01,0.17,0.03
4615,-1.04,1.07,15.63,-0.02,0.17,0.01
4620,-1.88,-1.88,15.70,-0.02,0.17,0.01
4625,-1.84,-1.42,11.34,-0.02,0.17,0.01
4630,-3.52,-3.10,8.58,-0.02,0.17,0.01
4635,-3.10,-4.45,7.17,-0.02,0.17,0.01
4642,-3.18,-2.57,5.44,-0.02,0.17,0.01
4646,-1.99,-1.61,6.82,-0.02,0.17,0.01
4650,-1.99,-1.61,6.82,-0.02,0.07,0.06
4655,-1.99,-1.61,6.82,-0.05,-0.03,0.03
4660,-1.65,0.46,9.12,-0.05,-0.03,0.03
4665,-1.84,-0.19,10.19,-0.05,-0.03,0.03
4671,-1.84,-0.69,10.34,-0.05,-0.03,0.03
4675,-1.30,0.42,11.07,-0.05,-0.03,0.03
4681,-2.07,0.34,8.24,-0.05,-0.03,0.03
4685,-2.07,0.34,8.24,0.00,0.13,-0.08
4690,2.61,-2.07,10.11,0.00,0.13,-0.08
4695,0.15,-1.65,8.73,0.00,0.13,-0.08
4700,-0.27,-2.11,8.85,0.00,0.13,-0.08
4707,-1.30,-1.84,8.58,0.00,0.13,-0.08
4711,-3.14,0.84,8.42,0.00,0.13,-0.08
4715,-3.14,0.84,8.42,0.05,0.27,-0.10
4720,-3.14,0.84,8.42,0.01,0.19,-0.08
4725,-1.46,0.77,9.46,0.01,0.19,-0.08
4731,-0.27,0.08,9.39,0.01,0.19,-0.08
4735,-0.27,0.08,9.39,-0.04,-0.12,-0.11
4741,2.22,-0.08,9.42,-0.04,-0.12,-0.11
4747,2.76,-0.88,9.12,-0.04,-0.12,-0.11
4750,2.76,-0.88,9.12,0.03,-0.22,-0.01
4755,2.76,-0.88,9.12,0.04,-0.08,0.02
4760,-0.08,0.84,8.66,0.04,-0.08,0.02
4766,-0.84,-0.19,8.73,0.04,-0.08,0.02
4770,-0.84,-0.19,8.73,0.06,0.17,0.03
4776,-0.84,-0.19,8.73,0.03,0.08,0.03
4781,3.22,-1.42,9.43,0.03,0.08,0.03
4785,3.22,-1.42,9.43,-0.00,-0.12,-0.02
4790,3.22,-1.42,9.43,0.01,-0.12,-0.03
4795,-0.11,-1.04,6.82,0.01,-0.12,-0.03
4801,-3.87,0.08,5.75,0.01,-0.12,-0.03
4805,-3.87,0.08,5.75,0.02,0.15,0.02
4810,-3.52,0.84,7.63,0.02,0.15,0.02
4815,-3.22,-0.61,7.78,0.02,0.15,0.02
4821,-0.69,-1.19,8.96,0.02,0.15,0.02
4826,-0.69,-1.19,8.96,-0.03,-0.26,-0.01
4831,0.84,-1.27,7.93,-0.03,-0.26,-0.01
4835,0.84,-1.27,7.93,0.00,-0.35,-0.00
4840,0.84,-1.27,7.93,0.01,-0.17,0.00
4845,3.26,-2.34,9.50,0.01,-0.17,0.00
4850,1.27,-2.80,10.04,0.01,-0.17,0.00
4855,0.15,-1.76,10.41,0.01,-0.17,0.00
4862,-0.54,-1.72,11.26,0.01,-0.17,0.00
4867,-4.37,-0.38,12.79,0.01,-0.17,0.00
4870,-4.37,-0.38,12.79,0.06,0.04,0.03
4875,-4.37,-0.38,12.79,0.06,0.03,0.02
4882,0.80,-0.80,12.22,0.06,0.03,0.02
4886,3.33,-1.65,10.49,0.06,0.03,0.02
4890,3.33,-1.65,10.49,0.06,-0.20,0.10
4896,3.33,-1.65,10.49,0.06,-0.22,0.09
4901,0.23,-0.15,8.46,0.06,-0.22,0.09
4905,0.23,-0.15,8.46,0.05,0.04,0.07
4910,0.23,-0.15,8.46,0.02,0.12,0.05
4915,0.23,-0.15,8.46,0.02,0.11,0.04
4920,-0.77,1.76,11.11,0.02,0.11,0.04
4826,-0.69,-1.19,8.96,-0.03,-0.26,-0.01
4831,0.84,-1.27,7.93,-0.03,-0.26,-0.01
4835,0.84,-1.27,7.93,0.00,-0.35,-0.00
4840,0.84,-1.27,7.93,0.01,-0.17,0.00
4845,3.26,-2.34,9.50,0.01,-0.17,0.00
4850,1.27,-2.80,10.04,0.01,-0.17,0.00
4855,0.15,-1.76,10.41,0.01,-0.17,0.00
4862,-0.54,-1.72,11.26,0.01,-0.17,0.00
4867,-4.37,-0.38,12.79,0.01,-0.17,0.00
4870,-4.37,-0.38,12.79,0.06,0.04,0.03
4875,-4.37,-0.38,12.79,0.06,0.03,0.02
4882,0.80,-0.80,12.22,0.06,0.03,0.02
4886,3.33,-1.65,10.49,0.06,0.03,0.02
4890,3.33,-1.65,10.49,0.06,-0.20,0.10
4896,3.33,-1.65,10.49,0.06,-0.22,0.09
4901,0.23,-0.15,8.46,0.06,-0.22,0.09
