timestamp,accX,accY,accZ,gyroX,gyroY,gyroZ
Right
6,-4.29,-0.61,9.42,-0.17,0.27,-0.13
19,-4.29,-0.61,9.42,-0.19,0.19,-0.12
20,-4.29,-0.61,9.42,0.14,-0.12,0.50
22,-4.29,-0.61,9.42,0.14,-0.12,0.48
26,-1.23,-1.80,9.61,0.14,-0.12,0.48
31,-1.23,-1.80,9.61,0.14,-0.08,0.46
36,-1.23,-1.80,9.61,0.15,-0.03,0.45
41,-3.83,-0.27,6.16,0.15,-0.03,0.45
47,-0.92,-0.30,9.88,0.15,-0.03,0.45
52,-0.92,-0.30,9.88,0.13,0.01,0.38
56,0.54,0.92,10.03,0.13,0.01,0.38
62,1.42,0.50,10.11,0.13,0.01,0.38
67,1.42,0.50,10.11,0.02,-0.13,0.25
72,1.42,0.50,10.11,0.01,-0.13,0.21
77,-0.65,-0.23,10.54,0.01,-0.13,0.21
82,-0.65,-0.23,10.54,0.05,0.01,0.17
87,-0.65,-0.23,10.54,0.04,0.07,0.13
93,1.68,1.53,11.68,0.04,0.07,0.13
96,1.68,1.53,11.68,-0.01,0.09,0.00
101,1.68,1.53,11.68,-0.03,0.12,-0.04
106,1.68,1.53,11.68,-0.06,0.17,-0.07
112,0.65,-0.50,10.84,-0.06,0.17,-0.07
116,0.65,-0.50,10.84,-0.13,0.17,-0.21
122,0.65,-0.50,10.84,-0.14,0.16,-0.27
128,-1.07,-0.54,9.46,-0.14,0.16,-0.27
136,-1.07,-0.54,9.46,-0.15,0.04,-0.25
143,-1.07,-0.54,9.46,-0.17,0.02,-0.29
147,-1.65,2.49,7.39,-0.17,0.02,-0.29
152,-1.65,2.49,7.39,-0.21,0.05,-0.44
157,-1.65,2.49,7.39,-0.20,0.08,-0.43
163,1.42,2.26,8.20,-0.20,0.08,-0.43
166,1.42,2.26,8.20,-0.22,0.06,-0.46
171,1.42,2.26,8.20,-0.21,0.06,-0.46
177,-1.34,1.72,9.46,-0.21,0.06,-0.46
182,-0.30,2.26,9.50,-0.21,0.06,-0.46
187,-0.30,2.26,9.50,-0.16,0.05,-0.37
192,-0.30,2.26,9.50,-0.13,0.04,-0.39
197,-1.23,0.73,7.36,-0.13,0.04,-0.39
202,-1.23,0.73,7.36,-0.13,0.04,-0.36
207,-1.23,0.73,7.36,-0.16,0.04,-0.36
212,0.15,0.65,8.78,-0.16,0.04,-0.36
217,-0.77,0.54,8.36,-0.16,0.04,-0.36
222,-0.77,0.54,8.36,-0.23,-0.03,-0.44
227,-0.77,0.54,8.36,-0.23,-0.06,-0.46
233,0.88,-1.34,11.26,-0.23,-0.06,-0.46
236,0.88,-1.34,11.26,-0.19,-0.05,-0.43
242,0.88,-1.34,11.26,-0.17,0.01,-0.42
247,-0.84,-1.00,10.77,-0.17,0.01,-0.42
252,-1.38,-1.72,10.65,-0.17,0.01,-0.42
256,-1.38,-1.72,10.65,-0.12,0.17,-0.42
261,-1.38,-1.72,10.65,-0.13,0.13,-0.39
267,-1.30,-0.61,9.81,-0.13,0.13,-0.39
272,-1.30,-0.61,9.81,-0.14,0.05,-0.39
276,-1.30,-0.61,9.81,-0.13,0.01,-0.39
281,-1.30,-0.61,9.81,-0.14,-0.01,-0.38
287,0.42,-1.30,10.03,-0.14,-0.01,-0.38
292,0.42,-1.30,10.03,-0.08,0.09,-0.34
297,0.42,-1.30,10.03,-0.08,0.12,-0.29
302,-0.80,-1.00,9.23,-0.08,0.12,-0.29
307,-0.80,-1.00,9.23,-0.07,0.13,-0.29
312,-0.80,-1.00,9.23,-0.08,0.14,-0.31
316,-0.84,-0.96,8.16,-0.08,0.14,-0.31
322,0.57,-1.15,8.04,-0.08,0.14,-0.31
327,0.57,-1.15,8.04,-0.04,0.08,-0.21
332,0.57,-1.15,8.04,-0.03,0.06,-0.20
337,-2.03,0.04,7.59,-0.03,0.06,-0.20
342,-2.03,0.04,7.59,-0.05,0.05,-0.19
347,-2.03,0.04,7.59,-0.05,0.06,-0.19
353,-5.02,0.80,6.24,-0.05,0.06,-0.19
356,-5.02,0.80,6.24,-0.06,0.02,-0.19
362,-5.02,0.80,6.24,-0.08,-0.06,-0.17
367,-5.02,0.80,6.24,-0.08,-0.15,-0.15
372,1.76,0.50,8.46,-0.08,-0.15,-0.15
376,1.76,0.50,8.46,-0.11,-0.26,-0.18
381,1.76,0.50,8.46,-0.12,-0.25,-0.20
386,0.88,-0.69,10.54,-0.12,-0.25,-0.20
391,0.88,-0.69,10.54,-0.10,-0.21,-0.22
398,0.88,-0.69,10.54,-0.07,-0.12,-0.24
402,0.88,-0.69,10.54,-0.08,0.09,-0.30
407,-4.79,0.19,10.34,-0.08,0.09,-0.30
411,-4.79,0.19,10.34,-0.09,0.27,-0.38
416,-4.79,0.19,10.34,-0.11,0.25,-0.35
421,-4.79,0.19,10.34,-0.15,0.13,-0.34
428,0.46,1.84,8.74,-0.15,0.13,-0.34
432,0.46,1.84,8.74,-0.23,-0.17,-0.40
437,0.46,1.84,8.74,-0.22,-0.35,-0.39
443,0.77,-0.73,11.96,-0.22,-0.35,-0.39
446,0.77,-0.73,11.96,-0.13,-0.25,-0.48
452,0.77,-0.73,11.96,-0.12,-0.08,-0.49
457,-5.52,-0.23,8.16,-0.12,-0.08,-0.49
462,-5.52,-0.23,8.16,-0.06,0.26,-0.36
467,-5.52,-0.23,8.16,-0.11,0.35,-0.34
473,-2.91,0.84,6.09,-0.11,0.35,-0.34
476,-2.91,0.84,6.09,-0.16,0.17,-0.34
482,-2.91,0.84,6.09,-0.22,-0.07,-0.37
486,-2.91,0.84,6.09,-0.21,-0.30,-0.41
492,-0.19,-2.41,10.30,-0.21,-0.30,-0.41
496,-0.19,-2.41,10.30,-0.12,-0.36,-0.44
502,-0.19,-2.41,10.30,-0.05,-0.25,-0.33
508,-6.74,-1.80,10.07,-0.05,-0.25,-0.33
512,-6.74,-1.80,10.07,0.04,0.14,-0.12
516,-6.74,-1.80,10.07,0.02,0.22,-0.07
522,-6.74,-1.80,10.07,-0.00,0.19,-0.09
527,0.46,0.96,9.54,-0.00,0.19,-0.09
532,0.46,0.96,9.54,-0.07,-0.11,-0.21
538,0.46,0.96,9.54,-0.09,-0.25,-0.28
541,0.46,0.96,9.54,-0.09,-0.30,-0.31
548,-0.54,-2.41,11.38,-0.09,-0.30,-0.31
551,-0.54,-2.41,11.38,-0.05,-0.13,-0.30
556,-3.87,-0.77,11.04,-0.05,-0.13,-0.30
563,-3.87,-0.77,11.04,-0.04,0.24,-0.26
566,-3.87,-0.77,11.04,-0.04,0.36,-0.26
571,-3.87,-0.77,11.04,-0.05,0.34,-0.26
577,0.04,0.57,8.43,-0.05,0.34,-0.26
582,0.04,0.57,8.43,-0.12,0.03,-0.31
587,0.04,0.57,8.43,-0.12,-0.10,-0.35
592,1.91,-0.73,10.19,-0.12,-0.10,-0.35
597,0.15,-0.50,10.77,-0.12,-0.10,-0.35
602,0.15,-0.50,10.77,-0.04,-0.15,-0.15
607,0.15,-0.50,10.77,-0.05,-0.03,-0.11
612,-0.92,-0.65,9.96,-0.05,-0.03,-0.11
616,-0.92,-0.65,9.96,-0.02,0.13,-0.09
622,-0.92,-0.65,9.96,-0.03,0.14,-0.09
627,-0.92,-0.65,9.96,-0.04,0.10,-0.07
632,-0.30,0.65,6.78,-0.04,0.10,-0.07
637,-0.30,0.65,6.78,-0.10,-0.08,0.01
642,-0.30,0.65,6.78,-0.12,-0.15,-0.00
647,0.15,-1.61,9.58,-0.12,-0.15,-0.00
652,0.15,-1.61,9.58,-0.06,-0.09,-0.05
656,0.15,-1.61,9.58,-0.03,-0.02,-0.00
661,0.15,-1.61,9.58,-0.02,0.02,0.05
667,0.38,-2.64,11.38,-0.02,0.02,0.05
671,0.38,-2.64,11.38,0.01,0.11,-0.04
677,0.38,-2.64,11.38,0.02,0.13,-0.13
682,-2.64,0.23,7.66,0.02,0.13,-0.13
687,-2.64,0.23,7.66,-0.04,0.25,-0.18
692,-2.64,0.23,7.66,-0.05,0.27,-0.14
696,-3.75,1.61,4.63,-0.05,0.27,-0.14
702,-3.10,0.92,4.06,-0.05,0.27,-0.14
706,-3.10,0.92,4.06,-0.17,0.17,-0.24
712,-3.10,0.92,4.06,-0.19,0.08,-0.24
717,1.91,-0.42,12.53,-0.19,0.08,-0.24
722,1.91,-0.42,12.53,-0.10,-0.24,-0.08
727,1.91,-0.42,12.53,-0.10,-0.39,-0.06
732,3.41,-2.41,17.74,-0.10,-0.39,-0.06
736,3.41,-2.41,17.74,-0.08,-0.36,-0.29
742,3.41,-2.41,17.74,0.06,-0.27,-0.38
747,3.41,-2.41,17.74,0.07,-0.11,-0.36
752,-1.00,2.91,6.74,0.07,-0.11,-0.36
756,-1.00,2.91,6.74,-0.05,0.29,-0.24
761,-1.00,2.91,6.74,-0.19,0.43,-0.32
767,-2.49,3.41,5.40,-0.19,0.43,-0.32
772,-2.49,3.41,5.40,-0.35,0.42,-0.63
777,-2.49,3.41,5.40,-0.33,0.26,-0.68
782,-2.49,3.41,5.40,-0.28,0.11,-0.65
787,2.64,-0.04,12.52,-0.28,0.11,-0.65
792,2.64,-0.04,12.52,-0.21,-0.07,-0.56
796,2.64,-0.04,12.52,-0.18,-0.05,-0.59
802,2.64,-0.04,12.52,-0.14,0.03,-0.65
807,2.64,-0.04,12.52,-0.13,0.11,-0.65
812,2.64,-0.04,12.52,-0.14,0.12,-0.57
817,2.64,-0.04,12.52,-0.17,0.09,-0.51
822,-0.96,3.71,7.12,-0.17,0.09,-0.51
827,-0.96,3.71,7.12,-0.26,-0.09,-0.53
832,-0.96,3.71,7.12,-0.33,-0.18,-0.59
837,-0.96,3.71,7.12,-0.33,-0.25,-0.62
842,-0.96,3.71,7.12,-0.31,-0.30,-0.66
847,-0.96,3.71,7.12,-0.26,-0.26,-0.68
852,-0.96,3.71,7.12,-0.24,-0.16,-0.67
857,1.68,-0.61,14.36,-0.24,-0.16,-0.67
861,1.68,-0.61,14.36,-0.15,0.14,-0.65
867,1.68,-0.61,14.36,-0.13,0.31,-0.67
872,-2.84,1.72,9.58,-0.13,0.31,-0.67
877,-2.84,1.72,9.58,-0.17,0.47,-0.65
881,-2.84,1.72,9.58,-0.22,0.46,-0.66
886,-2.84,1.72,9.58,-0.28,0.36,-0.67
892,-2.45,0.88,8.27,-0.28,0.36,-0.67
896,-2.45,0.88,8.27,-0.33,0.10,-0.74
901,-2.45,0.88,8.27,-0.30,-0.02,-0.71
906,-0.57,-2.61,9.73,-0.30,-0.02,-0.71
911,-0.57,-2.61,9.73,-0.22,-0.15,-0.57
918,1.04,-2.84,9.77,-0.22,-0.15,-0.57
922,1.04,-2.84,9.77,-0.16,-0.17,-0.48
927,1.04,-2.84,9.77,-0.12,-0.06,-0.47
932,1.04,-2.84,9.77,-0.10,0.02,-0.42
937,1.04,-2.84,9.77,-0.11,0.10,-0.38
942,-3.52,-0.57,6.97,-0.11,0.10,-0.38
947,-3.52,-0.57,6.97,-0.12,0.11,-0.29
952,-3.52,-0.57,6.97,-0.13,0.02,-0.25
957,-3.52,-0.57,6.97,-0.13,-0.10,-0.23
962,-3.52,-0.57,6.97,-0.12,-0.16,-0.24
966,-3.52,-0.57,6.97,-0.09,-0.07,-0.26
972,-3.52,-0.57,6.97,-0.09,0.07,-0.22
977,1.91,-2.26,15.36,-0.09,0.07,-0.22
981,1.91,-2.26,15.36,-0.04,0.06,0.02
987,1.91,-2.26,15.36,0.10,-0.04,0.03
992,1.91,-2.26,15.36,0.11,-0.01,-0.13
996,1.91,-2.26,15.36,0.14,0.07,-0.30
1002,1.91,-2.26,15.36,0.22,0.15,-0.39
1007,1.91,-2.26,15.36,0.22,0.35,-0.49
1013,-4.68,-2.11,3.91,0.22,0.35,-0.49
1016,-4.68,-2.11,3.91,-0.00,0.92,-0.71
1021,-4.68,-2.11,3.91,-0.11,1.15,-0.72
1027,-4.68,-2.11,3.91,-0.20,1.25,-0.65
1032,-4.68,-2.11,3.91,-0.23,1.19,-0.55
1037,-4.68,-2.11,3.91,-0.25,0.98,-0.48
1041,-4.68,-2.11,3.91,-0.22,0.65,-0.47
1047,-0.69,0.08,7.12,-0.22,0.65,-0.47
1052,-0.69,0.08,7.12,-0.05,-0.18,-0.42
1056,-0.69,0.08,7.12,0.05,-0.43,-0.27
1062,-0.69,0.08,7.12,0.12,-0.56,-0.05
1067,-0.69,0.08,7.12,0.18,-0.54,0.15
1071,-0.69,0.08,7.12,0.18,-0.43,0.29
1076,-0.69,0.08,7.12,0.13,-0.33,0.32
1082,2.61,2.57,14.67,0.13,-0.33,0.32
1086,2.61,2.57,14.67,0.00,-0.29,0.19
1092,2.61,2.57,14.67,-0.06,-0.30,0.04
1097,2.61,2.57,14.67,-0.11,-0.25,-0.13
1102,2.61,2.57,14.67,-0.11,-0.18,-0.27
1106,2.61,2.57,14.67,-0.05,-0.04,-0.39
1111,2.61,2.57,14.67,-0.06,0.27,-0.43
1117,-6.25,0.92,4.83,-0.06,0.27,-0.43
1122,-6.25,0.92,4.83,-0.12,0.71,-0.35
1127,-6.25,0.92,4.83,-0.13,0.80,-0.30
1132,-6.25,0.92,4.83,-0.16,0.76,-0.27
1137,-6.25,0.92,4.83,-0.19,0.53,-0.25
1142,-6.25,0.92,4.83,-0.24,0.20,-0.25
1146,-6.25,0.92,4.83,-0.18,-0.15,-0.25
1152,4.14,-2.87,12.14,-0.18,-0.15,-0.25
1156,4.14,-2.87,12.14,-0.10,-0.60,-0.21
1162,4.14,-2.87,12.14,0.01,-0.61,-0.21
1167,2.18,-3.26,17.31,0.01,-0.61,-0.21
1172,2.18,-3.26,17.31,0.04,-0.29,-0.28
1177,2.18,-3.26,17.31,0.00,-0.00,-0.37
1182,2.18,-3.26,17.31,-0.05,0.25,-0.44
1187,2.18,-3.26,17.31,-0.11,0.41,-0.47
1192,2.18,-3.26,17.31,-0.21,0.45,-0.50
1197,2.18,-3.26,17.31,-0.30,0.37,-0.54
1202,3.68,0.96,8.66,-0.30,0.37,-0.54
1206,3.68,0.96,8.66,-0.31,0.19,-0.73
1212,3.68,0.96,8.66,-0.27,0.17,-0.77
1217,3.68,0.96,8.66,-0.22,0.23,-0.72
1221,3.68,0.96,8.66,-0.17,0.32,-0.62
1227,3.68,0.96,8.66,-0.12,0.37,-0.51
1231,3.68,0.96,8.66,-0.11,0.34,-0.45
1237,1.68,-0.19,11.72,-0.11,0.34,-0.45
1242,1.68,-0.19,11.72,-0.13,0.18,-0.59
1247,1.68,-0.19,11.72,-0.12,0.22,-0.71
1252,1.68,-0.19,11.72,-0.12,0.29,-0.72
1257,1.68,-0.19,11.72,-0.09,0.36,-0.62
1261,1.68,-0.19,11.72,-0.07,0.37,-0.47
1266,1.68,-0.19,11.72,-0.07,0.24,-0.33
1272,5.98,-0.08,10.77,-0.07,0.24,-0.33
1277,5.98,-0.08,10.77,-0.14,-0.40,-0.32
1282,5.98,-0.08,10.77,-0.20,-0.72,-0.46
1287,5.98,-0.08,10.77,-0.26,-0.90,-0.64
1292,5.98,-0.08,10.77,-0.28,-0.89,-0.79
1297,5.98,-0.08,10.77,-0.30,-0.70,-0.85
1301,5.98,-0.08,10.77,-0.19,-0.30,-0.80
1307,-2.38,2.30,13.91,-0.19,-0.30,-0.80
1312,-2.38,2.30,13.91,-0.29,0.56,-0.59
1317,-2.38,2.30,13.91,-0.22,0.69,-0.62
1322,-2.38,2.30,13.91,-0.26,0.67,-0.68
1327,-2.38,2.30,13.91,-0.23,0.54,-0.74
1332,-2.38,2.30,13.91,-0.17,0.36,-0.78
1336,-2.38,2.30,13.91,-0.11,0.19,-0.72
1341,-3.45,-3.14,4.45,-0.11,0.19,-0.72
1346,-3.45,-3.14,4.45,-0.06,0.09,-0.58
1352,-3.45,-3.14,4.45,-0.03,0.04,-0.38
1357,-3.45,-3.14,4.45,-0.09,-0.06,-0.13
1361,-3.45,-3.14,4.45,-0.13,-0.11,-0.19
1367,-3.45,-3.14,4.45,-0.17,-0.18,-0.31
1371,-3.45,-3.14,4.45,-0.21,-0.28,-0.42
1377,3.07,-1.46,8.31,-0.21,-0.28,-0.42
1381,3.07,-1.46,8.31,-0.24,-0.39,-0.53
1387,3.07,-1.46,8.31,-0.22,-0.34,-0.53
1392,3.07,-1.46,8.31,-0.17,-0.21,-0.47
1396,3.07,-1.46,8.31,-0.16,-0.04,-0.38
1402,3.07,-1.46,8.31,-0.14,0.17,-0.30
1407,3.07,-1.46,8.31,-0.13,0.35,-0.29
1412,3.07,-1.46,8.31,-0.14,0.45,-0.31
1416,3.07,-1.46,8.31,-0.14,0.44,-0.36
1421,3.07,-1.46,8.31,-0.14,0.39,-0.42
1427,3.07,-1.46,8.31,-0.13,0.32,-0.47
1432,3.07,-1.46,8.31,-0.08,0.23,-0.43
1437,3.07,-1.46,8.31,-0.03,0.19,-0.31
1442,3.07,-1.46,8.31,0.00,0.18,-0.21
1447,3.07,-1.46,8.31,-0.01,0.17,-0.15
1452,3.07,-1.46,8.31,-0.01,0.12,-0.19
1456,3.07,-1.46,8.31,-0.05,0.09,-0.33
1462,2.22,2.03,9.58,-0.05,0.09,-0.33
1466,2.22,2.03,9.58,-0.19,0.08,-0.64
1472,2.22,2.03,9.58,-0.25,0.11,-0.68
1476,2.22,2.03,9.58,-0.30,0.19,-0.68
1482,-1.91,1.68,9.08,-0.30,0.19,-0.68
1487,-1.91,1.68,9.08,-0.34,0.37,-0.71
1491,-1.91,1.68,9.08,-0.32,0.38,-0.71
1497,-1.61,-1.57,13.21,-0.32,0.38,-0.71
1502,-1.61,-1.57,13.21,-0.23,0.35,-0.77
1507,-1.61,-1.57,13.21,-0.18,0.31,-0.79
1512,-1.61,-1.57,13.21,-0.15,0.23,-0.77
1516,-1.61,-1.57,13.21,-0.13,0.14,-0.72
1522,-1.61,-1.57,13.21,-0.17,0.07,-0.70
1526,-1.61,-1.57,13.21,-0.21,0.02,-0.70
1532,-1.34,1.00,8.04,-0.21,0.02,-0.70
1537,-1.34,1.00,8.04,-0.30,0.02,-0.71
1542,-1.34,1.00,8.04,-0.32,0.05,-0.72
1546,-1.34,1.00,8.04,-0.37,0.08,-0.76
1552,-1.88,-0.04,7.89,-0.37,0.08,-0.76
1557,-1.88,-0.04,7.89,-0.37,0.04,-0.82
1561,-1.88,-0.04,7.89,-0.35,-0.02,-0.80
1567,1.57,-1.04,7.17,-0.35,-0.02,-0.80
1571,1.57,-1.04,7.17,-0.30,-0.14,-0.78
1577,1.57,-1.04,7.17,-0.28,-0.15,-0.79
1582,1.57,-1.04,7.17,-0.22,-0.10,-0.77
1587,-1.19,-1.91,8.77,-0.22,-0.10,-0.77
1592,-1.19,-1.91,8.77,-0.21,0.05,-0.66
1596,-1.19,-1.91,8.77,-0.21,0.09,-0.65
1602,0.11,0.19,9.88,-0.21,0.09,-0.65
1607,0.11,0.19,9.88,-0.22,0.07,-0.76
1612,0.11,0.19,9.88,-0.24,0.02,-0.78
1616,0.11,0.19,9.88,-0.21,-0.03,-0.76
1622,3.07,-1.49,10.23,-0.21,-0.03,-0.76
1627,3.07,-1.49,10.23,-0.19,-0.02,-0.75
1631,3.07,-1.49,10.23,-0.18,0.03,-0.76
1637,0.23,-1.23,10.92,-0.18,0.03,-0.76
1641,0.23,-1.23,10.92,-0.17,0.23,-0.79
1646,0.11,0.34,10.49,-0.17,0.23,-0.79
1652,0.11,0.34,10.49,-0.17,0.36,-0.80
1657,0.04,1.91,9.04,-0.17,0.36,-0.80
1661,0.04,1.91,9.04,-0.25,0.37,-0.82
1666,0.04,1.91,9.04,-0.25,0.33,-0.81
1672,0.34,-0.19,8.96,-0.25,0.33,-0.81
1677,0.34,-0.19,8.96,-0.24,0.23,-0.75
1681,0.34,-0.19,8.96,-0.20,0.21,-0.71
1687,0.34,-0.19,8.96,-0.19,0.21,-0.66
1692,0.34,-0.19,8.96,-0.18,0.22,-0.63
1697,0.34,-0.19,8.96,-0.14,0.20,-0.59
1701,0.34,-0.19,8.96,-0.12,0.14,-0.54
1707,-1.19,-0.57,11.84,-0.12,0.14,-0.54
1712,-1.19,-0.57,11.84,-0.10,0.04,-0.50
1716,-1.19,-0.57,11.84,-0.07,-0.02,-0.48
1722,3.37,-2.99,14.55,-0.07,-0.02,-0.48
1727,3.37,-2.99,14.55,-0.06,-0.04,-0.54
1732,3.37,-2.99,14.55,-0.07,0.03,-0.60
1736,3.37,-2.99,14.55,-0.11,0.13,-0.64
1742,0.38,-2.95,10.95,-0.11,0.13,-0.64
1747,0.38,-2.95,10.95,-0.13,0.31,-0.61
1751,0.38,-2.95,10.95,-0.16,0.35,-0.65
1757,-3.26,-0.84,9.04,-0.16,0.35,-0.65
1762,-3.26,-0.84,9.04,-0.19,0.42,-0.76
1767,-3.26,-0.84,9.04,-0.17,0.43,-0.74
1772,-3.26,-0.84,9.04,-0.15,0.41,-0.68
1777,-2.14,-2.30,9.16,-0.15,0.41,-0.68
1782,-2.14,-2.30,9.16,-0.07,0.23,-0.56
1786,-2.14,-2.30,9.16,-0.06,0.09,-0.54
1792,-0.69,-2.38,7.97,-0.06,0.09,-0.54
1796,-0.69,-2.38,7.97,-0.05,-0.16,-0.45
1801,-0.69,-2.38,7.97,-0.09,-0.20,-0.42
1807,-0.69,-2.38,7.97,-0.11,-0.22,-0.41
1812,-0.54,0.11,7.43,-0.11,-0.22,-0.41
1816,-0.54,0.11,7.43,-0.18,-0.15,-0.45
1821,-0.54,0.11,7.43,-0.21,-0.10,-0.46
1827,0.19,1.65,7.97,-0.21,-0.10,-0.46
1832,0.19,1.65,7.97,-0.21,0.06,-0.48
1836,0.19,1.65,7.97,-0.22,0.16,-0.51
1842,0.19,1.65,7.97,-0.22,0.25,-0.51
1847,-3.95,2.61,7.12,-0.22,0.25,-0.51
1852,-3.95,2.61,7.12,-0.20,0.37,-0.46
1856,-3.95,2.61,7.12,-0.19,0.34,-0.40
1862,-2.76,1.11,7.17,-0.19,0.34,-0.40
1867,-2.76,1.11,7.17,-0.21,0.14,-0.34
1871,-2.76,1.11,7.17,-0.22,0.06,-0.38
1877,-2.76,1.11,7.17,-0.21,-0.01,-0.39
1882,-1.19,-1.04,9.73,-0.21,-0.01,-0.39
1887,-1.19,-1.04,9.73,-0.21,-0.06,-0.38
1891,-1.19,-1.04,9.73,-0.21,-0.03,-0.41
1897,1.65,-0.57,14.67,-0.21,-0.03,-0.41
1902,1.65,-0.57,14.67,-0.23,0.07,-0.57
1906,1.65,-0.57,14.67,-0.24,0.16,-0.69
1912,1.65,-0.57,14.67,-0.26,0.29,-0.81
1916,1.65,-0.57,14.67,-0.28,0.44,-0.86
1922,1.65,-0.57,14.67,-0.29,0.58,-0.88
1926,1.65,-0.57,14.67,-0.32,0.64,-0.87
1932,-1.15,-0.04,7.09,-0.32,0.64,-0.87
1937,-1.15,-0.04,7.09,-0.36,0.51,-0.88
1941,-1.15,-0.04,7.09,-0.33,0.35,-0.92
1947,-1.15,-0.04,7.09,-0.30,0.21,-1.00
1951,-1.15,-0.04,7.09,-0.29,0.11,-1.07
1956,-1.15,-0.04,7.09,-0.23,0.08,-1.09
1961,-1.15,-0.04,7.09,-0.19,0.12,-1.07
1966,-2.72,-2.26,6.82,-0.19,0.12,-1.07
1971,-2.72,-2.26,6.82,-0.20,0.20,-1.03
1977,-2.72,-2.26,6.82,-0.24,0.28,-0.98
1982,-2.72,-2.26,6.82,-0.27,0.23,-1.01
1987,-2.72,-2.26,6.82,-0.31,0.13,-1.08
1992,-2.72,-2.26,6.82,-0.30,0.01,-1.17
1997,-2.72,-2.26,6.82,-0.32,-0.09,-1.29
2002,5.21,-1.84,15.55,-0.32,-0.09,-1.29
2007,5.21,-1.84,15.55,-0.23,-0.07,-1.49
2011,5.21,-1.84,15.55,-0.21,0.03,-1.50
2017,3.68,-0.38,13.37,-0.21,0.03,-1.50
2022,3.68,-0.38,13.37,-0.23,0.30,-1.46
2026,3.68,-0.38,13.37,-0.29,0.39,-1.53
2032,3.68,-0.38,13.37,-0.37,0.44,-1.68
2037,4.14,2.22,12.68,-0.37,0.44,-1.68
2042,4.14,2.22,12.68,-0.47,0.47,-1.99
2046,4.14,2.22,12.68,-0.47,0.51,-2.05
2052,3.64,-0.46,12.06,-0.47,0.51,-2.05
2057,3.64,-0.46,12.06,-0.39,0.54,-1.94
2061,3.64,-0.46,12.06,-0.35,0.55,-1.88
2067,3.64,-0.46,12.06,-0.33,0.52,-1.86
2072,2.64,2.49,11.88,-0.33,0.52,-1.86
2077,2.64,2.49,11.88,-0.32,0.50,-1.94
2081,2.64,2.49,11.88,-0.32,0.48,-1.96
2087,1.19,2.38,11.19,-0.32,0.48,-1.96
2091,1.19,2.38,11.19,-0.29,0.47,-1.87
2096,1.19,2.38,11.19,-0.27,0.49,-1.80
2102,1.19,2.38,11.19,-0.26,0.51,-1.76
2107,-0.57,1.38,11.07,-0.26,0.51,-1.76
2112,-0.57,1.38,11.07,-0.27,0.54,-1.81
2116,-0.57,1.38,11.07,-0.24,0.54,-1.84
2121,-0.23,-0.77,10.65,-0.24,0.54,-1.84
2126,-0.23,-0.77,10.65,-0.21,0.54,-1.84
2132,-0.23,-0.77,10.65,-0.19,0.56,-1.81
2137,-0.23,-0.77,10.65,-0.08,0.60,-1.67
2142,-1.72,-3.41,10.07,-0.08,0.60,-1.67
2147,-1.72,-3.41,10.07,-0.02,0.62,-1.58
2151,-1.72,-3.41,10.07,0.00,0.61,-1.56
2157,-1.61,-3.29,11.64,0.00,0.61,-1.56
2162,-1.61,-3.29,11.64,0.11,0.60,-1.48
2166,-1.61,-3.29,11.64,0.15,0.58,-1.37
2171,-1.61,-3.29,11.64,0.19,0.57,-1.28
2177,-0.19,-4.60,9.16,0.19,0.57,-1.28
2181,-0.19,-4.60,9.16,0.22,0.62,-1.17
2187,-0.19,-4.60,9.16,0.25,0.66,-1.08
2192,-1.57,-2.99,11.00,0.25,0.66,-1.08
2196,-1.57,-2.99,11.00,0.34,0.71,-0.86
2201,-1.57,-2.99,11.00,0.39,0.71,-0.79
2207,0.08,-1.76,11.60,0.39,0.71,-0.79
2211,0.08,-1.76,11.60,0.45,0.72,-0.69
2216,0.08,-1.76,11.60,0.49,0.73,-0.62
2222,0.08,-1.76,11.60,0.49,0.71,-0.54
2227,0.96,-3.60,8.16,0.49,0.71,-0.54
2232,0.96,-3.60,8.16,0.51,0.62,-0.38
2236,0.96,-3.60,8.16,0.50,0.61,-0.35
2242,0.96,-3.60,8.16,0.51,0.64,-0.32
2247,0.96,-3.60,8.16,0.53,0.70,-0.28
2252,0.96,-3.60,8.16,0.57,0.75,-0.21
2257,0.96,-3.60,8.16,0.61,0.77,-0.13
2262,-4.67,-2.76,10.23,0.61,0.77,-0.13
2267,-4.67,-2.76,10.23,0.62,0.70,-0.05
2271,-4.67,-2.76,10.23,0.62,0.59,-0.03
2276,-0.80,-5.32,7.51,0.62,0.59,-0.03
2281,-2.11,-5.29,7.55,0.62,0.59,-0.03
2286,-1.57,-5.59,7.55,0.62,0.59,-0.03
2291,-1.57,-5.59,7.55,0.60,0.11,0.12
2297,-1.95,-3.52,10.23,0.60,0.11,0.12
2302,-1.95,-3.52,10.23,0.57,0.16,0.16
2306,-1.95,-3.52,10.23,0.55,0.24,0.13
2312,-0.57,-2.45,9.39,0.55,0.24,0.13
2317,-0.57,-2.45,9.39,0.53,0.36,0.09
2321,-0.57,-2.45,9.39,0.55,0.41,0.09
2327,-0.57,-2.45,9.39,0.58,0.39,0.12
2332,2.26,-2.84,8.77,0.58,0.39,0.12
2337,2.26,-2.84,8.77,0.57,0.23,0.22
2342,2.26,-2.84,8.77,0.56,0.19,0.19
2347,1.65,-2.53,8.62,0.56,0.19,0.19
2352,1.65,-2.53,8.62,0.55,0.12,0.23
2356,1.65,-2.53,8.62,0.52,0.12,0.21
2362,1.65,-2.53,8.62,0.49,0.13,0.16
2367,1.00,-1.38,6.82,0.49,0.13,0.16
2372,1.00,-1.38,6.82,0.46,0.09,0.12
2376,1.00,-1.38,6.82,0.43,0.09,0.12
2382,1.00,-1.38,6.82,0.39,0.09,0.11
2387,1.00,-1.38,6.82,0.37,0.10,0.09
2391,1.00,-1.38,6.82,0.35,0.08,0.09
2397,1.00,-1.38,6.82,0.33,0.03,0.09
2402,1.30,-0.92,9.84,0.33,0.03,0.09
2406,1.30,-0.92,9.84,0.34,-0.07,0.05
2412,1.30,-0.92,9.84,0.37,-0.10,-0.01
2417,2.41,-2.68,13.29,0.37,-0.10,-0.01
2422,2.41,-2.68,13.29,0.43,-0.03,-0.08
2426,2.41,-2.68,13.29,0.41,0.06,-0.12
2432,-1.42,0.23,7.85,0.41,0.06,-0.12
2437,-1.42,0.23,7.85,0.32,0.24,-0.14
2441,-1.42,0.23,7.85,0.25,0.27,-0.17
2447,-1.42,0.23,7.85,0.18,0.29,-0.23
2452,0.80,0.96,10.00,0.18,0.29,-0.23
2456,0.80,0.96,10.00,0.12,0.24,-0.42
2461,0.80,0.96,10.00,0.12,0.20,-0.50
2467,0.23,-1.95,10.91,0.12,0.20,-0.50
2471,0.23,-1.95,10.91,0.20,0.19,-0.49
2476,0.23,-1.95,10.91,0.22,0.21,-0.43
2481,0.23,-1.95,10.91,0.25,0.22,-0.38
2487,0.54,-0.15,8.39,0.25,0.22,-0.38
2491,0.54,-0.15,8.39,0.21,0.13,-0.37
2496,0.54,-0.15,8.39,0.18,0.08,-0.45
2502,0.54,-0.15,8.39,0.18,0.03,-0.52
2506,0.54,-0.15,8.39,0.17,0.01,-0.54
2511,0.54,-0.15,8.39,0.19,0.04,-0.54
2517,0.54,-0.15,8.39,0.21,0.11,-0.53
2522,0.54,-1.49,11.57,0.21,0.11,-0.53
2526,0.54,-1.49,11.57,0.22,0.26,-0.51
2531,0.54,-1.49,11.57,0.20,0.29,-0.54
2537,-0.38,-0.80,9.61,0.20,0.29,-0.54
2541,-0.38,-0.80,9.61,0.16,0.26,-0.63
2546,-0.38,-0.80,9.61,0.15,0.22,-0.64
2551,-0.38,-0.80,9.61,0.13,0.18,-0.62
2557,-0.15,-1.65,9.46,0.13,0.18,-0.62
2561,-0.15,-1.65,9.46,0.15,0.11,-0.59
2566,-0.15,-1.65,9.46,0.15,0.09,-0.61
2572,1.53,-2.80,10.77,0.15,0.09,-0.61
2576,1.53,-2.80,10.77,0.22,0.08,-0.56
2581,1.53,-2.80,10.77,0.24,0.11,-0.55
2587,1.53,-2.80,10.77,0.23,0.17,-0.54
2591,1.53,-2.80,10.77,0.26,0.23,-0.51
2596,1.53,-2.80,10.77,0.28,0.28,-0.49
2602,1.53,-2.80,10.77,0.26,0.32,-0.47
2607,-2.14,1.34,7.74,0.26,0.32,-0.47
2611,-2.14,1.34,7.74,0.20,0.30,-0.42
2616,-2.14,1.34,7.74,0.16,0.26,-0.42
2622,-2.14,1.34,7.74,0.14,0.21,-0.40
2626,-2.14,1.34,7.74,0.13,0.14,-0.38
2631,-2.14,1.34,7.74,0.14,0.07,-0.33
2636,-2.14,1.34,7.74,0.14,0.02,-0.29
2641,-2.14,1.34,7.74,0.14,0.00,-0.27
2647,-1.61,-1.57,8.84,0.14,0.00,-0.27
2651,-1.61,-1.57,8.84,0.19,0.03,-0.19
2656,-1.61,-1.57,8.84,0.19,0.07,-0.15
2662,-1.15,-0.54,10.65,0.19,0.07,-0.15
2666,-1.15,-0.54,10.65,0.21,0.12,-0.11
2671,-1.15,-0.54,10.65,0.21,0.14,-0.13
2677,-0.46,-0.54,10.61,0.21,0.14,-0.13
2681,-0.46,-0.54,10.61,0.22,0.16,-0.13
2686,-0.46,-0.54,10.61,0.19,0.18,-0.12
2692,-0.92,-2.22,8.62,0.19,0.18,-0.12
2696,-0.92,-2.22,8.62,0.16,0.12,-0.11
2701,-0.92,-2.22,8.62,0.14,0.04,-0.12
2707,-0.92,-2.22,8.62,0.13,0.01,-0.15
2711,-0.92,-2.22,8.62,0.12,0.01,-0.18
2716,-0.92,-2.22,8.62,0.14,0.04,-0.20
2721,-0.92,-2.22,8.62,0.14,0.09,-0.21
2727,-0.34,-1.65,11.00,0.14,0.09,-0.21
2732,-0.34,-1.65,11.00,0.17,0.23,-0.26
2736,-0.34,-1.65,11.00,0.18,0.28,-0.28
2742,-0.34,-1.65,11.00,0.17,0.31,-0.29
2746,-0.34,-1.65,11.00,0.16,0.29,-0.29
2751,-0.34,-1.65,11.00,0.15,0.25,-0.31
2756,-0.34,-1.65,11.00,0.13,0.19,-0.32
2762,-0.34,-1.65,11.00,0.12,0.12,-0.30
2766,-0.34,-1.65,11.00,0.13,0.05,-0.29
2771,-0.34,-1.65,11.00,0.11,0.03,-0.32
2776,-0.34,-1.65,11.00,0.09,0.01,-0.36
2782,-0.34,-1.65,11.00,0.10,0.03,-0.39
2786,-0.34,-1.65,11.00,0.10,0.05,-0.40
2791,-0.34,-1.65,11.00,0.11,0.11,-0.38
2797,-0.54,1.04,9.92,0.11,0.11,-0.38
2801,-0.54,1.04,9.92,0.08,0.19,-0.36
2806,-0.54,1.04,9.92,0.06,0.18,-0.37
2812,-0.54,1.04,9.92,0.03,0.16,-0.43
2816,-0.54,1.04,9.92,0.03,0.13,-0.45
2821,-0.54,1.04,9.92,0.04,0.08,-0.44
2827,-0.54,1.04,9.92,0.03,0.04,-0.42
2832,0.23,-0.80,10.15,0.03,0.04,-0.42
2836,0.23,-0.80,10.15,0.03,-0.02,-0.47
2841,0.23,-0.80,10.15,0.03,-0.05,-0.52
2847,0.23,-0.80,10.15,0.02,-0.06,-0.54
2851,0.23,-0.80,10.15,0.01,-0.05,-0.57
2856,0.23,-0.80,10.15,-0.03,0.00,-0.61
2861,0.23,-0.80,10.15,-0.04,0.04,-0.65
2867,-0.23,-0.88,9.50,-0.04,0.04,-0.65
2871,-0.23,-0.88,9.50,-0.02,0.13,-0.70
2877,-0.23,-0.88,9.50,-0.02,0.13,-0.73
2882,-0.23,-0.88,9.50,0.01,0.11,-0.76
2886,-0.23,-0.88,9.50,0.02,0.07,-0.79
2891,-0.23,-0.88,9.50,0.05,0.07,-0.84
2896,-0.23,-0.88,9.50,0.05,0.13,-0.87
2902,-0.23,-0.88,9.50,0.07,0.21,-0.86
2906,-0.23,-0.88,9.50,0.06,0.26,-0.83
2911,-0.23,-0.88,9.50,0.04,0.29,-0.80
2917,-0.23,-0.88,9.50,0.02,0.27,-0.82
2921,-0.23,-0.88,9.50,-0.03,0.23,-0.88
2926,-0.23,-0.88,9.50,-0.02,0.19,-0.94
2932,-0.23,-0.88,9.50,-0.01,0.18,-0.97
2937,-0.23,-0.88,9.50,0.02,0.18,-0.94
2941,-1.23,-0.65,9.27,0.02,0.18,-0.94
2946,-1.23,-0.65,9.27,0.08,0.20,-0.81
2952,-2.03,-0.46,9.16,0.08,0.20,-0.81
2956,-2.03,-0.46,9.16,0.13,0.16,-0.71
2961,-2.03,-0.46,9.16,0.13,0.12,-0.68
2967,-2.03,-0.46,9.16,0.14,0.08,-0.63
2971,-2.03,-0.46,9.16,0.15,0.04,-0.61
2976,-2.03,-0.46,9.16,0.16,0.03,-0.62
2982,-2.03,-0.46,9.16,0.16,0.07,-0.63
2987,-2.03,-0.46,9.16,0.18,0.13,-0.59
2991,-1.46,-0.88,9.58,0.18,0.13,-0.59
2996,-1.46,-0.88,9.58,0.21,0.22,-0.45
3001,-1.46,-0.88,9.58,0.20,0.21,-0.42
3006,-1.46,-0.88,9.58,0.20,0.18,-0.45
3011,-1.46,-0.88,9.58,0.21,0.15,-0.48
3016,-1.46,-0.88,9.58,0.21,0.12,-0.46
3022,-1.46,-0.88,9.58,0.23,0.12,-0.41
3026,-1.46,-0.88,9.58,0.26,0.13,-0.36
3031,-1.46,-0.88,9.58,0.27,0.14,-0.34
3036,-1.46,-0.88,9.58,0.29,0.18,-0.35
3042,-1.46,-0.88,9.58,0.32,0.21,-0.34
3046,-1.46,-0.88,9.58,0.33,0.22,-0.29
3052,-1.46,-0.88,9.58,0.32,0.24,-0.28
3057,-1.46,-0.88,9.58,0.31,0.27,-0.29
3061,-3.14,-2.07,8.42,0.31,0.27,-0.29
3066,-3.14,-2.07,8.42,0.30,0.27,-0.27
3072,-3.14,-2.07,8.42,0.32,0.25,-0.24
3077,-3.14,-2.07,8.42,0.31,0.21,-0.20
3081,-3.83,-1.80,8.39,0.31,0.21,-0.20
3086,-3.83,-1.80,8.39,0.29,0.11,-0.14
3092,-2.26,-1.15,9.04,0.29,0.11,-0.14
3097,-2.26,-1.15,9.04,0.31,0.04,-0.09
3101,-1.30,-1.72,8.93,0.31,0.04,-0.09
3107,-1.30,-1.72,8.93,0.34,-0.04,-0.03
3112,-1.30,-1.72,8.93,0.33,-0.06,-0.02
3116,-0.96,-1.65,8.36,0.33,-0.06,-0.02
3121,-0.96,-1.65,8.36,0.34,-0.07,0.08
3127,-0.50,-1.19,10.23,0.34,-0.07,0.08
3131,-0.50,-1.19,10.23,0.35,0.02,0.09
3136,-0.50,-1.19,10.23,0.36,0.05,0.05
3142,-0.50,-1.19,10.23,0.38,0.06,0.02
3147,-0.50,-1.19,10.23,0.37,0.11,0.00
3151,-0.88,-0.69,8.93,0.37,0.11,0.00
3156,-0.88,-0.69,8.93,0.35,0.17,0.04
3162,-0.88,-0.69,8.93,0.35,0.15,0.06
3167,-0.88,-0.69,8.93,0.30,0.10,0.05
3171,0.65,-0.96,7.73,0.30,0.10,0.05
3176,0.73,-0.23,9.16,0.30,0.10,0.05
3182,0.73,-0.23,9.16,0.25,-0.06,-0.07
3187,0.73,-0.23,9.16,0.25,-0.08,-0.08
3192,0.88,-1.15,10.88,0.25,-0.08,-0.08
3196,-0.27,-1.76,10.41,0.25,-0.08,-0.08
3201,0.23,-1.38,9.81,0.25,-0.08,-0.08
3206,0.23,-1.38,9.81,0.26,0.09,-0.19
3212,-0.54,-1.23,8.01,0.26,0.09,-0.19
3217,-0.54,-1.23,8.01,0.24,0.12,-0.25
3221,-0.23,-0.34,8.16,0.24,0.12,-0.25
3226,-0.57,-0.65,8.70,0.24,0.12,-0.25
3232,-0.57,-0.65,8.70,0.19,0.08,-0.27
3236,0.27,-0.77,9.69,0.19,0.08,-0.27
3241,0.30,-1.61,10.95,0.19,0.08,-0.27
3247,0.30,-1.61,10.95,0.20,0.03,-0.33
3251,-0.30,-1.11,10.53,0.20,0.03,-0.33
3256,-1.00,-0.11,10.84,0.20,0.03,-0.33
3262,-1.00,-0.11,10.84,0.29,0.09,-0.24
3267,-1.00,-0.11,10.84,0.28,0.10,-0.20
3271,0.54,0.27,10.57,0.28,0.10,-0.20
3276,0.54,0.38,10.39,0.28,0.10,-0.20
3282,0.54,0.38,10.39,0.22,0.01,-0.28
3287,0.54,0.38,10.39,0.22,-0.01,-0.27
3291,0.54,-1.23,10.30,0.22,-0.01,-0.27
3296,0.42,-1.23,9.84,0.22,-0.01,-0.27
3302,0.42,-1.23,9.84,0.21,0.00,-0.25
3307,0.42,-1.23,9.84,0.20,0.00,-0.26
3312,-0.23,0.08,7.59,0.20,0.00,-0.26
3316,-1.61,0.08,6.40,0.20,0.00,-0.26
3321,-1.61,0.08,6.40,0.16,0.06,-0.26
3326,-1.61,0.08,6.40,0.15,0.07,-0.21
3332,-1.61,0.08,6.40,0.15,0.05,-0.17
3337,-1.61,0.08,6.40,0.18,-0.02,-0.11
3341,3.33,-1.91,12.38,0.18,-0.02,-0.11
3346,3.91,-1.53,13.71,0.18,-0.02,-0.11
3352,3.91,-1.53,13.71,0.25,-0.23,-0.03
3356,1.46,-2.99,13.14,0.25,-0.23,-0.03
3361,-0.88,-2.41,11.15,0.25,-0.23,-0.03
3367,-0.88,-2.41,11.15,0.34,0.05,-0.08
3372,-0.88,-2.41,11.15,0.34,0.18,-0.04
3376,-4.18,0.54,5.36,0.34,0.18,-0.04
3381,-3.64,1.27,5.05,0.34,0.18,-0.04
3387,-3.64,1.27,5.05,0.20,0.29,0.03
3391,-0.96,-0.27,8.04,0.20,0.29,0.03
3396,-0.38,-1.53,9.12,0.20,0.29,0.03
3402,-0.38,-1.53,9.12,0.16,-0.05,-0.06
3407,-0.38,-1.53,9.12,0.21,-0.11,-0.02
3411,-2.76,-3.10,9.50,0.21,-0.11,-0.02
3416,-4.18,-2.49,9.08,0.21,-0.11,-0.02
3422,-4.18,-2.49,9.08,0.33,-0.03,0.28
3427,-4.18,-2.49,9.08,0.33,-0.03,0.35
3431,0.15,-0.65,8.66,0.33,-0.03,0.35
3436,0.15,-0.42,8.88,0.33,-0.03,0.35
3441,0.15,-0.42,8.88,0.26,-0.22,0.23
3446,0.15,-0.42,8.88,0.24,-0.22,0.18
3452,0.15,-0.42,8.88,0.25,-0.17,0.17
3457,0.15,-0.42,8.88,0.24,-0.10,0.20
3461,-2.99,-2.26,9.69,0.24,-0.10,0.20
3466,-2.22,-1.65,9.16,0.24,-0.10,0.20
3472,-2.22,-1.65,9.16,0.24,0.09,0.23
3477,-2.22,-1.65,9.16,0.22,0.06,0.19
3481,-1.65,-1.99,9.92,0.22,0.06,0.19
3486,0.42,-4.02,10.80,0.22,0.06,0.19
3491,0.42,-4.02,10.80,0.21,-0.05,0.11
3497,0.42,-4.02,10.80,0.24,-0.08,0.12
3502,-1.95,-2.64,10.00,0.24,-0.08,0.12
3506,-0.23,-2.14,11.84,0.24,-0.08,0.12
3511,1.91,-1.61,9.96,0.24,-0.08,0.12
3516,1.91,-1.61,9.96,0.27,-0.03,0.14
3522,1.91,-1.61,9.96,0.21,-0.04,0.08
3527,1.91,-1.61,9.96,0.18,0.01,-0.02
3531,-1.84,-1.88,6.32,0.18,0.01,-0.02
3536,-2.11,-0.57,6.82,0.18,0.01,-0.02
3542,-2.11,-0.57,6.82,0.21,-0.02,0.04
3546,0.73,1.49,10.31,0.21,-0.02,0.04
3551,1.49,1.07,10.39,0.21,-0.02,0.04
3556,1.49,1.07,10.39,0.17,-0.14,0.01
3562,1.49,1.07,10.39,0.17,-0.16,-0.09
3567,1.49,1.07,10.39,0.18,-0.15,-0.14
3572,-0.61,-1.19,9.23,0.18,-0.15,-0.14
3576,-2.34,0.42,8.70,0.18,-0.15,-0.14
3581,-2.26,1.19,8.54,0.18,-0.15,-0.14
3586,-2.26,1.19,8.54,0.18,0.10,-0.12
3592,-2.26,1.19,8.54,0.15,0.09,-0.16
3596,1.11,2.03,11.11,0.15,0.09,-0.16
3601,1.11,2.14,10.61,0.15,0.09,-0.16
3607,1.11,2.14,10.61,0.08,-0.09,-0.38
3612,1.11,2.14,10.61,0.06,-0.12,-0.41
3616,0.88,0.38,9.04,0.06,-0.12,-0.41
3621,0.69,-0.23,8.58,0.06,-0.12,-0.41
3627,0.69,-0.23,8.58,0.07,-0.05,-0.39
3632,0.69,-0.23,8.58,0.06,-0.01,-0.43
3637,0.19,1.11,9.12,0.06,-0.01,-0.43
3641,-0.08,1.80,10.38,0.06,-0.01,-0.43
3646,0.57,1.27,11.22,0.06,-0.01,-0.43
3651,0.38,1.61,11.30,0.06,-0.01,-0.43
3657,0.38,1.61,11.30,0.01,0.04,-0.53
3662,-1.76,1.27,11.04,0.01,0.04,-0.53
3666,-2.14,0.08,8.82,0.01,0.04,-0.53
3671,-2.07,-1.00,8.96,0.01,0.04,-0.53
3677,-2.07,-1.00,8.96,-0.01,0.12,-0.31
3681,-2.64,-0.92,7.81,-0.01,0.12,-0.31
3686,-2.64,-0.92,7.81,0.09,-0.06,0.03
3691,-0.92,-1.30,8.84,0.09,-0.06,0.03
3697,-0.92,-1.30,8.84,0.14,-0.13,0.08
3702,0.15,-3.29,10.96,0.14,-0.13,0.08
3706,0.15,-3.29,10.96,0.26,-0.11,0.14
3711,-1.72,-3.18,10.15,0.26,-0.11,0.14
3717,-1.72,-3.18,10.15,0.28,-0.02,0.18
3721,-2.26,-1.23,9.16,0.28,-0.02,0.18
3726,-1.84,-0.34,9.08,0.28,-0.02,0.18
3732,-1.61,-0.08,9.04,0.28,-0.02,0.18
3736,-0.61,-0.84,9.08,0.28,-0.02,0.18
3741,-0.11,-1.53,10.31,0.28,-0.02,0.18
3746,-0.84,-1.15,9.88,0.28,-0.02,0.18
3752,-0.84,-1.15,9.88,0.10,-0.07,-0.14
3756,-0.30,-2.76,9.46,0.10,-0.07,-0.14
3761,0.00,-2.68,9.35,0.10,-0.07,-0.14
3767,-0.19,-1.57,8.62,0.10,-0.07,-0.14
3771,-0.80,-0.80,7.55,0.10,-0.07,-0.14
3776,-1.49,-0.54,7.09,0.10,-0.07,-0.14
3782,-1.23,-0.19,7.31,0.10,-0.07,-0.14
3786,-1.99,-0.38,8.54,0.10,-0.07,-0.14
3791,-1.49,-0.30,8.78,0.10,-0.07,-0.14
3796,-0.30,-0.61,10.27,0.10,-0.07,-0.14
3802,1.30,-1.11,11.88,0.10,-0.07,-0.14
3807,1.53,-1.34,11.84,0.10,-0.07,-0.14
3811,1.53,-1.34,11.84,0.19,-0.10,-0.03
3816,0.19,-1.04,10.77,0.19,-0.10,-0.03
3822,-0.30,-1.80,10.03,0.19,-0.10,-0.03
3826,-1.19,-0.92,8.20,0.19,-0.10,-0.03
3831,-1.11,-0.92,8.73,0.19,-0.10,-0.03
3837,-1.11,-0.92,8.73,0.19,0.07,-0.00
3841,-0.11,0.23,9.81,0.19,0.07,-0.00
3846,0.50,-0.54,10.77,0.19,0.07,-0.00
3852,-0.46,-0.57,10.96,0.19,0.07,-0.00
3856,-1.42,-0.54,9.96,0.19,0.07,-0.00
3861,-1.42,-0.15,9.96,0.19,0.07,-0.00
3866,-2.03,-0.27,8.96,0.19,0.07,-0.00
3872,-2.03,-0.27,8.96,0.19,0.09,-0.02
3876,-1.91,2.34,8.58,0.19,0.09,-0.02
3881,-1.72,2.11,8.70,0.19,0.09,-0.02
3887,-1.30,1.72,9.46,0.19,0.09,-0.02
3892,-1.04,1.99,8.16,0.19,0.09,-0.02
3896,-1.04,1.99,8.16,0.10,-0.15,-0.08
3901,-1.04,1.99,8.82,0.10,-0.15,-0.08
3907,-1.04,1.99,8.82,0.09,-0.13,-0.07
3912,-0.15,1.30,9.73,0.09,-0.13,-0.07
3916,-0.15,1.30,9.73,0.07,-0.05,-0.04
3921,0.92,0.65,10.15,0.07,-0.05,-0.04
3926,1.07,0.30,10.73,0.07,-0.05,-0.04
3931,-0.04,0.65,9.80,0.07,-0.05,-0.04
3936,-0.50,-0.11,9.92,0.07,-0.05,-0.04
3942,-0.73,-0.42,10.07,0.07,-0.05,-0.04
3947,-0.96,-0.65,9.89,0.07,-0.05,-0.04
3951,-0.96,-0.65,9.89,0.08,0.12,-0.12
3956,-1.00,0.08,9.61,0.08,0.12,-0.12
3962,-1.00,0.08,9.61,0.08,0.11,-0.14
3967,-0.96,-1.00,9.77,0.08,0.11,-0.14
3971,-1.34,-0.77,8.77,0.08,0.11,-0.14
3976,-1.07,-0.69,8.08,0.08,0.11,-0.14
3981,-1.15,-0.69,7.89,0.08,0.11,-0.14
3986,-1.00,-0.08,6.79,0.08,0.11,-0.14
3992,-0.73,0.80,7.62,0.08,0.11,-0.14
3997,-0.92,0.88,8.58,0.08,0.11,-0.14
4001,-0.92,0.88,8.58,0.05,-0.07,-0.18
4006,0.19,0.27,10.19,0.05,-0.07,-0.18
4011,0.92,-1.30,10.07,0.05,-0.07,-0.18
4016,0.84,-1.07,10.07,0.05,-0.07,-0.18
4021,0.65,-0.77,9.20,0.05,-0.07,-0.18
4027,0.80,-1.42,9.50,0.05,-0.07,-0.18
4032,-0.27,-1.15,10.07,0.05,-0.07,-0.18
4036,-0.27,-1.15,10.07,0.12,0.02,-0.08
4041,0.84,-1.42,11.53,0.12,0.02,-0.08
4046,0.88,-0.92,11.38,0.12,0.02,-0.08
4051,1.04,-1.27,12.11,0.12,0.02,-0.08
4056,-0.15,-0.77,10.96,0.12,0.02,-0.08
4062,-0.27,-0.84,10.30,0.12,0.02,-0.08
4067,-0.23,-1.15,9.77,0.12,0.02,-0.08
4071,-0.23,-1.15,9.77,0.18,0.08,0.03
4076,-0.23,-1.15,9.77,0.18,0.05,0.04
4081,0.11,-0.57,8.58,0.18,0.05,0.04
4086,0.34,-1.30,8.50,0.18,0.05,0.04
4092,0.88,-1.57,8.96,0.18,0.05,0.04
4096,-0.19,-1.42,9.54,0.18,0.05,0.04
4101,-0.54,-0.84,9.35,0.18,0.05,0.04
4106,-1.38,-0.69,9.38,0.18,0.05,0.04
4112,-1.04,-1.19,9.61,0.18,0.05,0.04
4116,-0.42,-1.11,8.89,0.18,0.05,0.04
4121,0.92,-2.57,9.65,0.18,0.05,0.04
4127,0.77,-1.88,9.12,0.18,0.05,0.04
4131,0.46,-2.30,9.35,0.18,0.05,0.04
4136,0.46,-2.03,10.15,0.18,0.05,0.04
4141,0.69,-1.91,9.73,0.18,0.05,0.04
4147,0.38,-1.95,10.15,0.18,0.05,0.04
4152,-0.92,-1.84,9.92,0.18,0.05,0.04
4156,-0.92,-1.84,9.92,0.25,0.03,0.31
4161,-0.65,-1.23,9.00,0.25,0.03,0.31
4166,-0.65,-1.34,8.89,0.25,0.03,0.31
4171,-0.50,-1.11,9.73,0.25,0.03,0.31
4177,-0.30,-1.34,8.84,0.25,0.03,0.31
4181,0.00,-1.61,9.27,0.25,0.03,0.31
4186,-0.27,-1.49,9.46,0.25,0.03,0.31
4191,-0.84,-1.61,9.73,0.25,0.03,0.31
4197,-1.42,-1.72,10.11,0.25,0.03,0.31
4202,-1.84,-2.11,9.80,0.25,0.03,0.31
4206,-1.84,-2.11,9.80,0.25,-0.03,0.37
4211,-1.84,-2.11,9.80,0.23,-0.04,0.36
4216,-0.61,-1.57,9.46,0.23,-0.04,0.36
4222,-0.61,-1.57,9.46,0.22,-0.06,0.37
4227,-1.30,-1.42,7.35,0.22,-0.06,0.37
4231,-2.41,-0.61,7.70,0.22,-0.06,0.37
4236,-1.65,-1.34,8.27,0.22,-0.06,0.37
4241,-1.68,-1.11,9.27,0.22,-0.06,0.37
4247,-1.19,-1.23,10.45,0.22,-0.06,0.37
4251,0.08,-1.27,11.92,0.22,-0.06,0.37
4256,0.38,-2.26,12.18,0.22,-0.06,0.37
4261,-0.27,-2.49,10.88,0.22,-0.06,0.37
4267,-0.65,-2.26,10.45,0.22,-0.06,0.37
4272,-0.88,-1.38,8.81,0.22,-0.06,0.37
4276,-0.88,-1.38,8.81,0.21,0.01,0.35
4281,-1.00,-0.73,8.42,0.21,0.01,0.35
4287,-0.57,-0.50,8.93,0.21,0.01,0.35
4292,-1.30,-0.08,10.04,0.21,0.01,0.35
4296,-1.30,-0.08,10.04,0.14,0.03,0.29
4301,-1.53,-0.34,9.04,0.14,0.03,0.29
4306,-1.23,-0.46,8.89,0.14,0.03,0.29
4311,-1.42,-0.11,8.78,0.14,0.03,0.29
4316,-1.68,0.77,8.04,0.14,0.03,0.29
4322,-1.53,0.54,8.32,0.14,0.03,0.29
4327,0.73,0.92,9.30,0.14,0.03,0.29
4331,0.73,0.92,9.30,0.07,-0.16,0.26
4337,0.73,0.92,9.30,0.07,-0.15,0.24
4342,0.23,0.38,9.20,0.07,-0.15,0.24
4346,0.23,0.38,9.20,0.08,-0.09,0.26
4351,-1.23,0.27,9.96,0.08,-0.09,0.26
4356,-0.50,0.00,10.77,0.08,-0.09,0.26
4362,0.11,0.34,10.77,0.08,-0.09,0.26
4366,0.11,0.34,10.77,0.05,0.03,0.22
4371,-0.15,0.57,11.00,0.05,0.03,0.22
4376,0.11,-0.11,10.73,0.05,0.03,0.22
4382,-0.30,-0.73,9.65,0.05,0.03,0.22
4386,-0.69,-0.80,9.12,0.05,0.03,0.22
4391,-1.11,-0.19,9.50,0.05,0.03,0.22
4397,-0.38,-0.38,8.92,0.05,0.03,0.22
4401,-0.38,-0.38,8.92,-0.01,0.04,0.14
4406,0.27,0.08,10.11,-0.01,0.04,0.14
4411,-0.08,0.08,10.15,-0.01,0.04,0.14
4417,-1.57,-0.30,9.46,-0.01,0.04,0.14
4421,-1.30,-0.61,8.77,-0.01,0.04,0.14
4426,-1.23,0.30,8.66,-0.01,0.04,0.14
4432,-1.07,0.69,8.39,-0.01,0.04,0.14
4436,-1.07,0.69,8.39,-0.03,0.00,0.03
4441,0.27,-0.11,10.53,-0.03,0.00,0.03
4447,0.42,0.15,10.92,-0.03,0.00,0.03
4451,0.42,0.15,10.92,-0.08,-0.07,-0.07
4457,0.42,0.15,10.92,-0.08,-0.07,-0.10
4462,0.38,-0.34,9.27,-0.08,-0.07,-0.10
4466,0.38,-0.34,9.27,-0.05,-0.01,-0.08
4471,0.38,-0.34,9.27,-0.06,0.03,-0.08
4476,-0.34,0.54,8.85,-0.06,0.03,-0.08
4482,0.15,0.08,9.27,-0.06,0.03,-0.08
4486,0.15,0.08,9.27,-0.10,0.06,-0.16
4491,1.19,0.08,10.95,-0.10,0.06,-0.16
4496,0.84,0.96,10.53,-0.10,0.06,-0.16
4502,0.77,0.61,9.93,-0.10,0.06,-0.16
4507,0.77,0.61,9.93,-0.07,0.04,-0.16
4511,4.94,-1.65,13.17,-0.07,0.04,-0.16
4516,-0.30,1.38,7.43,-0.07,0.04,-0.16
4522,-3.45,1.76,6.25,-0.07,0.04,-0.16
4527,-0.57,1.88,7.70,-0.07,0.04,-0.16
4532,0.34,0.84,9.73,-0.07,0.04,-0.16
4536,0.34,0.84,9.73,-0.10,0.07,-0.16
4541,0.34,0.84,9.73,-0.13,0.06,-0.19
4546,-1.42,1.11,8.66,-0.13,0.06,-0.19
4552,-3.14,-1.19,8.74,-0.13,0.06,-0.19
4556,-3.14,-1.19,8.74,-0.11,0.00,-0.20
4561,0.46,-0.27,8.85,-0.11,0.00,-0.20
4566,0.50,0.15,9.08,-0.11,0.00,-0.20
4572,-1.27,-0.27,8.08,-0.11,0.00,-0.20
4577,-1.27,-0.27,8.08,-0.10,-0.09,-0.20
4582,-0.11,-1.27,9.12,-0.10,-0.09,-0.20
4586,-0.11,-1.27,9.12,-0.07,-0.06,-0.17
4591,-0.11,-1.27,9.12,-0.04,-0.03,-0.16
4596,-0.11,-1.27,9.12,-0.02,0.02,-0.14
4602,-0.54,-0.65,10.49,-0.02,0.02,-0.14
4606,-0.54,-0.65,10.49,-0.00,0.07,-0.10
4611,-0.30,0.15,10.46,-0.00,0.07,-0.10
4616,0.50,-0.46,10.07,-0.00,0.07,-0.10
4622,0.57,-0.73,9.96,-0.00,0.07,-0.10
4626,0.57,-0.73,9.96,0.00,0.02,-0.05
4631,-0.69,-0.69,10.07,0.00,0.02,-0.05
4637,-1.76,0.04,9.65,0.00,0.02,-0.05
4641,-1.76,0.04,9.65,0.02,0.04,0.02
4647,-1.61,-0.57,10.35,0.02,0.04,0.02
4652,-1.30,-0.11,10.15,0.02,0.04,0.02
4656,-1.30,-0.11,10.15,0.02,0.00,0.06
4661,-1.30,-0.11,10.15,0.02,-0.02,0.07
4666,-3.07,-0.04,7.51,0.02,-0.02,0.07
4672,-2.91,0.19,6.75,0.02,-0.02,0.07
4676,-2.91,0.19,6.75,0.01,-0.04,0.13
4682,-0.92,0.34,9.42,0.01,-0.04,0.13
4687,-0.08,-0.23,11.26,0.01,-0.04,0.13
4691,-0.08,-0.23,11.26,0.00,-0.21,0.16
4696,-0.08,-0.23,11.26,0.00,-0.25,0.17
4701,1.19,-1.88,11.38,0.00,-0.25,0.17
4707,0.15,-1.88,10.73,0.00,-0.25,0.17
4711,0.15,-1.88,10.73,0.09,-0.08,0.18
4717,0.15,-1.88,10.73,0.11,0.02,0.21
4722,-0.96,-0.34,9.80,0.11,0.02,0.21
4726,-0.96,-0.34,9.80,0.09,0.15,0.23
4731,-0.96,-0.34,9.80,0.06,0.18,0.20
4737,-0.96,-0.34,9.80,0.03,0.17,0.15
4742,-2.80,-1.23,8.16,0.03,0.17,0.15
4746,-2.80,-1.23,8.16,0.02,0.05,0.11
4751,0.73,-1.07,7.62,0.02,0.05,0.11
4757,0.30,-0.23,8.12,0.02,0.05,0.11
4761,0.30,-0.23,8.12,-0.00,-0.18,0.19
4767,0.30,-0.23,8.12,0.00,-0.20,0.18
4772,1.04,-0.04,9.42,0.00,-0.20,0.18
4776,1.04,-0.04,9.42,-0.01,-0.16,0.13
4781,1.04,-0.04,9.42,0.00,-0.12,0.12
4787,-0.50,-0.54,9.77,0.00,-0.12,0.12
4792,-0.04,-0.11,10.39,0.00,-0.12,0.12
4796,-0.04,-0.11,10.39,0.02,0.02,0.16
4802,-0.04,-0.11,10.39,-0.00,0.01,0.12
4807,0.54,0.00,10.00,-0.00,0.01,0.12
4811,0.54,0.00,10.00,-0.02,0.01,0.05
4816,0.54,0.00,10.00,-0.02,0.04,0.05
4822,-0.69,-0.61,9.58,-0.02,0.04,0.05
4827,-1.15,-0.34,9.58,-0.02,0.04,0.05
4831,-1.15,-0.34,9.58,-0.04,0.11,0.04
4837,-1.15,-0.34,9.58,-0.03,0.11,0.02
4842,0.80,-0.84,11.30,-0.03,0.11,0.02
4846,0.80,-0.84,11.30,-0.04,0.01,-0.01
4851,0.80,-0.84,11.30,-0.03,-0.02,-0.04
4856,0.80,-0.84,11.30,-0.01,-0.01,-0.05
4862,0.08,-1.34,10.19,-0.01,-0.01,-0.05
4866,0.08,-1.34,10.19,0.04,0.10,-0.03
4871,-2.76,0.65,7.47,0.04,0.10,-0.03
4876,-3.14,0.46,7.77,0.04,0.10,-0.03
4882,-2.22,0.50,7.27,0.04,0.10,-0.03
4887,-2.22,0.50,7.27,-0.05,0.10,-0.09
4891,0.34,0.08,6.93,-0.05,0.10,-0.09
4896,1.49,-0.38,7.01,-0.05,0.10,-0.09
4902,1.76,-0.38,7.09,-0.05,0.10,-0.09
4907,1.30,-0.61,7.55,-0.05,0.10,-0.09
4912,0.57,-0.50,9.23,-0.05,0.10,-0.09
4917,0.57,-0.50,9.23,-0.06,-0.14,-0.12
4921,0.57,-0.50,9.23,-0.03,-0.07,-0.10
4927,-0.61,-0.77,12.30,-0.03,-0.07,-0.10
4932,-0.15,-0.42,12.68,-0.03,-0.07,-0.10
4837,-1.15,-0.34,9.58,-0.03,0.11,0.02
4842,0.80,-0.84,11.30,-0.03,0.11,0.02
4846,0.80,-0.84,11.30,-0.04,0.01,-0.01
4851,0.80,-0.84,11.30,-0.03,-0.02,-0.04
4856,0.80,-0.84,11.30,-0.01,-0.01,-0.05
4862,0.08,-1.34,10.19,-0.01,-0.01,-0.05
4866,0.08,-1.34,10.19,0.04,0.10,-0.03
4871,-2.76,0.65,7.47,0.04,0.10,-0.03
4876,-3.14,0.46,7.77,0.04,0.10,-0.03
4882,-2.22,0.50,7.27,0.04,0.10,-0.03
4887,-2.22,0.50,7.27,-0.05,0.10,-0.09
4891,0.34,0.08,6.93,-0.05,0.10,-0.09
4896,1.49,-0.38,7.01,-0.05,0.10,-0.09
