timestamp,accX,accY,accZ,gyroX,gyroY,gyroZ
Break
6,-1.91,-1.19,9.61,-0.00,0.31,0.02
19,-1.91,-1.19,9.61,0.04,0.31,0.01
20,0.34,0.73,8.24,0.04,0.31,0.01
22,1.07,0.08,7.93,0.04,0.31,0.01
26,1.07,0.08,7.93,0.01,-0.07,-0.02
30,1.34,0.08,8.46,0.01,-0.07,-0.02
37,0.92,0.11,8.54,0.01,-0.07,-0.02
41,0.92,0.11,8.54,0.00,-0.10,0.00
46,0.92,0.11,8.54,0.01,-0.12,-0.01
51,-1.38,-0.38,9.20,0.01,-0.12,-0.01
56,-1.38,-0.38,9.20,-0.01,-0.07,-0.03
61,-1.38,-0.38,9.20,-0.02,-0.10,-0.05
66,-1.38,-0.38,9.20,-0.01,-0.10,-0.07
71,-1.38,-0.38,9.20,-0.01,-0.08,-0.08
76,-1.38,-0.38,9.20,-0.01,-0.04,-0.07
81,-1.38,-0.38,9.20,-0.00,-0.00,-0.07
87,2.11,-1.76,10.73,-0.00,-0.00,-0.07
91,2.11,-1.76,10.73,0.01,0.01,-0.09
96,2.11,-1.76,10.73,0.02,-0.01,-0.08
101,2.11,-1.76,10.73,0.02,-0.01,-0.07
106,2.11,-1.76,10.73,0.03,0.02,-0.09
111,2.11,-1.76,10.73,0.04,0.08,-0.12
116,2.11,-1.76,10.73,0.05,0.17,-0.13
122,1.42,0.11,7.97,0.05,0.17,-0.13
126,1.42,0.11,7.97,0.05,0.11,-0.12
131,1.42,0.11,7.97,0.01,0.03,-0.13
136,1.42,0.11,7.97,-0.03,-0.06,-0.16
141,1.42,0.11,7.97,-0.06,-0.12,-0.19
146,1.42,0.11,7.97,-0.06,-0.16,-0.21
151,1.42,0.11,7.97,-0.05,-0.19,-0.21
157,2.84,-1.80,9.20,-0.05,-0.19,-0.21
161,2.84,-1.80,9.20,-0.00,-0.17,-0.17
166,2.84,-1.80,9.20,0.00,-0.13,-0.15
171,2.84,-1.80,9.20,0.02,-0.08,-0.15
176,2.84,-1.80,9.20,0.03,-0.01,-0.15
181,2.84,-1.80,9.20,0.05,0.05,-0.15
186,2.84,-1.80,9.20,0.05,0.09,-0.14
192,0.80,-0.77,10.80,0.05,0.09,-0.14
196,0.80,-0.77,10.80,0.10,0.20,-0.10
201,0.80,-0.77,10.80,0.11,0.24,-0.08
206,0.80,-0.77,10.80,0.12,0.22,-0.06
211,0.80,-0.77,10.80,0.10,0.18,-0.04
216,0.80,-0.77,10.80,0.10,0.12,-0.03
221,0.80,-0.77,10.80,0.07,0.04,-0.02
226,0.80,-0.77,10.80,0.07,-0.05,0.00
231,0.80,-0.77,10.80,0.06,-0.14,0.04
236,0.80,-0.77,10.80,0.05,-0.21,0.08
242,0.80,-0.77,10.80,0.01,-0.27,0.11
246,0.80,-0.77,10.80,0.04,-0.30,0.11
251,0.80,-0.77,10.80,0.06,-0.29,0.13
256,0.80,-0.77,10.80,0.09,-0.22,0.16
262,-0.38,-1.95,8.82,0.09,-0.22,0.16
266,-0.38,-1.95,8.82,0.13,0.15,0.19
271,-0.38,-1.95,8.82,0.17,0.21,0.18
276,0.04,-0.96,9.16,0.17,0.21,0.18
281,0.04,-0.96,9.16,0.18,0.16,0.19
286,0.04,-0.96,9.16,0.16,0.10,0.20
291,0.04,-0.96,9.16,0.13,0.01,0.19
296,0.04,-0.96,9.16,0.11,-0.09,0.19
301,0.04,-0.96,9.16,0.09,-0.15,0.18
306,0.04,-0.96,9.16,0.08,-0.16,0.18
312,1.53,-2.95,13.07,0.08,-0.16,0.18
316,1.53,-2.95,13.07,0.08,-0.05,0.13
321,1.53,-2.95,13.07,0.07,0.07,0.11
326,1.53,-2.95,13.07,0.09,0.15,0.10
331,1.53,-2.95,13.07,0.08,0.16,0.09
336,1.53,-2.95,13.07,0.08,0.09,0.10
341,1.53,-2.95,13.07,0.06,0.01,0.12
347,1.72,-1.95,8.23,0.06,0.01,0.12
351,1.72,-1.95,8.23,0.03,-0.04,0.09
356,1.72,-1.95,8.23,0.04,-0.03,0.09
361,1.72,-1.95,8.23,0.08,-0.01,0.13
366,1.72,-1.95,8.23,0.12,0.03,0.18
371,1.72,-1.95,8.23,0.13,0.05,0.23
376,1.72,-1.95,8.23,0.12,0.08,0.27
382,-0.23,-0.57,10.45,0.12,0.08,0.27
386,-0.23,-0.57,10.45,0.12,0.10,0.25
391,-0.23,-0.57,10.45,0.12,0.12,0.25
396,-0.23,-0.57,10.45,0.13,0.11,0.28
402,2.61,-0.61,11.99,0.13,0.11,0.28
406,2.61,-0.61,11.99,0.12,-0.05,0.35
411,2.61,-0.61,11.99,0.09,-0.10,0.37
417,1.11,-0.46,8.70,0.09,-0.10,0.37
421,1.11,-0.46,8.70,0.09,-0.04,0.36
426,1.11,-0.46,8.70,0.10,-0.01,0.34
432,1.11,-0.46,8.70,0.10,0.03,0.33
436,1.11,-0.46,8.70,0.08,0.06,0.34
441,1.11,-0.46,8.70,0.07,0.06,0.35
446,1.11,-0.46,8.70,0.04,0.06,0.33
452,1.34,-0.19,7.89,0.04,0.06,0.33
456,1.34,-0.19,7.89,-0.02,0.01,0.26
461,1.34,-0.19,7.89,-0.02,-0.06,0.25
467,1.34,-0.19,7.89,-0.02,-0.15,0.25
471,1.34,-0.19,7.89,-0.02,-0.18,0.25
476,1.34,-0.19,7.89,0.00,-0.15,0.26
481,1.34,-0.19,7.89,0.00,-0.12,0.27
487,1.76,-0.11,11.15,0.00,-0.12,0.27
491,1.76,-0.11,11.15,-0.04,-0.07,0.23
496,1.76,-0.11,11.15,-0.04,-0.05,0.19
502,1.76,-0.11,11.15,-0.04,-0.00,0.18
506,1.76,-0.11,11.15,-0.05,0.02,0.17
511,1.76,-0.11,11.15,-0.06,-0.01,0.17
516,1.76,-0.11,11.15,-0.04,-0.04,0.16
522,-0.08,-0.69,8.46,-0.04,-0.04,0.16
526,-0.08,-0.69,8.46,-0.06,-0.10,0.17
531,-0.08,-0.69,8.46,-0.06,-0.21,0.16
537,5.05,-0.88,9.16,-0.06,-0.21,0.16
541,5.05,-0.88,9.16,-0.07,-0.22,0.13
546,5.05,-0.88,9.16,-0.06,-0.11,0.12
551,5.05,-0.88,9.16,-0.09,0.03,0.10
557,0.88,-0.38,12.26,-0.09,0.03,0.10
561,0.88,-0.38,12.26,-0.10,0.11,0.04
566,0.88,-0.38,12.26,-0.10,0.11,0.02
572,1.53,-0.23,10.15,-0.10,0.11,0.02
576,1.53,-0.23,10.15,-0.10,0.09,0.01
581,1.53,-0.23,10.15,-0.11,0.05,0.02
586,1.53,-0.23,10.15,-0.12,-0.02,0.04
592,2.11,-1.76,6.32,-0.12,-0.02,0.04
596,2.11,-1.76,6.32,-0.19,-0.18,0.03
601,2.11,-1.76,6.32,-0.17,-0.21,0.01
607,1.95,-1.15,11.84,-0.17,-0.21,0.01
611,1.95,-1.15,11.84,-0.13,-0.11,-0.03
616,1.95,-1.15,11.84,-0.10,0.05,0.02
621,1.95,-1.15,11.84,-0.09,0.19,0.04
627,0.77,-0.84,10.73,-0.09,0.19,0.04
631,0.77,-0.84,10.73,-0.09,0.23,-0.01
636,0.77,-0.84,10.73,-0.10,0.21,-0.04
642,0.00,0.69,7.89,-0.10,0.21,-0.04
646,0.00,0.69,7.89,-0.12,0.11,-0.04
651,0.00,0.69,7.89,-0.13,0.02,-0.02
656,0.00,0.69,7.89,-0.17,-0.07,-0.02
662,0.34,0.69,6.85,-0.17,-0.07,-0.02
666,0.34,0.69,6.85,-0.21,-0.17,-0.09
671,0.34,0.69,6.85,-0.19,-0.16,-0.11
677,1.30,0.96,14.40,-0.19,-0.16,-0.11
681,1.30,0.96,14.40,-0.18,-0.13,-0.13
686,1.30,0.96,14.40,-0.18,-0.03,-0.16
692,1.30,0.96,14.40,-0.21,0.12,-0.19
696,1.30,0.96,14.40,-0.19,0.21,-0.24
701,1.30,0.96,14.40,-0.20,0.21,-0.27
706,1.30,0.96,14.40,-0.19,0.16,-0.29
712,3.22,-0.46,8.23,-0.19,0.16,-0.29
716,3.22,-0.46,8.23,-0.15,-0.07,-0.28
721,3.22,-0.46,8.23,-0.17,-0.11,-0.31
727,3.22,-0.46,8.23,-0.21,-0.09,-0.36
731,3.22,-0.46,8.23,-0.25,-0.05,-0.44
736,3.22,-0.46,8.23,-0.28,0.01,-0.54
741,3.22,-0.46,8.23,-0.30,0.06,-0.63
747,1.61,1.49,9.04,-0.30,0.06,-0.63
751,1.61,1.49,9.04,-0.31,0.13,-0.70
756,1.61,1.49,9.04,-0.30,0.15,-0.73
762,1.61,1.49,9.04,-0.30,0.16,-0.75
766,1.61,1.49,9.04,-0.29,0.15,-0.75
772,1.61,1.49,9.04,-0.27,0.15,-0.75
776,1.61,1.49,9.04,-0.27,0.13,-0.74
782,1.46,1.91,10.15,-0.27,0.13,-0.74
786,1.46,1.91,10.15,-0.29,0.10,-0.73
791,1.46,1.91,10.15,-0.29,0.10,-0.73
797,0.23,2.18,9.12,-0.29,0.10,-0.73
801,0.23,2.18,9.12,-0.29,0.02,-0.70
806,0.23,2.18,9.12,-0.29,-0.04,-0.69
811,0.23,2.18,9.12,-0.31,-0.09,-0.69
817,2.26,0.54,9.96,-0.31,-0.09,-0.69
821,2.26,0.54,9.96,-0.33,0.00,-0.74
826,2.26,0.54,9.96,-0.29,0.10,-0.74
832,-1.88,-0.92,8.50,-0.29,0.10,-0.74
836,-1.88,-0.92,8.50,-0.21,0.21,-0.63
841,-1.88,-0.92,8.50,-0.19,0.19,-0.59
846,-1.88,-0.92,8.50,-0.20,0.12,-0.57
852,1.84,-0.65,8.42,-0.20,0.12,-0.57
856,1.84,-0.65,8.42,-0.21,0.00,-0.60
861,1.84,-0.65,8.42,-0.21,-0.05,-0.58
867,4.37,-2.38,11.57,-0.21,-0.05,-0.58
871,4.37,-2.38,11.57,-0.15,-0.14,-0.47
876,4.37,-2.38,11.57,-0.09,-0.09,-0.43
881,4.37,-2.38,11.57,-0.07,0.10,-0.40
887,0.08,-1.42,10.23,-0.07,0.10,-0.40
891,0.08,-1.42,10.23,-0.04,0.27,-0.37
896,0.08,-1.42,10.23,-0.02,0.26,-0.35
902,0.15,-1.53,8.43,-0.02,0.26,-0.35
906,0.15,-1.53,8.43,-0.04,0.15,-0.32
911,0.15,-1.53,8.43,-0.06,0.06,-0.31
916,0.15,-1.53,8.43,-0.06,-0.03,-0.29
922,1.57,-2.11,9.23,-0.06,-0.03,-0.29
926,1.57,-2.11,9.23,-0.05,-0.15,-0.23
931,1.57,-2.11,9.23,-0.04,-0.18,-0.22
937,2.30,-2.64,9.50,-0.04,-0.18,-0.22
941,2.30,-2.64,9.50,0.02,-0.08,-0.20
946,2.30,-2.64,9.50,0.03,0.11,-0.16
952,2.30,-2.64,9.50,0.04,0.26,-0.16
956,2.30,-2.64,9.50,0.06,0.28,-0.16
961,2.30,-2.64,9.50,0.08,0.28,-0.15
966,2.30,-2.64,9.50,0.08,0.29,-0.13
972,-0.42,-1.46,8.36,0.08,0.29,-0.13
976,-0.42,-1.46,8.36,0.05,0.13,-0.12
981,-0.42,-1.46,8.36,0.06,0.01,-0.10
987,-0.42,-1.46,8.36,0.05,-0.07,-0.09
991,-0.42,-1.46,8.36,0.05,-0.11,-0.08
996,-0.42,-1.46,8.36,0.05,-0.15,-0.07
1001,-0.42,-1.46,8.36,0.05,-0.18,-0.05
1007,2.57,-1.84,9.42,0.05,-0.18,-0.05
1011,2.57,-1.84,9.42,0.07,-0.17,-0.05
1016,2.57,-1.84,9.42,0.07,-0.12,-0.04
1022,2.57,-1.84,9.42,0.08,0.04,-0.09
1026,2.57,-1.84,9.42,0.07,0.16,-0.11
1031,2.57,-1.84,9.42,0.09,0.19,-0.11
1036,2.57,-1.84,9.42,0.09,0.15,-0.10
1042,-1.30,-0.77,10.45,0.09,0.15,-0.10
1046,-1.30,-0.77,10.45,0.10,0.12,-0.11
1051,-1.30,-0.77,10.45,0.09,0.12,-0.11
1057,1.23,-1.27,9.88,0.09,0.12,-0.11
1061,1.23,-1.27,9.88,0.08,-0.01,-0.10
1066,1.23,-1.27,9.88,0.09,-0.09,-0.09
1071,1.23,-1.27,9.88,0.10,-0.10,-0.08
1077,1.84,-1.07,8.23,0.10,-0.10,-0.08
1081,1.84,-1.07,8.23,0.10,-0.07,-0.07
1086,1.84,-1.07,8.23,0.11,-0.05,-0.06
1092,0.08,-0.27,11.80,0.11,-0.05,-0.06
1096,0.08,-0.27,11.80,0.12,0.06,-0.05
1101,0.08,-0.27,11.80,0.10,0.12,-0.07
1106,0.08,-0.27,11.80,0.10,0.15,-0.09
1111,0.96,-0.96,9.46,0.10,0.15,-0.09
1116,0.96,-0.96,9.46,0.10,0.14,-0.10
1122,0.96,-0.96,9.46,0.08,0.07,-0.09
1127,0.84,-1.00,7.93,0.08,0.07,-0.09
1131,0.84,-1.00,7.93,0.08,-0.08,-0.07
1136,0.84,-1.00,7.93,0.08,-0.07,-0.08
1141,0.84,-1.00,7.93,0.06,-0.03,-0.09
1147,0.00,-0.50,10.57,0.06,-0.03,-0.09
1151,0.00,-0.50,10.57,0.08,0.05,-0.10
1156,0.00,-0.50,10.57,0.08,0.04,-0.10
1162,0.00,-0.50,10.57,0.08,0.05,-0.10
1166,0.00,-0.50,10.57,0.07,0.08,-0.11
1171,0.00,-0.50,10.57,0.07,0.12,-0.12
1176,0.65,-0.50,8.58,0.07,0.12,-0.12
1182,-1.80,-0.77,8.92,0.07,0.12,-0.12
1186,-1.80,-0.77,8.92,0.07,0.09,-0.12
1191,-1.80,-0.77,8.92,0.08,0.08,-0.12
1197,-0.42,-0.57,9.54,0.08,0.08,-0.12
1201,-0.42,-0.57,9.54,0.07,-0.01,-0.11
1206,-0.42,-0.57,9.54,0.07,-0.06,-0.11
1212,0.34,0.00,7.63,0.07,-0.06,-0.11
1216,0.34,0.00,7.63,0.06,-0.07,-0.10
1221,0.34,0.00,7.63,0.05,-0.09,-0.09
1226,0.34,0.00,7.63,0.04,-0.11,-0.10
1231,1.30,-0.77,10.91,0.04,-0.11,-0.10
1236,1.30,-0.77,10.91,0.05,-0.04,-0.10
1241,1.30,-0.77,10.91,0.06,0.05,-0.11
1247,-1.49,-0.84,10.42,0.06,0.05,-0.11
1251,-1.49,-0.84,10.42,0.06,0.18,-0.12
1256,-1.49,-0.84,10.42,0.08,0.16,-0.11
1261,-1.49,-0.84,10.42,0.06,0.08,-0.08
1267,2.11,-1.27,8.01,0.06,0.08,-0.08
1271,2.11,-1.27,8.01,0.08,-0.13,-0.05
1276,2.11,-1.27,8.01,0.08,-0.15,-0.03
1282,2.11,-1.27,8.01,0.06,-0.15,-0.03
1286,2.11,-1.27,8.01,0.06,-0.18,-0.02
1291,2.11,-1.27,8.01,0.07,-0.18,-0.03
1296,2.11,-1.27,8.01,0.11,-0.10,-0.02
1302,0.84,-1.04,10.35,0.11,-0.10,-0.02
1306,0.84,-1.04,10.35,0.12,0.19,-0.01
1311,0.84,-1.04,10.35,0.13,0.19,-0.02
1317,-0.92,-1.11,9.23,0.13,0.19,-0.02
1321,-0.92,-1.11,9.23,0.12,0.13,-0.00
1326,-0.92,-1.11,9.23,0.10,0.10,-0.01
1331,-0.92,-1.11,9.23,0.09,0.05,-0.03
1337,0.04,-1.19,8.62,0.09,0.05,-0.03
1341,0.04,-1.19,8.62,0.09,-0.09,-0.03
1346,0.04,-1.19,8.62,0.11,-0.16,-0.02
1351,0.30,-0.80,8.66,0.11,-0.16,-0.02
1356,0.30,-0.80,8.66,0.09,-0.16,-0.02
1361,0.30,-0.80,8.66,0.09,-0.11,-0.05
1367,0.57,-0.77,10.07,0.09,-0.11,-0.05
1371,0.57,-0.77,10.07,0.09,0.04,-0.07
1376,0.57,-0.77,10.07,0.10,0.09,-0.09
1381,0.57,-0.77,10.07,0.10,0.10,-0.10
1387,1.30,-1.11,9.80,0.10,0.10,-0.10
1391,1.30,-1.11,9.80,0.10,0.03,-0.08
1396,1.30,-1.11,9.80,0.09,-0.02,-0.09
1402,1.30,-1.11,9.80,0.09,-0.04,-0.08
1406,1.30,-1.11,9.80,0.10,-0.02,-0.08
1411,1.30,-1.11,9.80,0.08,-0.00,-0.09
1416,1.30,-1.11,9.80,0.09,-0.01,-0.09
1422,1.30,-1.11,9.80,0.09,-0.01,-0.07
1426,1.30,-1.11,9.80,0.09,0.01,-0.07
1431,1.30,-1.11,9.80,0.09,0.04,-0.06
1436,0.92,-0.34,9.42,0.09,0.04,-0.06
1442,1.15,-0.65,9.34,0.09,0.04,-0.06
1446,1.15,-0.65,9.34,0.10,0.00,-0.04
1452,1.15,-0.65,9.34,0.09,-0.02,-0.04
1456,1.15,-0.65,9.34,0.09,-0.03,-0.03
1461,1.15,-0.65,9.34,0.09,-0.04,-0.03
1466,1.15,-0.65,9.34,0.08,-0.05,-0.03
1472,-0.42,-0.38,9.16,0.08,-0.05,-0.03
1476,-0.42,-0.38,9.16,0.11,-0.00,-0.04
1481,-0.42,-0.38,9.16,0.09,0.01,-0.02
1486,-0.42,-0.38,9.16,0.11,-0.03,-0.01
1491,2.41,-0.65,9.04,0.11,-0.03,-0.01
1496,2.41,-0.65,9.04,0.08,-0.13,-0.02
1501,2.41,-0.65,9.04,0.06,-0.12,-0.03
1507,0.46,-0.77,10.23,0.06,-0.12,-0.03
1511,0.46,-0.77,10.23,0.08,0.02,-0.06
1516,0.46,-0.77,10.23,0.08,0.07,-0.05
1522,0.46,-0.77,10.23,0.08,0.07,-0.05
1526,0.46,-0.77,10.23,0.08,0.06,-0.04
1531,0.46,-0.77,10.23,0.10,0.06,-0.04
1536,0.46,-0.77,10.23,0.09,0.07,-0.05
1541,0.46,-0.77,10.23,0.09,0.06,-0.05
1546,0.46,-0.77,10.23,0.09,0.03,-0.04
1551,0.46,-0.77,10.23,0.11,-0.03,-0.02
1556,0.46,-0.77,10.23,0.12,-0.05,-0.01
1561,-1.19,-0.38,7.89,0.12,-0.05,-0.01
1566,-1.19,-0.38,7.89,0.12,-0.04,-0.03
1571,-1.19,-0.38,7.89,0.12,-0.02,-0.05
1576,0.42,0.42,10.35,0.12,-0.02,-0.05
1581,0.42,0.42,10.35,0.09,-0.03,-0.07
1586,0.42,0.42,10.35,0.08,-0.04,-0.08
1591,0.50,-1.34,9.92,0.08,-0.04,-0.08
1596,0.50,-1.34,9.92,0.07,-0.04,-0.08
1601,0.50,-1.34,9.92,0.07,-0.03,-0.07
1606,0.50,-1.34,9.92,0.08,-0.04,-0.05
1611,3.48,-2.80,11.03,0.08,-0.04,-0.05
1616,3.48,-2.80,11.03,0.09,-0.21,-0.01
1621,3.48,-2.80,11.03,0.12,-0.18,-0.02
1626,1.88,-0.30,13.37,0.12,-0.18,-0.02
1631,1.88,-0.30,13.37,0.11,0.31,-0.04
1636,1.88,-0.30,13.37,0.16,0.39,-0.04
1641,1.88,-0.30,13.37,0.16,0.37,-0.03
1646,1.88,-0.30,13.37,0.17,0.32,0.01
1651,1.88,-0.30,13.37,0.16,0.20,0.05
1656,1.88,-0.30,13.37,0.14,0.05,0.06
1661,1.88,-0.30,13.37,0.14,-0.09,0.04
1666,1.88,-0.30,13.37,0.13,-0.20,0.04
1671,1.88,-0.30,13.37,0.09,-0.26,0.05
1676,1.88,-0.30,13.37,0.08,-0.28,0.06
1681,1.88,-0.30,13.37,0.08,-0.27,0.07
1686,1.88,-0.30,13.37,0.08,-0.21,0.06
1691,1.88,-0.30,13.37,0.08,-0.16,0.04
1696,2.61,-1.65,11.68,0.08,-0.16,0.04
1701,2.61,-1.65,11.68,0.12,-0.03,0.06
1706,2.61,-1.65,11.68,0.13,0.06,0.09
1711,2.61,-1.65,11.68,0.14,0.08,0.10
1716,2.61,-1.65,11.68,0.15,0.07,0.11
1721,2.61,-1.65,11.68,0.15,0.05,0.13
1726,2.61,-1.65,11.68,0.15,0.00,0.14
1731,0.08,-1.46,10.73,0.15,0.00,0.14
1736,0.08,-1.46,10.73,0.17,-0.02,0.16
1741,0.08,-1.46,10.73,0.17,0.02,0.17
1746,0.08,-1.46,10.73,0.17,0.07,0.18
1751,0.08,-1.46,10.73,0.19,0.06,0.19
1756,0.08,-1.46,10.73,0.17,0.01,0.21
1761,0.08,-1.46,10.73,0.17,-0.09,0.24
1766,1.99,-1.53,8.66,0.17,-0.09,0.24
1771,1.99,-1.53,8.66,0.18,-0.15,0.26
1776,1.99,-1.53,8.66,0.17,-0.08,0.26
1781,1.99,-1.53,8.66,0.18,0.02,0.26
1786,1.99,-1.53,8.66,0.18,0.06,0.27
1791,1.99,-1.53,8.66,0.18,0.06,0.28
1796,1.99,-1.53,8.66,0.20,0.04,0.29
1801,1.99,-1.53,8.66,0.20,0.03,0.29
1806,2.11,-1.34,10.00,0.20,0.03,0.29
1812,2.11,-1.34,10.00,0.19,-0.02,0.30
1817,2.11,-1.34,10.00,0.18,-0.10,0.31
1821,2.11,-1.34,10.00,0.18,-0.10,0.31
1826,2.11,-1.34,10.00,0.18,-0.08,0.32
1831,2.11,-1.34,10.00,0.20,-0.04,0.33
1836,1.07,-0.61,10.92,0.20,-0.04,0.33
1841,1.07,-0.61,10.92,0.19,0.06,0.31
1846,1.07,-0.61,10.92,0.19,0.07,0.31
1851,-0.27,-0.84,9.12,0.19,0.07,0.31
1856,-0.27,-0.84,9.12,0.17,0.07,0.29
1861,-0.27,-0.84,9.12,0.18,0.03,0.29
1866,-0.27,-0.84,9.12,0.17,-0.02,0.29
1871,-0.27,-0.84,9.12,0.16,-0.07,0.29
1876,-0.27,-0.84,9.12,0.16,-0.09,0.29
1881,-0.27,-0.84,9.12,0.17,-0.09,0.30
1886,-0.19,-0.38,10.61,0.17,-0.09,0.30
1891,-0.19,-0.38,10.61,0.17,0.01,0.29
1896,-0.19,-0.38,10.61,0.15,0.05,0.28
1901,-0.19,-0.38,10.61,0.15,0.05,0.27
1906,-0.19,-0.38,10.61,0.16,0.04,0.27
1911,-0.19,-0.38,10.61,0.14,0.04,0.26
1916,-0.19,-0.38,10.61,0.13,0.03,0.26
1921,-0.19,-0.38,10.61,0.12,-0.00,0.25
1926,-0.19,-0.38,10.61,0.12,-0.03,0.26
1931,-0.19,-0.38,10.61,0.13,-0.04,0.26
1936,-0.19,-0.38,10.61,0.15,-0.04,0.28
1941,-0.19,-0.38,10.61,0.15,-0.03,0.30
1946,-0.19,-0.38,10.61,0.14,-0.02,0.30
1951,-0.19,-0.38,10.61,0.12,-0.01,0.29
1956,-0.19,-0.38,10.61,0.12,-0.01,0.30
1960,0.65,-0.50,9.77,0.12,-0.01,0.30
1966,0.65,-0.50,9.77,0.10,0.01,0.31
1971,0.65,-0.50,9.77,0.09,0.03,0.32
1976,0.65,-0.50,9.77,0.10,0.04,0.34
1980,1.00,-0.92,9.08,0.10,0.04,0.34
1986,1.00,-0.92,9.08,0.11,0.01,0.39
1991,0.00,-0.34,9.46,0.11,0.01,0.39
1996,0.00,-0.34,9.46,0.12,0.01,0.43
2001,0.00,-0.34,9.46,0.12,0.04,0.43
2006,0.00,-0.34,9.46,0.12,0.04,0.45
2011,0.00,-0.34,9.46,0.12,0.01,0.46
2016,0.00,-0.34,9.46,0.13,-0.04,0.48
2021,0.00,-0.34,9.46,0.13,-0.07,0.50
2026,-2.45,-1.38,8.84,0.13,-0.07,0.50
2031,-2.45,-1.38,8.84,0.13,-0.01,0.51
2036,-2.45,-1.38,8.84,0.13,-0.03,0.50
2041,-2.45,-1.38,8.84,0.14,-0.09,0.50
2046,-2.45,-1.38,8.84,0.13,-0.15,0.51
2051,-2.45,-1.38,8.84,0.14,-0.19,0.51
2056,-2.45,-1.38,8.84,0.14,-0.18,0.50
2062,-2.45,-1.38,8.84,0.13,-0.15,0.50
2066,-2.45,-1.38,8.84,0.16,-0.05,0.49
2070,1.30,-1.65,10.35,0.16,-0.05,0.49
2076,1.30,-1.65,10.35,0.17,0.10,0.51
2081,-0.27,-1.61,9.54,0.17,0.10,0.51
2086,-0.27,-1.61,9.54,0.17,0.09,0.53
2091,-0.27,-1.61,9.54,0.17,0.07,0.54
2096,-0.27,-1.61,9.54,0.17,0.05,0.54
2101,-0.27,-1.61,9.54,0.17,0.00,0.54
2106,-0.27,-1.61,9.54,0.16,-0.05,0.55
2112,-0.27,-1.61,9.54,0.15,-0.11,0.57
2116,0.46,-0.34,8.96,0.15,-0.11,0.57
2121,0.38,0.23,9.46,0.15,-0.11,0.57
2127,0.38,0.23,9.46,0.14,-0.12,0.57
2131,0.38,0.23,9.46,0.13,-0.08,0.57
2135,0.57,-0.50,10.31,0.13,-0.08,0.57
2141,0.57,-0.50,10.31,0.13,-0.01,0.57
2147,-0.15,-0.42,10.00,0.13,-0.01,0.57
2151,1.68,-0.96,10.96,0.13,-0.01,0.57
2156,2.38,-0.84,10.69,0.13,-0.01,0.57
2162,2.38,-0.84,10.69,0.12,-0.06,0.59
2167,2.38,-0.84,10.69,0.11,-0.11,0.59
2171,1.34,-0.30,9.08,0.11,-0.11,0.59
2175,0.57,-0.15,8.96,0.11,-0.11,0.59
2182,0.57,-0.15,8.96,0.12,-0.04,0.60
2187,0.57,-0.15,8.96,0.11,0.01,0.60
2191,-0.27,-0.38,9.69,0.11,0.01,0.60
2195,0.34,-0.73,9.85,0.11,0.01,0.60
2201,0.34,-0.73,9.85,0.09,0.01,0.60
2205,0.19,-0.61,9.12,0.09,0.01,0.60
2211,0.19,-0.61,9.12,0.09,-0.02,0.61
2217,0.19,-0.61,9.12,0.07,-0.05,0.60
2222,0.73,-0.27,8.85,0.07,-0.05,0.60
2225,0.73,-0.27,8.85,0.06,-0.10,0.59
2231,1.38,-0.77,9.61,0.06,-0.10,0.59
2236,1.38,-0.77,9.61,0.06,-0.12,0.60
2241,1.38,-0.77,9.61,0.05,-0.11,0.59
2247,1.38,-0.77,9.61,0.05,-0.08,0.58
2251,1.38,-0.77,9.61,0.04,-0.03,0.57
2256,1.07,-0.61,10.46,0.04,-0.03,0.57
2260,1.34,-1.23,9.77,0.04,-0.03,0.57
2266,1.34,-1.23,9.77,0.04,-0.01,0.54
2271,1.34,-1.23,9.77,0.03,-0.03,0.54
2276,0.34,-1.11,8.73,0.03,-0.03,0.54
2281,-0.61,-0.30,9.31,0.03,-0.03,0.54
2286,-0.61,-0.30,9.31,0.04,-0.01,0.53
2291,-0.61,-0.30,9.31,0.05,-0.02,0.52
2296,-0.61,-0.30,9.31,0.04,-0.05,0.52
2301,-0.61,-0.30,9.31,0.05,-0.05,0.51
2306,-0.61,-0.30,9.31,0.04,-0.04,0.51
2311,0.54,0.00,9.23,0.04,-0.04,0.51
2315,0.61,0.19,9.54,0.04,-0.04,0.51
2322,0.61,0.19,9.54,-0.01,0.01,0.43
2326,0.61,0.19,9.54,-0.02,0.02,0.42
2331,1.27,-0.08,9.81,-0.02,0.02,0.42
2336,1.72,0.08,10.39,-0.02,0.02,0.42
2341,1.72,0.08,10.39,-0.04,-0.03,0.39
2346,1.72,0.08,10.39,-0.04,-0.04,0.39
2351,1.72,0.08,10.39,-0.04,-0.01,0.39
2356,1.72,0.08,10.39,-0.05,0.02,0.38
2361,0.38,0.23,9.69,-0.05,0.02,0.38
2366,0.54,0.19,9.61,-0.05,0.02,0.38
2371,0.54,0.19,9.61,-0.05,0.04,0.39
2376,1.30,-0.42,9.50,-0.05,0.04,0.39
2380,0.77,-0.23,9.61,-0.05,0.04,0.39
2386,0.77,-0.23,9.61,-0.05,0.00,0.41
2391,0.77,-0.23,9.61,-0.05,-0.01,0.41
2396,1.46,-0.19,9.50,-0.05,-0.01,0.41
2401,1.61,-0.15,9.34,-0.05,-0.01,0.41
2406,1.61,-0.15,9.34,-0.05,-0.04,0.43
2411,1.23,-0.23,9.34,-0.05,-0.04,0.43
2415,0.42,-0.11,9.08,-0.05,-0.04,0.43
2421,0.42,-0.11,9.08,-0.05,0.02,0.44
2426,0.42,-0.11,9.08,-0.05,0.05,0.44
2431,2.14,-0.34,9.73,-0.05,0.05,0.44
2435,1.84,-0.34,9.77,-0.05,0.05,0.44
2442,1.84,-0.34,9.77,-0.07,-0.05,0.44
2446,0.80,-0.84,9.54,-0.07,-0.05,0.44
2450,0.38,-0.15,9.27,-0.07,-0.05,0.44
2456,0.38,-0.15,9.27,-0.06,0.02,0.45
2461,0.38,-0.15,9.27,-0.07,0.04,0.44
2466,0.38,-0.15,9.27,-0.06,0.04,0.41
2471,0.42,-0.15,9.77,-0.06,0.04,0.41
2476,2.41,-0.88,10.57,-0.06,0.04,0.41
2481,2.14,-0.73,11.11,-0.06,0.04,0.41
2486,2.14,-0.73,11.11,-0.08,-0.02,0.37
2491,2.14,-0.73,11.11,-0.10,-0.01,0.36
2496,2.14,-0.73,11.11,-0.09,0.02,0.35
2501,0.73,0.00,10.11,-0.09,0.02,0.35
2506,0.34,-0.34,10.07,-0.09,0.02,0.35
2511,0.34,-0.34,10.07,-0.11,0.09,0.27
2516,0.34,0.00,9.80,-0.11,0.09,0.27
2520,0.73,0.00,9.54,-0.11,0.09,0.27
2526,0.73,0.00,9.54,-0.11,0.06,0.20
2531,0.73,0.00,9.54,-0.11,0.05,0.17
2536,0.46,0.96,8.89,-0.11,0.05,0.17
2541,0.38,1.46,9.23,-0.11,0.05,0.17
2546,0.61,1.80,9.46,-0.11,0.05,0.17
2550,0.92,1.57,9.85,-0.11,0.05,0.17
2557,0.92,1.57,9.85,-0.20,0.02,-0.07
2561,1.46,1.84,9.92,-0.20,0.02,-0.07
2566,1.30,1.49,9.80,-0.20,0.02,-0.07
2570,0.46,1.99,8.50,-0.20,0.02,-0.07
2576,0.46,1.99,8.50,-0.28,0.09,-0.30
2581,0.46,1.99,8.50,-0.29,0.12,-0.35
2586,0.46,1.99,8.50,-0.31,0.11,-0.40
2591,2.49,2.76,9.73,-0.31,0.11,-0.40
2596,2.57,2.30,9.65,-0.31,0.11,-0.40
2601,1.27,2.18,9.30,-0.31,0.11,-0.40
2606,1.42,2.80,9.30,-0.31,0.11,-0.40
2611,0.77,2.41,9.42,-0.31,0.11,-0.40
2616,0.77,2.41,9.42,-0.36,0.17,-0.63
2621,1.11,2.68,8.73,-0.36,0.17,-0.63
2626,1.61,2.87,8.89,-0.36,0.17,-0.63
2631,1.61,2.87,8.89,-0.37,0.11,-0.70
2636,2.80,1.80,9.54,-0.37,0.11,-0.70
2641,1.68,2.76,9.73,-0.37,0.11,-0.70
2646,2.14,1.72,9.34,-0.37,0.11,-0.70
2651,2.14,1.72,9.34,-0.43,0.05,-0.83
2656,1.61,1.84,8.96,-0.43,0.05,-0.83
2661,1.46,2.34,9.77,-0.43,0.05,-0.83
2666,1.46,2.34,9.77,-0.46,0.10,-0.87
2671,1.65,1.23,10.23,-0.46,0.10,-0.87
2676,1.27,1.46,9.46,-0.46,0.10,-0.87
2681,2.41,1.11,9.54,-0.46,0.10,-0.87
2686,2.41,0.42,9.73,-0.46,0.10,-0.87
2690,3.10,0.04,9.46,-0.46,0.10,-0.87
2696,3.10,0.04,9.46,-0.47,0.05,-0.93
2702,3.10,0.04,9.46,-0.46,0.09,-0.94
2706,-0.04,-0.04,10.07,-0.46,0.09,-0.94
2710,-0.04,-0.04,10.07,-0.45,0.14,-0.95
2716,1.30,-0.27,9.08,-0.45,0.14,-0.95
2721,0.88,-0.54,9.89,-0.45,0.14,-0.95
2725,0.88,-0.54,9.89,-0.43,0.05,-0.93
2730,2.22,-1.00,9.04,-0.43,0.05,-0.93
2737,2.22,-1.00,9.04,-0.41,0.02,-0.91
2741,0.54,-1.42,9.50,-0.41,0.02,-0.91
2746,0.54,-1.42,9.50,-0.38,0.07,-0.89
2751,1.99,-1.23,10.61,-0.38,0.07,-0.89
2756,1.53,-1.11,9.92,-0.38,0.07,-0.89
2761,2.14,-1.30,9.96,-0.38,0.07,-0.89
2766,1.53,-1.38,10.00,-0.38,0.07,-0.89
2771,1.53,-1.38,10.00,-0.33,0.11,-0.82
2776,1.19,-1.46,9.30,-0.33,0.11,-0.82
2781,1.19,-1.23,8.74,-0.33,0.11,-0.82
2786,1.65,-1.11,9.30,-0.33,0.11,-0.82
2791,1.07,-1.07,9.39,-0.33,0.11,-0.82
2796,1.46,-0.92,9.77,-0.33,0.11,-0.82
2801,1.00,-1.04,10.57,-0.33,0.11,-0.82
2806,1.00,-1.04,10.57,-0.28,0.06,-0.69
2811,1.00,-1.04,10.57,-0.29,0.07,-0.67
2816,1.11,-1.34,9.61,-0.29,0.07,-0.67
2821,1.15,-1.30,9.23,-0.29,0.07,-0.67
2826,0.77,-1.04,8.82,-0.29,0.07,-0.67
2830,0.77,-1.04,8.82,-0.23,0.08,-0.56
2836,1.34,-1.72,9.39,-0.23,0.08,-0.56
2841,1.07,-1.00,9.08,-0.23,0.08,-0.56
2846,1.99,-1.95,10.07,-0.23,0.08,-0.56
2851,1.46,-1.27,10.11,-0.23,0.08,-0.56
2856,1.42,-1.27,9.81,-0.23,0.08,-0.56
2861,1.42,-1.27,9.81,-0.20,0.02,-0.48
2866,0.92,-1.57,9.35,-0.20,0.02,-0.48
2871,2.30,-1.27,9.61,-0.20,0.02,-0.48
2876,1.80,-1.57,9.16,-0.20,0.02,-0.48
2881,1.80,-1.72,9.34,-0.20,0.02,-0.48
2886,1.61,-1.19,9.65,-0.20,0.02,-0.48
2891,1.61,-1.19,9.65,-0.14,0.04,-0.44
2896,1.19,-1.23,9.46,-0.14,0.04,-0.44
2901,0.77,-1.00,9.88,-0.14,0.04,-0.44
2906,0.73,-1.27,9.81,-0.14,0.04,-0.44
2911,1.84,-1.19,9.69,-0.14,0.04,-0.44
2916,1.65,-1.30,10.07,-0.14,0.04,-0.44
2921,1.80,-0.84,9.65,-0.14,0.04,-0.44
2926,1.80,-0.84,9.65,-0.17,0.02,-0.54
2931,1.91,-0.92,9.93,-0.17,0.02,-0.54
2936,1.91,-0.92,9.93,-0.18,0.03,-0.57
2941,1.57,-0.69,10.92,-0.18,0.03,-0.57
2946,1.42,-0.42,10.65,-0.18,0.03,-0.57
2951,1.27,-0.61,9.61,-0.18,0.03,-0.57
2956,1.42,-0.50,9.30,-0.18,0.03,-0.57
2961,1.15,-0.54,9.16,-0.18,0.03,-0.57
2966,1.46,-0.54,8.35,-0.18,0.03,-0.57
2971,1.46,-0.54,8.35,-0.15,0.07,-0.67
2976,1.46,-0.54,8.35,-0.16,0.04,-0.70
2980,1.72,-0.69,9.00,-0.16,0.04,-0.70
2985,1.72,-0.69,9.00,-0.17,-0.01,-0.73
2990,1.27,-0.65,9.46,-0.17,-0.01,-0.73
2997,1.27,-0.65,9.46,-0.17,0.00,-0.75
3001,0.50,-0.50,9.85,-0.17,0.00,-0.75
3006,0.50,-0.50,9.85,-0.18,0.06,-0.79
3011,1.65,-0.69,10.53,-0.18,0.06,-0.79
3016,2.03,-1.38,10.50,-0.18,0.06,-0.79
3021,2.11,-1.95,10.31,-0.18,0.06,-0.79
3026,1.34,-1.61,10.07,-0.18,0.06,-0.79
3031,0.23,-0.77,9.04,-0.18,0.06,-0.79
3036,-0.11,-0.84,9.20,-0.18,0.06,-0.79
3041,-0.23,-1.11,8.74,-0.18,0.06,-0.79
3046,-0.08,-0.84,8.58,-0.18,0.06,-0.79
3052,0.54,-1.34,9.27,-0.18,0.06,-0.79
3056,0.54,-1.34,9.27,-0.17,0.05,-0.90
3061,0.38,-0.27,9.23,-0.17,0.05,-0.90
3066,0.73,-0.50,9.39,-0.17,0.05,-0.90
3071,0.77,-0.96,9.38,-0.17,0.05,-0.90
3076,0.54,-0.46,9.12,-0.17,0.05,-0.90
3081,0.19,-0.80,9.50,-0.17,0.05,-0.90
3086,0.73,-1.15,9.73,-0.17,0.05,-0.90
3091,0.73,-1.15,9.73,-0.17,0.04,-0.85
3096,0.73,-1.15,9.73,-0.17,0.07,-0.84
3101,1.19,-1.19,9.46,-0.17,0.07,-0.84
3106,1.42,-1.11,9.04,-0.17,0.07,-0.84
3111,0.92,-1.04,9.39,-0.17,0.07,-0.84
3116,-0.04,-1.42,9.65,-0.17,0.07,-0.84
3121,-0.69,-1.27,9.42,-0.17,0.07,-0.84
3126,-0.69,-1.27,9.42,-0.12,0.10,-0.74
3131,-0.57,-1.42,9.96,-0.12,0.10,-0.74
3136,-0.46,-1.19,9.58,-0.12,0.10,-0.74
3141,0.38,-1.04,9.50,-0.12,0.10,-0.74
3147,1.00,-0.92,9.80,-0.12,0.10,-0.74
3151,1.07,-0.92,9.54,-0.12,0.10,-0.74
3156,1.15,-1.15,9.30,-0.12,0.10,-0.74
3161,1.15,-1.76,9.34,-0.12,0.10,-0.74
3166,1.04,-1.91,9.20,-0.12,0.10,-0.74
3171,-0.69,-1.46,8.36,-0.12,0.10,-0.74
3176,-0.69,-1.46,8.36,-0.05,0.07,-0.47
3181,-0.30,-1.99,10.49,-0.05,0.07,-0.47
3186,0.84,-1.88,10.88,-0.05,0.07,-0.47
3191,1.65,-1.84,10.84,-0.05,0.07,-0.47
3197,1.91,-2.22,10.65,-0.05,0.07,-0.47
3201,2.03,-1.84,9.50,-0.05,0.07,-0.47
3206,1.76,-2.11,9.16,-0.05,0.07,-0.47
3211,1.23,-2.22,8.89,-0.05,0.07,-0.47
3216,0.96,-2.84,8.62,-0.05,0.07,-0.47
3221,0.61,-2.68,8.81,-0.05,0.07,-0.47
3227,1.19,-2.95,9.85,-0.05,0.07,-0.47
3231,1.19,-2.95,9.85,0.04,0.07,-0.20
3236,1.19,-2.95,9.85,0.04,0.07,-0.19
3241,1.38,-2.38,10.00,0.04,0.07,-0.19
3246,1.38,-2.34,10.07,0.04,0.07,-0.19
3251,1.19,-2.38,9.77,0.04,0.07,-0.19
3256,1.15,-2.68,9.04,0.04,0.07,-0.19
3261,1.15,-2.68,9.04,0.07,0.03,-0.13
3265,1.15,-2.68,9.04,0.08,0.03,-0.12
3271,0.61,-3.41,9.08,0.08,0.03,-0.12
3276,1.88,-3.68,9.89,0.08,0.03,-0.12
3281,1.88,-3.68,9.89,0.11,0.04,-0.06
3286,1.04,-3.29,9.50,0.11,0.04,-0.06
3291,0.73,-3.22,8.77,0.11,0.04,-0.06
3296,1.04,-3.18,8.46,0.11,0.04,-0.06
3302,0.80,-3.14,8.16,0.11,0.04,-0.06
3306,1.23,-3.22,8.50,0.11,0.04,-0.06
3311,1.30,-3.29,8.78,0.11,0.04,-0.06
3317,1.65,-3.33,9.12,0.11,0.04,-0.06
3321,1.57,-2.91,9.84,0.11,0.04,-0.06
3326,0.92,-2.64,9.46,0.11,0.04,-0.06
3331,1.15,-1.99,9.58,0.11,0.04,-0.06
3336,1.15,-1.99,9.58,0.18,0.02,0.09
3341,2.07,-1.65,9.69,0.18,0.02,0.09
3346,1.07,-1.72,9.58,0.18,0.02,0.09
3351,0.69,-1.19,9.31,0.18,0.02,0.09
3356,0.69,-1.19,9.31,0.19,0.00,0.18
3361,1.38,-1.11,9.65,0.19,0.00,0.18
3366,0.88,-0.73,9.92,0.19,0.00,0.18
3371,0.34,-0.57,9.65,0.19,0.00,0.18
3376,0.50,-0.57,9.69,0.19,0.00,0.18
3382,0.65,-0.34,9.69,0.19,0.00,0.18
3386,0.65,-0.34,9.69,0.18,-0.03,0.25
3391,0.61,0.11,9.77,0.18,-0.03,0.25
3396,0.96,0.04,9.77,0.18,-0.03,0.25
3402,0.92,0.08,9.46,0.18,-0.03,0.25
3406,0.19,-0.19,9.61,0.18,-0.03,0.25
3412,-0.34,0.00,9.50,0.18,-0.03,0.25
3416,-0.34,0.00,9.50,0.12,0.03,0.20
3421,-0.34,0.00,9.50,0.12,0.03,0.19
3426,0.00,0.00,9.77,0.12,0.03,0.19
3431,0.50,0.15,9.89,0.12,0.03,0.19
3436,0.50,0.15,9.89,0.12,-0.03,0.17
3441,0.84,0.65,9.27,0.12,-0.03,0.17
3447,0.92,0.69,9.16,0.12,-0.03,0.17
3451,0.92,0.69,9.16,0.08,0.00,0.12
3456,0.92,0.69,9.16,0.09,-0.01,0.12
3461,0.38,0.30,9.46,0.09,-0.01,0.12
3467,0.15,0.04,9.65,0.09,-0.01,0.12
3471,0.15,0.04,9.65,0.08,0.04,0.11
3476,0.15,0.04,9.65,0.08,0.01,0.10
3482,0.50,0.04,9.58,0.08,0.01,0.10
3486,0.50,0.04,9.58,0.06,-0.05,0.09
3491,0.50,0.04,9.58,0.06,-0.03,0.07
3496,0.50,0.04,9.58,0.05,-0.01,0.04
3502,1.53,-0.73,9.65,0.05,-0.01,0.04
3506,1.53,-0.73,9.65,0.04,-0.04,0.02
3511,1.49,-0.84,10.31,0.04,-0.04,0.02
3516,1.19,-0.84,9.96,0.04,-0.04,0.02
3522,0.84,-0.61,9.58,0.04,-0.04,0.02
3527,0.84,-0.61,9.58,-0.01,0.04,-0.07
3531,0.11,-1.11,9.16,-0.01,0.04,-0.07
3536,0.11,-1.11,9.16,-0.02,0.00,-0.10
3541,0.11,-1.11,9.16,-0.02,0.02,-0.11
3546,0.73,-1.46,9.65,-0.02,0.02,-0.11
3551,0.80,-1.30,9.54,-0.02,0.02,-0.11
3556,0.80,-1.30,9.54,-0.03,-0.01,-0.10
3561,0.80,-1.30,9.54,-0.03,0.01,-0.10
3566,0.84,-1.04,9.50,-0.03,0.01,-0.10
3572,1.00,-1.00,9.42,-0.03,0.01,-0.10
3576,1.00,-1.00,9.42,-0.04,0.01,-0.08
3581,0.96,-1.19,9.39,-0.04,0.01,-0.08
3586,0.69,-1.46,9.38,-0.04,0.01,-0.08
3591,0.73,-1.57,9.42,-0.04,0.01,-0.08
3596,0.73,-1.57,9.42,-0.02,0.02,-0.04
3601,0.54,-1.72,9.42,-0.02,0.02,-0.04
3607,0.50,-1.61,9.46,-0.02,0.02,-0.04
3611,0.50,-1.61,9.46,0.00,-0.01,0.02
3616,0.61,-1.61,9.61,0.00,-0.01,0.02
3622,0.73,-1.72,9.61,0.00,-0.01,0.02
3626,0.73,-1.72,9.61,0.01,-0.02,0.05
3631,0.73,-1.91,9.31,0.01,-0.02,0.05
3636,0.73,-1.80,9.31,0.01,-0.02,0.05
3642,0.61,-1.65,9.43,0.01,-0.02,0.05
3646,0.61,-1.65,9.43,0.01,-0.00,0.09
3651,0.30,-1.27,9.77,0.01,-0.00,0.09
3657,0.46,-1.34,9.89,0.01,-0.00,0.09
3661,0.46,-1.34,9.89,-0.01,-0.01,0.11
3666,0.46,-1.27,9.50,-0.01,-0.01,0.11
3671,0.38,-1.04,9.61,-0.01,-0.01,0.11
3676,0.38,-1.04,9.61,-0.00,0.00,0.14
3681,0.38,-1.04,9.61,0.00,0.00,0.16
3686,-0.27,-1.04,9.39,0.00,0.00,0.16
3692,-0.23,-1.00,9.34,0.00,0.00,0.16
3696,-0.23,-1.00,9.34,0.01,-0.02,0.21
3701,0.30,-1.00,9.46,0.01,-0.02,0.21
3707,0.46,-0.84,9.65,0.01,-0.02,0.21
3711,0.46,-0.84,9.65,0.01,-0.03,0.24
3716,0.46,-0.84,9.65,0.00,-0.01,0.24
3721,0.04,-0.80,9.38,0.00,-0.01,0.24
3727,0.00,-0.73,9.39,0.00,-0.01,0.24
3731,0.00,-0.73,9.39,-0.02,-0.03,0.25
3736,0.00,-0.73,9.39,-0.00,-0.04,0.25
3742,0.34,-0.54,9.89,-0.00,-0.04,0.25
3746,0.34,-0.54,9.89,-0.02,-0.01,0.25
3751,0.34,-0.54,9.89,-0.03,-0.01,0.22
3756,0.34,-0.54,9.89,-0.03,-0.02,0.21
3762,0.57,-0.73,9.58,-0.03,-0.02,0.21
3766,0.57,-0.73,9.58,-0.02,-0.04,0.22
3771,0.92,-0.54,10.15,-0.02,-0.04,0.22
3777,0.61,-0.46,10.00,-0.02,-0.04,0.22
3781,0.61,-0.46,10.00,-0.02,0.01,0.23
3786,0.19,-0.23,9.42,-0.02,0.01,0.23
3792,0.34,-0.19,9.38,-0.02,0.01,0.23
3796,0.34,-0.19,9.38,-0.03,-0.03,0.22
3801,0.34,-0.19,9.38,-0.04,-0.02,0.22
3806,0.77,-0.19,9.50,-0.04,-0.02,0.22
3811,0.61,-0.27,9.42,-0.04,-0.02,0.22
3816,0.61,-0.27,9.42,-0.07,-0.01,0.22
3821,0.61,-0.27,9.42,-0.07,-0.01,0.21
3827,0.54,-0.27,9.16,-0.07,-0.01,0.21
3831,0.54,-0.27,9.16,-0.09,-0.02,0.20
3836,0.54,-0.27,9.16,-0.09,-0.02,0.19
3841,0.46,-0.65,10.00,-0.09,-0.02,0.19
3847,0.11,-0.65,9.96,-0.09,-0.02,0.19
3851,0.11,-0.65,9.96,-0.11,0.01,0.16
3856,0.11,-0.65,9.96,-0.11,-0.02,0.16
3862,0.42,-0.77,9.61,-0.11,-0.02,0.16
3866,0.42,-0.77,9.61,-0.10,-0.04,0.17
3871,0.42,-0.77,9.61,-0.11,-0.03,0.17
3876,0.42,-0.77,9.61,-0.10,-0.02,0.17
3882,1.34,-0.84,9.04,-0.10,-0.02,0.17
3886,1.34,-0.84,9.04,-0.10,0.01,0.15
3891,0.57,-0.77,9.12,-0.10,0.01,0.15
3896,0.38,-0.84,9.23,-0.10,0.01,0.15
3902,0.27,-0.84,9.35,-0.10,0.01,0.15
3906,0.27,-0.84,9.35,-0.13,-0.01,0.11
3911,0.92,-1.04,9.80,-0.13,-0.01,0.11
3916,1.27,-1.07,9.77,-0.13,-0.01,0.11
3922,1.49,-1.00,9.77,-0.13,-0.01,0.11
3926,1.61,-1.07,9.61,-0.13,-0.01,0.11
3932,1.68,-1.11,9.65,-0.13,-0.01,0.11
3936,1.68,-1.11,9.65,-0.17,0.00,0.03
3941,1.68,-1.11,9.65,-0.18,0.01,0.01
3948,1.04,-1.65,9.69,-0.18,0.01,0.01
3951,1.04,-1.65,9.69,-0.16,0.02,0.02
3955,1.04,-1.65,9.69,-0.15,0.01,0.03
3962,1.15,-1.57,9.58,-0.15,0.01,0.03
3967,1.34,-1.23,9.39,-0.15,0.01,0.03
3971,1.34,-1.23,9.39,-0.14,-0.02,0.04
3976,1.34,-1.23,9.39,-0.16,-0.01,0.04
3982,1.07,-1.11,9.27,-0.16,-0.01,0.04
3986,1.07,-1.11,9.27,-0.17,-0.00,0.04
3991,1.07,-1.11,9.27,-0.17,0.00,0.05
3996,1.07,-1.11,9.27,-0.19,0.01,0.05
4002,0.19,-1.15,9.61,-0.19,0.01,0.05
4006,0.19,-1.15,9.61,-0.20,-0.01,0.05
4011,0.19,-1.15,9.61,-0.19,-0.03,0.05
4016,0.19,-1.15,9.61,-0.18,-0.04,0.05
4022,0.88,-1.72,9.23,-0.18,-0.04,0.05
4026,0.88,-1.72,9.23,-0.15,-0.01,0.07
4031,0.88,-1.72,9.23,-0.15,0.00,0.08
4037,-0.04,-1.57,9.54,-0.15,0.00,0.08
4041,-0.04,-1.57,9.54,-0.14,0.01,0.09
4046,-0.04,-1.57,9.54,-0.14,0.01,0.09
4052,-0.46,-1.15,9.93,-0.14,0.01,0.09
4056,-0.46,-1.15,9.93,-0.16,0.01,0.10
4061,-0.46,-1.15,9.93,-0.17,-0.01,0.10
4066,-0.04,-1.57,9.08,-0.17,-0.01,0.10
4072,0.23,-1.49,9.16,-0.17,-0.01,0.10
4076,0.23,-1.49,9.16,-0.17,-0.02,0.11
4081,0.23,-1.49,9.16,-0.19,0.00,0.11
4087,0.04,-1.30,9.61,-0.19,0.00,0.11
4091,0.04,-1.30,9.61,-0.19,0.03,0.10
4096,0.04,-1.30,9.61,-0.20,0.03,0.10
4101,-0.42,-1.49,9.73,-0.20,0.03,0.10
4107,-0.38,-1.57,9.73,-0.20,0.03,0.10
4111,-0.38,-1.57,9.73,-0.20,0.01,0.09
4116,-0.38,-1.57,9.73,-0.19,0.00,0.09
4122,-0.11,-2.34,9.58,-0.19,0.00,0.09
4126,-0.11,-2.34,9.58,-0.18,-0.01,0.09
4131,-0.11,-2.34,9.58,-0.17,0.01,0.09
4136,-0.11,-2.34,9.58,-0.17,0.03,0.10
4142,-0.30,-2.72,9.27,-0.17,0.03,0.10
4146,-0.30,-2.72,9.27,-0.15,0.02,0.11
4151,-0.30,-2.72,9.27,-0.15,0.02,0.09
4157,-0.92,-3.33,8.96,-0.15,0.02,0.09
4161,-0.92,-3.33,8.96,-0.13,0.02,0.12
4166,-0.92,-3.33,8.96,-0.13,0.02,0.12
4172,-1.11,-2.99,9.00,-0.13,0.02,0.12
4176,-1.11,-2.99,9.00,-0.13,0.02,0.09
4181,-1.11,-2.99,9.00,-0.12,0.01,0.08
4186,-0.96,-3.45,9.00,-0.12,0.01,0.08
4192,-0.84,-3.48,9.20,-0.12,0.01,0.08
4196,-0.84,-3.48,9.20,-0.10,-0.02,0.08
4201,-0.84,-3.48,9.20,-0.11,0.00,0.06
4207,-0.80,-3.45,9.81,-0.11,0.00,0.06
4211,-0.80,-3.45,9.81,-0.11,0.05,0.04
4216,-0.80,-3.45,9.81,-0.10,0.06,0.02
4221,-1.15,-3.64,9.54,-0.10,0.06,0.02
4227,-1.04,-3.79,9.46,-0.10,0.06,0.02
4231,-1.04,-3.79,9.46,-0.08,0.04,-0.00
4236,-1.04,-3.79,9.46,-0.07,0.03,-0.01
4242,-0.73,-4.06,9.12,-0.07,0.03,-0.01
4247,-0.73,-4.06,9.12,-0.05,0.04,-0.02
4251,-0.73,-4.06,9.12,-0.05,0.03,-0.02
4256,-0.73,-4.06,9.12,-0.05,0.03,-0.02
4262,-0.84,-3.68,8.85,-0.05,0.03,-0.02
4266,-0.84,-3.68,8.85,-0.06,0.02,-0.03
4271,-0.84,-3.68,8.85,-0.05,0.02,-0.03
4276,-0.84,-3.68,8.85,-0.04,0.01,-0.02
4282,-0.57,-3.56,9.16,-0.04,0.01,-0.02
4286,-0.57,-3.56,9.16,-0.02,0.01,0.00
4291,-0.57,-3.56,9.16,-0.00,0.00,0.02
4297,-0.30,-3.79,9.42,-0.00,0.00,0.02
4301,-0.30,-3.79,9.42,0.04,0.00,0.05
4306,-0.30,-3.79,9.42,0.06,0.00,0.07
4312,-2.18,-3.33,9.35,0.06,0.00,0.07
4316,-2.18,-3.33,9.35,0.11,0.01,0.13
4321,-2.18,-3.33,9.35,0.10,0.02,0.15
4327,0.38,-2.49,9.27,0.10,0.02,0.15
4331,0.38,-2.49,9.27,0.10,0.02,0.16
4336,0.38,-2.49,9.27,0.10,0.03,0.19
4341,0.38,-2.49,9.27,0.10,0.02,0.21
4346,-0.19,-1.88,9.38,0.10,0.02,0.21
4351,-0.19,-1.88,9.38,0.09,0.02,0.23
4356,-0.19,-1.88,9.38,0.10,0.01,0.25
4362,-0.15,-1.61,9.58,0.10,0.01,0.25
4366,-0.15,-1.61,9.58,0.11,0.01,0.29
4371,-0.15,-1.61,9.58,0.11,0.02,0.31
4376,-0.15,-1.61,9.58,0.11,0.00,0.32
4382,-0.19,-1.49,9.16,0.11,0.00,0.32
4386,-0.19,-1.49,9.16,0.11,-0.01,0.33
4391,-0.19,-1.49,9.16,0.12,-0.03,0.34
4396,-0.19,-1.49,9.16,0.12,-0.03,0.35
4402,-0.15,-0.69,9.16,0.12,-0.03,0.35
4406,-0.15,-0.69,9.16,0.11,-0.03,0.35
4411,-0.15,-0.69,9.16,0.10,-0.02,0.34
4418,-0.08,-0.42,9.50,0.10,-0.02,0.34
4421,-0.08,-0.42,9.50,0.08,-0.00,0.34
4426,-0.08,-0.42,9.50,0.09,0.00,0.34
4432,-0.19,-0.30,9.42,0.09,0.00,0.34
4436,-0.19,-0.30,9.42,0.08,-0.00,0.33
4441,-0.19,-0.30,9.42,0.08,-0.00,0.32
4446,-0.38,-0.19,9.27,0.08,-0.00,0.32
4452,-0.38,-0.27,9.39,0.08,-0.00,0.32
4456,-0.38,-0.27,9.39,0.05,-0.00,0.27
4461,-0.38,-0.27,9.39,0.05,-0.01,0.26
4467,-0.34,-0.34,9.50,0.05,-0.01,0.26
4471,-0.34,-0.34,9.50,0.03,-0.02,0.24
4476,-0.34,-0.34,9.50,0.02,-0.03,0.21
4481,-0.04,-0.61,9.50,0.02,-0.03,0.21
4488,0.00,-0.69,9.54,0.02,-0.03,0.21
4491,0.00,-0.69,9.54,-0.01,-0.02,0.16
4496,0.00,-0.69,9.54,-0.01,-0.01,0.14
4502,-0.38,-0.54,9.46,-0.01,-0.01,0.14
4506,-0.38,-0.54,9.46,-0.04,0.02,0.10
4511,-0.38,-0.54,9.46,-0.04,0.02,0.09
4516,-0.38,-0.54,9.46,-0.04,0.03,0.08
4522,-0.61,-0.65,9.12,-0.04,0.03,0.08
4526,-0.61,-0.65,9.12,-0.06,0.00,0.06
4531,-0.61,-0.65,9.12,-0.06,-0.01,0.06
4537,-0.23,-0.96,9.20,-0.06,-0.01,0.06
4541,-0.23,-0.96,9.20,-0.07,-0.02,0.06
4546,-0.23,-0.96,9.20,-0.06,-0.02,0.05
4552,-0.04,-1.15,9.58,-0.06,-0.02,0.05
4556,-0.04,-1.15,9.58,-0.08,0.00,0.04
4561,-0.04,-1.15,9.58,-0.08,0.01,0.03
4566,-0.42,-1.49,9.58,-0.08,0.01,0.03
4572,-0.54,-1.65,9.50,-0.08,0.01,0.03
4576,-0.54,-1.65,9.50,-0.09,0.03,0.00
4581,-0.54,-1.65,9.50,-0.09,0.02,0.00
4587,-0.46,-1.95,9.16,-0.09,0.02,0.00
4591,-0.46,-1.95,9.16,-0.08,0.01,0.00
4596,-0.46,-1.95,9.16,-0.09,-0.01,-0.00
4601,-0.46,-1.95,9.16,-0.10,-0.01,-0.01
4607,-0.08,-1.95,9.31,-0.10,-0.01,-0.01
4611,-0.08,-1.95,9.31,-0.10,-0.01,-0.02
4616,-0.08,-1.95,9.31,-0.10,-0.00,-0.01
4622,-0.23,-2.30,9.61,-0.10,-0.00,-0.01
4626,-0.23,-2.30,9.61,-0.09,0.02,-0.01
4631,-0.23,-2.30,9.61,-0.09,0.03,-0.01
4636,-0.23,-2.30,9.61,-0.09,0.02,-0.02
4642,-1.49,-1.88,9.31,-0.09,0.02,-0.02
4646,-1.49,-1.88,9.31,-0.10,0.03,-0.05
4651,-1.49,-1.88,9.31,-0.07,0.01,-0.02
4657,-0.57,-2.53,9.30,-0.07,0.01,-0.02
4661,-0.57,-2.53,9.30,-0.05,-0.00,-0.00
4666,-0.57,-2.53,9.30,-0.05,-0.02,-0.00
4671,0.08,-2.11,9.46,-0.05,-0.02,-0.00
4677,0.34,-2.14,9.50,-0.05,-0.02,-0.00
4681,0.34,-2.14,9.50,-0.06,-0.01,0.01
4686,0.34,-2.14,9.50,-0.05,0.00,0.02
4692,-0.15,-2.91,9.34,-0.05,0.00,0.02
4696,-0.15,-2.91,9.34,-0.06,0.02,0.02
4701,-0.15,-2.91,9.34,-0.05,0.01,0.02
4707,-0.30,-2.45,9.27,-0.05,0.01,0.02
4711,-0.30,-2.45,9.27,-0.05,-0.00,0.03
4716,-0.30,-2.45,9.27,-0.06,-0.01,0.02
4721,-0.30,-2.45,9.27,-0.05,-0.01,0.01
4726,-0.11,-2.64,9.34,-0.05,-0.01,0.01
4731,-0.11,-2.64,9.34,-0.04,-0.01,0.01
4736,-0.11,-2.64,9.34,-0.03,-0.01,0.02
4742,0.04,-2.30,9.54,-0.03,-0.01,0.02
4746,0.04,-2.30,9.54,-0.02,0.01,0.04
4751,0.04,-2.30,9.54,-0.01,0.02,0.05
4756,0.04,-2.30,9.54,-0.02,0.01,0.05
4762,-0.34,-2.11,9.69,-0.02,0.01,0.05
4766,-0.34,-2.11,9.69,-0.01,0.02,0.06
4771,-0.34,-2.11,9.69,-0.00,0.03,0.06
4776,-0.34,-2.11,9.69,-0.00,0.01,0.07
4782,-0.42,-2.03,9.16,-0.00,0.01,0.07
4786,-0.42,-2.03,9.16,0.00,-0.01,0.08
4791,-0.34,-1.99,9.16,0.00,-0.01,0.08
4797,-0.23,-1.95,9.23,0.00,-0.01,0.08
4801,-0.23,-1.95,9.23,-0.00,-0.04,0.08
4806,-0.23,-1.95,9.23,-0.01,-0.02,0.07
4811,-0.30,-1.91,9.42,-0.01,-0.02,0.07
4815,-0.30,-1.91,9.42,-0.00,-0.00,0.06
4820,-0.30,-1.80,9.54,-0.00,-0.00,0.06
4827,-0.30,-1.80,9.54,-0.00,-0.00,0.06
4832,-0.27,-1.68,9.65,-0.00,-0.00,0.06
4836,-0.27,-1.68,9.65,-0.01,0.00,0.05
4841,-0.27,-1.68,9.65,-0.01,0.01,0.06
4846,-0.30,-1.68,9.50,-0.01,0.01,0.06
4851,-0.30,-1.68,9.50,-0.01,0.01,0.05
4856,-0.30,-1.68,9.50,-0.01,0.01,0.06
4861,-0.30,-1.68,9.50,-0.01,-0.00,0.06
4867,-0.30,-1.49,9.35,-0.01,-0.00,0.06
4871,-0.30,-1.49,9.35,-0.01,-0.01,0.06
4876,-0.30,-1.49,9.35,-0.00,-0.01,0.06
4882,-0.27,-1.57,9.35,-0.00,-0.01,0.06
4886,-0.27,-1.57,9.35,-0.01,-0.01,0.07
4891,-0.27,-1.57,9.35,-0.01,-0.01,0.07
4897,-0.27,-1.57,9.35,-0.01,-0.01,0.07
4901,-0.27,-1.57,9.35,-0.00,-0.01,0.07
4906,-0.27,-1.57,9.35,-0.02,-0.01,0.07
4911,-0.27,-1.57,9.35,-0.01,-0.01,0.07
4917,-0.46,-1.46,9.39,-0.01,-0.01,0.07
4921,-0.46,-1.46,9.39,-0.02,-0.01,0.07
4827,-0.30,-1.80,9.54,-0.00,-0.00,0.06
4832,-0.27,-1.68,9.65,-0.00,-0.00,0.06
4836,-0.27,-1.68,9.65,-0.01,0.00,0.05
4841,-0.27,-1.68,9.65,-0.01,0.01,0.06
4846,-0.30,-1.68,9.50,-0.01,0.01,0.06
4851,-0.30,-1.68,9.50,-0.01,0.01,0.05
4856,-0.30,-1.68,9.50,-0.01,0.01,0.06
4861,-0.30,-1.68,9.50,-0.01,-0.00,0.06
4867,-0.30,-1.49,9.35,-0.01,-0.00,0.06
4871,-0.30,-1.49,9.35,-0.01,-0.01,0.06
4876,-0.30,-1.49,9.35,-0.00,-0.01,0.06
4882,-0.27,-1.57,9.35,-0.00,-0.01,0.06
4886,-0.27,-1.57,9.35,-0.01,-0.01,0.07
4891,-0.27,-1.57,9.35,-0.01,-0.01,0.07
4897,-0.27,-1.57,9.35,-0.01,-0.01,0.07
4901,-0.27,-1.57,9.35,-0.00,-0.01,0.07
