timestamp,accX,accY,accZ,gyroX,gyroY,gyroZ
Break
7,-0.57,-2.07,7.70,0.03,0.06,0.01
18,-0.57,-2.07,7.70,0.04,-0.07,0.07
20,-0.57,-2.07,7.70,0.00,0.06,-0.07
21,-0.80,0.34,9.54,0.00,0.06,-0.07
25,-0.69,0.61,9.46,0.00,0.06,-0.07
31,-0.69,0.61,9.46,-0.03,-0.01,-0.07
36,-0.69,0.61,9.46,-0.02,-0.03,-0.06
42,1.07,0.11,9.77,-0.02,-0.03,-0.06
46,1.07,0.11,9.77,-0.02,-0.05,-0.03
51,1.07,0.11,9.77,-0.02,-0.04,-0.03
56,1.07,0.11,9.77,-0.01,0.00,-0.06
62,-1.57,0.11,8.54,-0.01,0.00,-0.06
66,-1.57,0.11,8.54,0.01,0.08,-0.06
71,-1.57,0.11,8.54,-0.00,0.08,-0.04
76,-0.73,1.42,9.12,-0.00,0.08,-0.04
81,-0.73,1.42,9.12,-0.04,0.00,-0.08
86,-0.73,1.42,9.12,-0.07,-0.04,-0.13
92,-0.73,1.42,9.12,-0.07,-0.08,-0.15
96,-0.73,1.42,9.12,-0.08,-0.10,-0.15
101,-0.73,1.42,9.12,-0.07,-0.11,-0.15
106,-0.73,1.42,9.12,-0.05,-0.09,-0.14
112,0.61,-0.30,10.00,-0.05,-0.09,-0.14
116,0.61,-0.30,10.00,-0.05,-0.07,-0.13
121,0.61,-0.30,10.00,-0.04,-0.08,-0.14
127,0.61,-0.30,10.00,-0.01,-0.05,-0.15
131,0.61,-0.30,10.00,0.01,0.02,-0.15
136,0.61,-0.30,10.00,0.03,0.09,-0.14
141,0.61,-0.30,10.00,0.03,0.13,-0.14
147,0.23,-0.15,8.77,0.03,0.13,-0.14
151,0.23,-0.15,8.77,0.01,0.12,-0.14
156,0.23,-0.15,8.77,-0.01,0.08,-0.15
162,0.23,-0.15,8.77,-0.02,0.04,-0.15
166,0.23,-0.15,8.77,-0.04,0.00,-0.16
171,0.23,-0.15,8.77,-0.06,0.01,-0.17
176,0.23,-0.15,8.77,-0.07,0.04,-0.20
182,-1.99,0.11,10.50,-0.07,0.04,-0.20
186,-1.99,0.11,10.50,-0.07,0.04,-0.20
191,-1.99,0.11,10.50,-0.07,-0.02,-0.21
196,-1.99,0.11,10.50,-0.07,-0.10,-0.21
201,-1.99,0.11,10.50,-0.05,-0.16,-0.19
206,-1.99,0.11,10.50,-0.02,-0.20,-0.15
211,-1.99,0.11,10.50,-0.02,-0.18,-0.14
217,1.27,-1.49,9.65,-0.02,-0.18,-0.14
221,1.27,-1.49,9.65,0.03,-0.08,-0.13
226,1.27,-1.49,9.65,0.05,0.01,-0.13
232,1.27,-1.49,9.65,0.06,0.08,-0.11
236,1.27,-1.49,9.65,0.07,0.14,-0.11
241,1.27,-1.49,9.65,0.07,0.15,-0.12
246,1.27,-1.49,9.65,0.07,0.13,-0.13
251,1.27,-1.49,9.65,0.07,0.09,-0.14
256,1.27,-1.49,9.65,0.07,0.05,-0.13
261,1.27,-1.49,9.65,0.07,0.01,-0.09
267,1.27,-1.49,9.65,0.08,-0.02,-0.07
271,1.27,-1.49,9.65,0.07,-0.03,-0.08
276,1.27,-1.49,9.65,0.09,-0.03,-0.08
282,1.27,-1.49,9.65,0.09,-0.01,-0.07
286,1.27,-1.49,9.65,0.08,0.01,-0.05
291,1.27,-1.49,9.65,0.09,0.00,-0.04
296,1.27,-1.49,9.65,0.08,-0.01,-0.05
302,1.84,-0.92,11.53,0.08,-0.01,-0.05
306,1.84,-0.92,11.53,0.10,-0.11,0.01
311,1.84,-0.92,11.53,0.10,-0.14,0.02
316,1.84,-0.92,11.53,0.13,-0.11,0.02
321,1.84,-0.92,11.53,0.16,-0.02,-0.01
326,1.84,-0.92,11.53,0.18,0.09,0.00
331,1.84,-0.92,11.53,0.19,0.19,0.05
337,-2.76,-1.15,8.42,0.19,0.19,0.05
341,-2.76,-1.15,8.42,0.16,0.20,0.13
346,-2.76,-1.15,8.42,0.12,0.14,0.12
352,-2.76,-1.15,8.42,0.10,0.04,0.06
356,-2.76,-1.15,8.42,0.09,-0.05,0.03
361,-2.76,-1.15,8.42,0.09,-0.11,0.05
366,-2.76,-1.15,8.42,0.09,-0.12,0.10
372,-1.15,-0.46,9.96,0.09,-0.12,0.10
376,-1.15,-0.46,9.96,0.15,-0.05,0.15
381,-1.15,-0.46,9.96,0.16,-0.02,0.18
387,-1.15,-0.46,9.96,0.16,-0.00,0.20
391,-1.15,-0.46,9.96,0.16,-0.00,0.21
396,-1.15,-0.46,9.96,0.16,-0.02,0.21
401,-1.15,-0.46,9.96,0.14,0.00,0.20
407,-1.15,-0.46,9.96,0.14,-0.01,0.24
411,-1.15,-0.46,9.96,0.12,-0.00,0.26
416,-1.15,-0.46,9.96,0.12,-0.01,0.22
421,-1.15,-0.46,9.96,0.10,-0.01,0.19
426,-1.15,-0.46,9.96,0.09,-0.01,0.17
431,-1.15,-0.46,9.96,0.09,-0.01,0.15
436,-1.15,-0.46,9.96,0.10,-0.02,0.16
442,-0.80,-1.84,11.00,0.10,-0.02,0.16
446,-0.80,-1.84,11.00,0.10,-0.02,0.17
451,-0.80,-1.84,11.00,0.08,-0.04,0.16
456,-0.80,-1.84,11.00,0.07,-0.01,0.14
461,-0.80,-1.84,11.00,0.08,0.03,0.14
466,-0.80,-1.84,11.00,0.08,0.08,0.17
471,-0.80,-1.84,11.00,0.08,0.12,0.20
476,-0.80,-1.84,11.00,0.06,0.12,0.25
481,-0.80,-1.84,11.00,0.04,0.07,0.28
486,-0.80,-1.84,11.00,0.02,-0.01,0.29
491,-0.80,-1.84,11.00,0.02,-0.11,0.27
496,-0.80,-1.84,11.00,0.01,-0.20,0.26
501,-0.80,-1.84,11.00,0.04,-0.24,0.29
506,-0.80,-1.84,11.00,0.04,-0.23,0.34
511,-0.80,-1.84,11.00,0.05,-0.18,0.38
516,-0.80,-1.84,11.00,0.07,-0.10,0.38
521,-0.80,-1.84,11.00,0.07,-0.04,0.35
527,-0.80,-1.84,11.00,0.08,0.01,0.30
531,-0.80,-1.84,11.00,0.06,0.04,0.26
536,-0.80,-1.84,11.00,0.04,0.04,0.23
541,-0.80,-1.84,11.00,0.01,0.04,0.21
547,1.07,-0.84,8.58,0.01,0.04,0.21
551,1.07,-0.84,8.58,-0.03,-0.03,0.13
556,1.07,-0.84,8.58,-0.03,-0.06,0.12
561,1.04,-0.46,9.00,-0.03,-0.06,0.12
566,1.04,-0.46,9.00,-0.04,-0.07,0.11
571,1.04,-0.46,9.00,-0.05,-0.06,0.11
576,1.04,-0.46,9.00,-0.06,-0.02,0.08
581,1.04,-0.46,9.00,-0.06,0.04,0.05
586,1.04,-0.46,9.00,-0.06,0.08,0.03
591,1.04,-0.46,9.00,-0.06,0.09,0.02
597,0.46,-0.84,9.58,-0.06,0.09,0.02
601,0.46,-0.84,9.58,-0.05,0.02,0.04
606,0.46,-0.84,9.58,-0.05,-0.02,0.05
611,0.46,-0.84,9.58,-0.05,-0.04,0.04
616,0.46,-0.84,9.58,-0.06,-0.05,0.04
621,0.46,-0.84,9.58,-0.07,-0.03,0.03
626,0.46,-0.84,9.58,-0.08,-0.00,0.00
632,0.15,0.34,9.30,-0.08,-0.00,0.00
636,0.15,0.34,9.30,-0.09,0.03,-0.02
641,0.15,0.34,9.30,-0.10,0.02,-0.03
646,0.15,0.34,9.30,-0.13,0.01,-0.05
651,0.15,0.34,9.30,-0.13,0.01,-0.08
656,0.15,0.34,9.30,-0.14,0.00,-0.09
661,0.15,0.34,9.30,-0.14,0.01,-0.08
667,0.00,-0.54,9.50,-0.14,0.01,-0.08
671,0.00,-0.54,9.50,-0.12,0.03,-0.05
676,0.00,-0.54,9.50,-0.11,0.03,-0.07
681,0.00,-0.54,9.50,-0.10,0.02,-0.07
686,0.00,-0.54,9.50,-0.09,0.00,-0.07
691,0.00,-0.54,9.50,-0.10,-0.04,-0.06
696,0.00,-0.54,9.50,-0.11,-0.09,-0.07
702,2.41,0.00,10.46,-0.11,-0.09,-0.07
706,2.41,0.00,10.46,-0.16,-0.15,-0.08
711,2.41,0.00,10.46,-0.18,-0.16,-0.07
717,2.41,0.00,10.46,-0.17,-0.13,-0.06
721,2.41,0.00,10.46,-0.15,-0.06,-0.04
726,2.41,0.00,10.46,-0.11,0.04,-0.03
731,2.41,0.00,10.46,-0.08,0.13,-0.03
737,0.15,-1.65,9.08,-0.08,0.13,-0.03
741,0.15,-1.65,9.08,-0.01,0.21,-0.06
746,0.15,-1.65,9.08,-0.02,0.20,-0.06
752,0.15,-1.65,9.08,-0.05,0.15,-0.07
756,0.15,-1.65,9.08,-0.08,0.11,-0.09
761,0.15,-1.65,9.08,-0.12,0.08,-0.12
766,0.15,-1.65,9.08,-0.13,0.07,-0.16
772,-1.19,0.34,7.89,-0.13,0.07,-0.16
776,-1.19,0.34,7.89,-0.16,-0.00,-0.19
781,-1.19,0.34,7.89,-0.16,-0.04,-0.18
787,-1.19,0.34,7.89,-0.17,-0.06,-0.19
791,-1.19,0.34,7.89,-0.17,-0.08,-0.19
796,-1.19,0.34,7.89,-0.17,-0.10,-0.19
801,-1.19,0.34,7.89,-0.16,-0.11,-0.19
807,2.07,-1.27,9.16,-0.16,-0.11,-0.19
811,2.07,-1.27,9.16,-0.10,-0.06,-0.11
816,2.07,-1.27,9.16,-0.09,-0.02,-0.08
822,0.92,-0.57,11.04,-0.09,-0.02,-0.08
826,0.92,-0.57,11.04,-0.09,0.05,-0.12
831,0.92,-0.57,11.04,-0.11,0.07,-0.18
836,0.92,-0.57,11.04,-0.12,0.10,-0.21
842,0.04,-0.65,9.73,-0.12,0.10,-0.21
846,0.04,-0.65,9.73,-0.13,0.10,-0.21
851,0.04,-0.65,9.73,-0.14,0.06,-0.22
857,1.49,-0.34,10.84,-0.14,0.06,-0.22
861,1.49,-0.34,10.84,-0.14,-0.00,-0.21
866,1.49,-0.34,10.84,-0.14,-0.02,-0.20
871,1.49,-0.34,10.84,-0.13,0.01,-0.21
877,0.15,-1.00,9.12,-0.13,0.01,-0.21
881,0.15,-1.00,9.12,-0.08,0.09,-0.23
886,0.15,-1.00,9.12,-0.05,0.11,-0.21
892,0.42,0.54,9.50,-0.05,0.11,-0.21
896,0.42,0.54,9.50,-0.05,0.08,-0.16
901,0.42,0.54,9.50,-0.09,0.05,-0.17
906,0.42,0.54,9.50,-0.12,0.03,-0.23
912,-1.04,-0.11,7.51,-0.12,0.03,-0.23
916,-1.04,-0.11,7.51,-0.13,0.02,-0.31
921,-1.04,-0.11,7.51,-0.13,0.00,-0.30
927,-0.65,-0.50,9.92,-0.13,0.00,-0.30
931,-0.65,-0.50,9.92,-0.14,-0.05,-0.28
936,-0.65,-0.50,9.92,-0.14,-0.09,-0.28
941,-0.65,-0.50,9.92,-0.14,-0.10,-0.29
947,2.30,-0.65,11.64,-0.14,-0.10,-0.29
951,2.30,-0.65,11.64,-0.10,-0.05,-0.27
956,2.30,-0.65,11.64,-0.06,0.03,-0.24
962,-0.08,-0.38,9.16,-0.06,0.03,-0.24
966,-0.08,-0.38,9.16,-0.00,0.12,-0.19
971,-0.08,-0.38,9.16,-0.01,0.09,-0.20
977,-0.08,-0.38,9.16,-0.01,0.05,-0.20
981,-0.08,-0.38,9.16,-0.03,0.02,-0.20
986,-0.08,-0.38,9.16,-0.04,0.00,-0.19
991,-0.08,-0.38,9.16,-0.04,0.00,-0.19
997,1.84,-0.34,9.39,-0.04,0.00,-0.19
1001,1.84,-0.34,9.39,-0.08,-0.00,-0.22
1006,1.84,-0.34,9.39,-0.08,-0.01,-0.25
1012,1.84,-0.34,9.39,-0.06,0.03,-0.26
1016,1.84,-0.34,9.39,-0.05,0.06,-0.26
1021,1.84,-0.34,9.39,-0.03,0.06,-0.23
1026,1.84,-0.34,9.39,-0.01,0.03,-0.21
1032,2.49,-1.49,9.50,-0.01,0.03,-0.21
1036,2.49,-1.49,9.50,-0.02,-0.08,-0.17
1041,2.49,-1.49,9.50,-0.02,-0.09,-0.16
1047,2.49,-1.49,9.50,-0.02,-0.07,-0.15
1051,2.49,-1.49,9.50,0.00,-0.04,-0.15
1056,2.49,-1.49,9.50,0.02,-0.00,-0.14
1061,2.49,-1.49,9.50,0.05,0.04,-0.13
1067,1.72,-1.49,11.42,0.05,0.04,-0.13
1071,1.72,-1.49,11.42,0.06,0.07,-0.10
1076,1.72,-1.49,11.42,0.05,0.07,-0.09
1082,1.04,-0.61,9.35,0.05,0.07,-0.09
1086,1.04,-0.61,9.35,0.06,0.05,-0.10
1091,1.04,-0.61,9.35,0.04,0.03,-0.10
1096,1.04,-0.61,9.35,0.04,0.01,-0.09
1102,-0.15,-1.91,9.84,0.04,0.01,-0.09
1106,-0.15,-1.91,9.84,0.04,-0.00,-0.08
1111,-0.15,-1.91,9.84,0.05,0.00,-0.07
1117,-1.34,-1.46,7.23,0.05,0.00,-0.07
1121,-1.34,-1.46,7.23,0.08,0.01,-0.05
1126,-1.34,-1.46,7.23,0.07,-0.01,-0.04
1131,-1.34,-1.46,7.23,0.06,-0.08,-0.04
1137,2.41,-0.84,9.43,0.06,-0.08,-0.04
1141,2.41,-0.84,9.43,0.02,-0.18,-0.04
1146,2.41,-0.84,9.43,0.02,-0.17,-0.01
1152,2.22,-1.99,12.18,0.02,-0.17,-0.01
1156,2.22,-1.99,12.18,0.06,-0.06,0.01
1161,2.22,-1.99,12.18,0.09,0.03,0.01
1166,2.22,-1.99,12.18,0.12,0.09,0.00
1172,0.61,-1.49,9.50,0.12,0.09,0.00
1176,0.61,-1.49,9.50,0.14,0.10,0.04
1181,0.61,-1.49,9.50,0.14,0.06,0.04
1187,2.03,-0.92,8.88,0.14,0.06,0.04
1191,2.03,-0.92,8.88,0.08,-0.03,0.01
1196,2.03,-0.92,8.88,0.07,-0.02,-0.01
1201,2.03,-0.92,8.88,0.06,0.00,-0.01
1207,-0.11,-0.80,8.20,0.06,0.00,-0.01
1211,-0.11,-0.80,8.20,0.08,0.05,-0.01
1216,-0.11,-0.80,8.20,0.09,0.05,-0.01
1222,-0.46,0.38,10.00,0.09,0.05,-0.01
1226,-0.46,0.38,10.00,0.08,0.00,0.02
1231,-0.46,0.38,10.00,0.09,-0.03,0.02
1237,-0.46,0.38,10.00,0.08,-0.06,0.02
1241,-0.46,0.38,10.00,0.08,-0.08,0.03
1246,-0.46,0.38,10.00,0.08,-0.12,0.03
1251,-0.46,0.38,10.00,0.07,-0.17,0.04
1257,2.26,-0.61,8.74,0.07,-0.17,0.04
1261,2.26,-0.61,8.74,0.08,-0.16,0.06
1266,2.26,-0.61,8.74,0.08,-0.09,0.06
1272,2.26,-0.61,8.74,0.07,-0.03,0.05
1276,2.26,-0.61,8.74,0.07,0.05,0.02
1281,2.26,-0.61,8.74,0.08,0.11,-0.00
1286,2.26,-0.61,8.74,0.07,0.13,-0.02
1292,-0.11,-1.53,10.00,0.07,0.13,-0.02
1296,-0.11,-1.53,10.00,0.06,0.10,-0.01
1301,-0.11,-1.53,10.00,0.06,0.05,0.00
1307,-0.11,-1.53,10.00,0.06,-0.01,0.02
1311,-0.11,-1.53,10.00,0.07,-0.05,0.05
1316,-0.11,-1.53,10.00,0.07,-0.08,0.07
1321,-0.11,-1.53,10.00,0.06,-0.10,0.09
1327,1.72,-1.23,9.54,0.06,-0.10,0.09
1331,1.72,-1.23,9.54,0.08,-0.06,0.06
1336,1.72,-1.23,9.54,0.10,-0.02,0.07
1341,-0.11,0.23,9.27,0.10,-0.02,0.07
1347,-0.23,-0.23,10.23,0.10,-0.02,0.07
1351,-0.23,-0.23,10.23,0.08,0.07,0.05
1356,-0.23,-0.23,10.23,0.07,0.06,0.04
1362,-0.08,-0.27,8.85,0.07,0.06,0.04
1366,-0.08,-0.27,8.85,0.03,-0.03,-0.01
1371,-0.08,-0.27,8.85,0.02,-0.08,-0.02
1377,0.30,-1.19,8.36,0.02,-0.08,-0.02
1381,0.30,-1.19,8.36,0.00,-0.12,-0.01
1386,0.30,-1.19,8.36,-0.01,-0.12,-0.01
1391,0.30,-1.19,8.36,-0.02,-0.12,-0.03
1396,1.65,-0.65,10.34,-0.02,-0.12,-0.03
1401,1.65,-0.65,10.34,0.01,-0.07,-0.00
1406,1.65,-0.65,10.34,0.02,-0.03,0.01
1412,0.57,-1.19,10.50,0.02,-0.03,0.01
1416,0.57,-1.19,10.50,0.07,0.09,0.03
1421,0.57,-1.19,10.50,0.09,0.13,0.04
1426,0.57,-1.19,10.50,0.10,0.14,0.04
1432,0.46,-0.65,10.45,0.10,0.14,0.04
1436,0.46,-0.65,10.45,0.07,0.05,0.05
1441,0.46,-0.65,10.45,0.04,-0.03,0.05
1447,0.46,-0.65,10.45,0.03,-0.08,0.05
1451,0.46,-0.65,10.45,0.01,-0.12,0.05
1456,0.46,-0.65,10.45,-0.00,-0.13,0.05
1461,0.46,-0.65,10.45,-0.01,-0.11,0.04
1467,0.88,-0.15,10.19,-0.01,-0.11,0.04
1471,0.88,-0.15,10.19,-0.02,-0.01,-0.01
1476,0.88,-0.15,10.19,-0.01,0.05,-0.03
1482,0.00,-0.92,10.65,-0.01,0.05,-0.03
1486,0.00,-0.92,10.65,0.01,0.11,-0.04
1491,0.00,-0.92,10.65,0.01,0.11,-0.03
1497,0.00,-0.92,10.65,0.01,0.05,-0.01
1501,0.00,-0.92,10.65,0.01,-0.03,0.00
1506,0.00,-0.92,10.65,-0.01,-0.09,0.01
1511,0.00,-0.92,10.65,-0.01,-0.12,0.03
1516,1.88,-0.88,9.89,-0.01,-0.12,0.03
1521,1.88,-0.88,9.89,0.01,-0.00,0.02
1526,1.88,-0.88,9.89,0.02,0.08,0.00
1532,-0.38,-0.23,10.15,0.02,0.08,0.00
1536,-0.38,-0.23,10.15,0.05,0.15,0.02
1541,-0.38,-0.23,10.15,0.04,0.12,0.03
1546,-0.38,-0.23,10.15,0.02,0.06,0.03
1552,2.07,-0.46,9.73,0.02,0.06,0.03
1556,2.07,-0.46,9.73,-0.01,-0.03,-0.02
1561,2.07,-0.46,9.73,-0.02,-0.03,-0.03
1567,2.07,-0.46,9.73,-0.01,-0.02,-0.01
1571,2.07,-0.46,9.73,0.00,0.01,0.02
1576,2.07,-0.46,9.73,0.01,0.04,0.03
1581,2.07,-0.46,9.73,0.01,0.07,0.01
1587,0.08,-0.96,10.30,0.01,0.07,0.01
1591,0.08,-0.96,10.30,0.03,0.09,-0.00
1596,0.08,-0.96,10.30,0.03,0.08,0.01
1602,-0.54,-0.30,7.43,0.03,0.08,0.01
1606,-0.54,-0.30,7.43,0.02,0.04,0.03
1611,-0.54,-0.30,7.43,-0.00,-0.02,0.01
1616,-0.54,-0.30,7.43,-0.03,-0.08,-0.02
1622,1.84,-0.04,9.89,-0.03,-0.08,-0.02
1626,1.84,-0.04,9.89,-0.06,-0.12,-0.01
1631,1.84,-0.04,9.89,-0.05,-0.11,0.01
1637,2.80,-1.04,11.07,-0.05,-0.11,0.01
1641,2.80,-1.04,11.07,-0.01,-0.01,0.05
1646,2.80,-1.04,11.07,0.02,0.07,0.04
1651,2.80,-1.04,11.07,0.03,0.14,0.02
1656,-0.27,-0.96,9.96,0.03,0.14,0.02
1661,-0.27,-0.96,9.96,0.05,0.20,0.01
1666,-0.27,-0.96,9.96,0.04,0.18,0.03
1672,1.07,-0.50,8.23,0.04,0.18,0.03
1676,1.07,-0.50,8.23,0.00,0.08,0.04
1681,1.07,-0.50,8.23,-0.00,0.03,0.03
1686,1.07,-0.50,8.23,-0.03,-0.02,0.01
1692,1.49,-0.42,8.50,-0.03,-0.02,0.01
1696,1.49,-0.42,8.50,-0.04,-0.07,0.01
1701,1.49,-0.42,8.50,-0.03,-0.04,0.01
1707,1.49,-0.42,8.50,-0.02,-0.01,0.01
1711,1.49,-0.42,8.50,-0.01,0.02,0.02
1716,1.49,-0.42,8.50,-0.01,0.03,0.02
1721,0.88,-0.73,9.85,-0.01,0.03,0.02
1727,1.42,-0.92,9.58,-0.01,0.03,0.02
1731,1.42,-0.92,9.58,-0.01,-0.06,0.04
1736,1.42,-0.92,9.58,-0.01,-0.07,0.03
1742,0.88,-0.61,9.27,-0.01,-0.07,0.03
1746,0.88,-0.61,9.27,-0.03,-0.03,0.00
1751,0.88,-0.61,9.27,-0.02,0.00,-0.00
1757,1.30,-0.80,10.88,-0.02,0.00,-0.00
1761,1.30,-0.80,10.88,-0.03,0.06,-0.02
1766,1.30,-0.80,10.88,-0.03,0.04,-0.02
1771,1.30,-0.80,10.88,-0.02,0.05,-0.03
1776,1.30,-0.80,10.88,-0.03,0.04,-0.04
1781,1.30,-0.80,10.88,-0.03,0.04,-0.06
1786,1.30,-0.80,10.88,-0.04,0.03,-0.08
1792,1.30,-0.54,10.27,-0.04,0.03,-0.08
1796,1.30,-0.54,10.27,-0.08,-0.04,-0.09
1801,1.30,-0.54,10.27,-0.09,-0.06,-0.09
1806,1.30,-0.54,10.27,-0.08,-0.07,-0.09
1811,1.30,-0.54,10.27,-0.06,-0.06,-0.10
1816,1.30,-0.54,10.27,-0.05,-0.04,-0.08
1821,1.30,-0.54,10.27,-0.04,-0.01,-0.07
1826,1.30,-0.54,10.27,-0.04,0.02,-0.07
1831,1.30,-0.54,10.27,-0.02,0.07,-0.09
1836,1.30,-0.54,10.27,-0.04,0.11,-0.13
1841,1.30,-0.54,10.27,-0.02,0.13,-0.16
1846,0.11,-0.15,9.35,-0.02,0.13,-0.16
1851,0.11,-0.15,9.35,-0.01,0.12,-0.15
1856,0.11,-0.15,9.35,-0.02,0.09,-0.14
1861,0.65,0.80,7.81,-0.02,0.09,-0.14
1866,0.65,0.80,7.81,-0.08,-0.01,-0.18
1871,0.65,0.80,7.81,-0.10,-0.07,-0.21
1876,0.65,0.80,7.81,-0.11,-0.11,-0.23
1881,0.65,0.80,7.81,-0.11,-0.11,-0.22
1886,0.65,0.80,7.81,-0.10,-0.09,-0.21
1891,0.65,0.80,7.81,-0.10,-0.07,-0.20
1896,0.77,-0.50,9.50,-0.10,-0.07,-0.20
1901,0.77,-0.50,9.50,-0.09,-0.03,-0.22
1906,0.77,-0.50,9.50,-0.08,-0.02,-0.24
1911,0.77,-0.50,9.50,-0.07,-0.01,-0.23
1916,0.77,-0.50,9.50,-0.05,0.01,-0.21
1921,0.77,-0.50,9.50,-0.06,0.03,-0.19
1926,0.77,-0.50,9.50,-0.06,0.03,-0.21
1931,2.22,-1.07,10.42,-0.06,0.03,-0.21
1936,2.22,-1.07,10.42,-0.05,0.02,-0.22
1941,2.22,-1.07,10.42,-0.04,0.04,-0.22
1946,2.22,-1.07,10.42,-0.02,0.05,-0.20
1951,2.22,-1.07,10.42,-0.01,0.06,-0.19
1956,2.22,-1.07,10.42,-0.02,0.04,-0.19
1961,2.22,-1.07,10.42,-0.03,0.00,-0.19
1966,2.22,-1.07,10.42,-0.04,-0.04,-0.19
1971,2.22,-1.07,10.42,-0.03,-0.06,-0.19
1976,2.22,-1.07,10.42,-0.04,-0.04,-0.20
1981,1.00,-0.42,9.43,-0.04,-0.04,-0.20
1986,1.00,-0.42,9.43,-0.04,-0.02,-0.18
1991,1.00,-0.42,9.43,-0.05,-0.01,-0.17
1996,1.00,-0.42,9.43,-0.03,-0.03,-0.15
2001,1.00,-0.42,9.43,-0.03,-0.03,-0.15
2006,1.00,-0.42,9.43,-0.03,-0.03,-0.15
2011,1.00,-0.42,9.43,-0.03,-0.03,-0.13
2016,1.46,-1.23,9.04,-0.03,-0.03,-0.13
2021,1.46,-1.23,9.04,-0.00,0.00,-0.10
2026,1.46,-1.23,9.04,0.00,0.03,-0.09
2031,1.46,-1.23,9.04,0.01,0.04,-0.09
2036,1.46,-1.23,9.04,0.02,0.07,-0.09
2040,-0.92,-0.80,9.08,0.02,0.07,-0.09
2046,-0.92,-0.80,9.08,0.02,0.09,-0.07
2051,1.04,-1.07,9.50,0.02,0.09,-0.07
2056,1.04,-1.07,9.50,0.01,-0.04,-0.04
2061,1.04,-1.07,9.50,0.01,-0.12,-0.02
2066,1.04,-1.07,9.50,-0.00,-0.16,0.01
2071,1.04,-1.07,9.50,-0.01,-0.18,0.02
2076,1.04,-1.07,9.50,0.02,-0.16,0.03
2081,1.04,-1.07,9.50,0.04,-0.10,0.04
2086,1.04,-1.07,9.50,0.07,-0.03,0.07
2091,1.04,-1.07,9.50,0.08,0.04,0.09
2096,1.04,-1.07,9.50,0.08,0.07,0.10
2101,1.04,-1.07,9.50,0.09,0.08,0.09
2106,0.65,-1.19,10.27,0.09,0.08,0.09
2111,0.65,-1.19,10.27,0.05,0.03,0.05
2116,0.65,-1.19,10.27,0.06,0.01,0.05
2121,1.04,-1.68,9.73,0.06,0.01,0.05
2126,1.04,-1.68,9.73,0.05,-0.03,0.08
2131,1.04,-1.68,9.73,0.04,-0.04,0.09
2136,1.04,-1.68,9.73,0.05,-0.05,0.09
2141,1.04,-1.68,9.73,0.05,-0.04,0.08
2146,1.04,-1.68,9.73,0.05,-0.01,0.09
2151,1.04,-1.68,9.73,0.05,-0.02,0.12
2156,0.80,-0.88,8.50,0.05,-0.02,0.12
2161,0.80,-0.88,8.50,0.05,-0.01,0.12
2166,0.80,-0.88,8.50,0.05,-0.00,0.12
2171,0.80,-0.88,8.50,0.05,-0.00,0.11
2176,0.80,-0.88,8.50,0.04,-0.02,0.12
2181,0.80,-0.88,8.50,0.04,-0.03,0.11
2186,0.80,-0.88,8.50,0.04,-0.04,0.12
2191,0.15,-0.27,9.61,0.04,-0.04,0.12
2196,0.15,-0.27,9.61,0.02,-0.06,0.13
2201,0.15,-0.27,9.61,0.02,-0.07,0.13
2206,0.15,-0.27,9.61,0.02,-0.09,0.12
2211,0.15,-0.27,9.61,0.01,-0.10,0.12
2216,0.15,-0.27,9.61,0.03,-0.07,0.13
2221,0.15,-0.27,9.61,0.05,-0.02,0.14
2226,0.15,-0.27,9.61,0.05,0.05,0.15
2231,0.15,-0.27,9.61,0.07,0.12,0.15
2236,0.15,-0.27,9.61,0.08,0.15,0.14
2241,0.15,-0.27,9.61,0.07,0.14,0.13
2246,0.15,-0.27,9.61,0.06,0.11,0.13
2251,0.15,-0.27,9.61,0.04,0.05,0.13
2256,0.15,-0.27,9.61,0.02,-0.01,0.12
2261,0.15,-0.27,9.61,0.02,-0.07,0.12
2266,0.15,-0.27,9.61,-0.01,-0.08,0.11
2271,0.15,-0.27,9.61,-0.03,-0.09,0.09
2276,0.15,-0.27,9.61,-0.02,-0.06,0.06
2280,-0.38,-0.57,9.69,-0.02,-0.06,0.06
2286,-0.38,-0.57,9.69,-0.03,0.01,0.05
2291,-0.38,-0.57,9.69,-0.03,0.04,0.03
2296,-0.38,-0.57,9.69,-0.03,0.04,-0.01
2300,0.88,0.04,9.46,-0.03,0.04,-0.01
2306,0.88,0.04,9.46,-0.04,-0.00,-0.05
2311,0.88,0.00,8.74,-0.04,-0.00,-0.05
2316,0.61,0.04,9.08,-0.04,-0.00,-0.05
2320,1.11,-0.34,9.69,-0.04,-0.00,-0.05
2326,1.11,-0.34,9.69,-0.06,0.02,-0.11
2332,1.11,-0.34,9.69,-0.05,0.04,-0.12
2336,0.23,0.34,9.23,-0.05,0.04,-0.12
2340,0.19,0.11,9.12,-0.05,0.04,-0.12
2346,0.19,0.11,9.12,-0.08,0.05,-0.18
2351,0.19,0.11,9.12,-0.09,0.04,-0.21
2356,0.19,0.11,9.12,-0.08,0.02,-0.22
2361,0.19,0.11,9.12,-0.07,0.02,-0.22
2367,1.00,-0.19,10.34,-0.07,0.02,-0.22
2371,1.00,-0.19,10.34,-0.09,0.01,-0.22
2376,1.04,0.00,10.23,-0.09,0.01,-0.22
2381,1.04,0.00,10.23,-0.09,0.01,-0.24
2386,1.04,0.00,10.23,-0.09,0.00,-0.26
2391,1.04,0.00,10.23,-0.09,0.01,-0.26
2396,1.04,0.00,10.23,-0.09,0.04,-0.27
2402,1.04,0.00,10.23,-0.09,0.05,-0.28
2406,1.27,-0.15,10.00,-0.09,0.05,-0.28
2411,1.04,-0.11,9.65,-0.09,0.05,-0.28
2416,1.04,-0.11,9.65,-0.11,0.03,-0.31
2421,1.04,-0.11,9.65,-0.11,0.02,-0.30
2426,1.04,-0.11,9.65,-0.11,0.03,-0.30
2431,1.04,-0.11,9.65,-0.11,0.04,-0.30
2436,1.04,-0.11,9.65,-0.09,0.04,-0.30
2441,1.42,-0.42,10.46,-0.09,0.04,-0.30
2446,2.03,-0.30,10.41,-0.09,0.04,-0.30
2451,2.03,-0.30,10.41,-0.10,0.00,-0.30
2456,2.03,-0.30,10.41,-0.10,0.00,-0.30
2461,2.03,-0.30,10.41,-0.09,0.00,-0.31
2467,2.03,-0.30,10.41,-0.08,0.01,-0.31
2471,2.03,-0.30,10.41,-0.07,0.02,-0.31
2476,1.46,-0.23,9.88,-0.07,0.02,-0.31
2480,1.11,-0.08,10.00,-0.07,0.02,-0.31
2487,1.11,-0.08,10.00,-0.05,0.03,-0.31
2492,1.11,-0.08,10.00,-0.06,0.04,-0.31
2496,1.30,-0.84,9.27,-0.06,0.04,-0.31
2500,1.53,-0.96,9.08,-0.06,0.04,-0.31
2506,1.53,-0.96,9.08,-0.06,0.01,-0.35
2511,1.53,-0.96,9.08,-0.06,0.00,-0.34
2516,1.53,-0.96,9.08,-0.06,-0.00,-0.32
2521,1.53,-0.96,9.08,-0.06,-0.01,-0.32
2526,1.53,-0.96,9.08,-0.06,-0.00,-0.32
2530,1.53,-0.96,9.08,-0.05,0.01,-0.33
2536,1.53,-0.96,9.08,-0.05,0.02,-0.33
2542,1.53,-0.96,9.08,-0.03,0.03,-0.32
2546,0.84,-1.15,8.88,-0.03,0.03,-0.32
2551,0.77,-1.11,9.42,-0.03,0.03,-0.32
2556,0.77,-1.11,9.42,-0.02,-0.00,-0.25
2561,0.77,-1.11,9.42,-0.01,-0.02,-0.24
2567,0.77,-1.11,9.42,-0.01,-0.05,-0.22
2571,0.77,-1.11,9.42,-0.00,-0.06,-0.21
2576,2.91,-1.57,11.38,-0.00,-0.06,-0.21
2581,3.18,-1.42,10.88,-0.00,-0.06,-0.21
2586,1.88,-1.34,10.73,-0.00,-0.06,-0.21
2591,1.88,-1.34,10.73,0.05,0.01,-0.11
2596,1.88,-1.34,10.73,0.07,0.07,-0.10
2601,1.88,-1.34,10.73,0.08,0.12,-0.10
2607,1.88,-1.34,10.73,0.08,0.14,-0.09
2611,0.84,-1.04,10.11,0.08,0.14,-0.09
2615,1.61,-0.50,9.73,0.08,0.14,-0.09
2621,1.61,-0.50,9.73,0.04,0.01,-0.04
2626,1.61,-0.50,9.73,0.03,-0.03,-0.04
2631,1.61,-0.50,9.73,0.03,-0.05,-0.02
2636,0.65,-1.00,8.39,0.03,-0.05,-0.02
2641,0.84,-1.38,9.04,0.03,-0.05,-0.02
2646,1.00,-1.34,8.85,0.03,-0.05,-0.02
2651,1.00,-1.34,8.85,0.06,-0.08,0.06
2656,1.00,-1.34,8.85,0.05,-0.11,0.06
2661,1.00,-1.34,8.85,0.05,-0.13,0.06
2666,1.95,-1.95,10.19,0.05,-0.13,0.06
2671,2.11,-1.76,9.77,0.05,-0.13,0.06
2676,2.11,-1.76,9.77,0.07,-0.06,0.06
2681,1.19,-2.38,9.61,0.07,-0.06,0.06
2685,1.07,-2.22,10.04,0.07,-0.06,0.06
2691,1.07,-2.22,10.04,0.10,0.06,0.04
2696,1.07,-2.22,10.04,0.10,0.09,0.03
2701,0.65,-2.64,9.27,0.10,0.09,0.03
2706,1.23,-1.72,9.20,0.10,0.09,0.03
2711,1.23,-1.72,9.20,0.09,0.03,0.01
2716,1.23,-1.72,9.20,0.09,-0.02,0.01
2721,1.23,-1.72,9.20,0.10,-0.04,0.02
2727,1.23,-1.72,9.20,0.08,-0.04,0.02
2731,0.00,-0.42,9.77,0.08,-0.04,0.02
2735,-0.19,-0.77,10.35,0.08,-0.04,0.02
2741,-0.19,-0.77,10.35,0.09,0.05,-0.04
2746,-0.19,-0.77,10.35,0.08,0.05,-0.05
2751,1.23,-0.65,8.89,0.08,0.05,-0.05
2755,1.46,-0.38,9.08,0.08,0.05,-0.05
2761,1.46,-0.38,9.08,0.05,-0.09,-0.08
2766,1.46,-0.38,9.08,0.05,-0.12,-0.10
2771,1.91,0.00,9.77,0.05,-0.12,-0.10
2776,1.23,0.77,9.50,0.05,-0.12,-0.10
2781,1.23,0.77,9.50,0.05,0.00,-0.16
2786,0.27,0.80,10.31,0.05,0.00,-0.16
2791,0.15,0.46,10.07,0.05,0.00,-0.16
2796,0.15,0.46,10.07,0.04,0.12,-0.21
2801,0.73,0.38,9.42,0.04,0.12,-0.21
2805,0.96,0.08,9.12,0.04,0.12,-0.21
2811,0.96,0.08,9.12,0.01,-0.01,-0.25
2816,0.96,0.08,9.12,0.01,-0.04,-0.23
2821,2.45,0.08,10.23,0.01,-0.04,-0.23
2826,2.38,-0.04,9.73,0.01,-0.04,-0.23
2831,2.38,-0.04,9.73,0.00,-0.06,-0.22
2836,0.50,0.04,10.53,0.00,-0.06,-0.22
2841,-0.34,0.15,10.15,0.00,-0.06,-0.22
2846,-0.42,0.27,10.00,0.00,-0.06,-0.22
2851,0.27,-0.19,10.00,0.00,-0.06,-0.22
2855,0.73,-0.30,9.73,0.00,-0.06,-0.22
2861,0.73,-0.30,9.73,0.03,0.08,-0.18
2867,0.73,-0.30,9.73,0.00,0.02,-0.18
2871,1.34,-0.65,8.50,0.00,0.02,-0.18
2875,1.34,-0.65,8.50,0.00,-0.09,-0.14
2881,0.73,-0.69,8.66,0.00,-0.09,-0.14
2886,0.34,-0.92,8.39,0.00,-0.09,-0.14
2891,0.34,-0.92,8.39,0.02,-0.07,-0.12
2896,0.34,-0.92,8.39,0.03,-0.04,-0.11
2901,0.34,-0.92,8.39,0.04,-0.02,-0.11
2906,0.73,-0.65,9.39,0.04,-0.02,-0.11
2910,0.96,-1.07,9.54,0.04,-0.02,-0.11
2916,0.96,-1.07,9.54,0.04,-0.03,-0.10
2921,0.96,-1.07,9.54,0.03,-0.04,-0.11
2926,1.42,-1.42,10.11,0.03,-0.04,-0.11
2931,1.65,-2.11,9.96,0.03,-0.04,-0.11
2936,1.65,-2.11,9.96,0.04,-0.05,-0.08
2941,2.41,-2.07,10.46,0.04,-0.05,-0.08
2946,2.26,-1.80,10.34,0.04,-0.05,-0.08
2951,2.14,-1.53,10.53,0.04,-0.05,-0.08
2956,1.65,-1.19,10.15,0.04,-0.05,-0.08
2961,0.77,-1.00,9.96,0.04,-0.05,-0.08
2966,0.57,-1.19,9.73,0.04,-0.05,-0.08
2971,0.57,-1.19,9.73,0.07,0.11,-0.05
2976,0.04,-1.11,9.20,0.07,0.11,-0.05
2980,0.27,-1.11,9.34,0.07,0.11,-0.05
2986,0.27,-1.11,9.34,0.08,0.07,0.00
2991,0.80,-0.65,9.73,0.08,0.07,0.00
2996,0.80,-0.65,9.73,0.06,-0.08,0.02
3000,0.80,-0.65,9.73,0.06,-0.09,0.04
3006,0.69,-0.80,9.42,0.06,-0.09,0.04
3011,0.69,-0.80,9.42,0.06,-0.08,0.04
3016,0.69,-0.80,9.42,0.08,-0.07,0.05
3021,1.65,-1.00,9.34,0.08,-0.07,0.05
3026,1.34,-0.92,9.92,0.08,-0.07,0.05
3031,1.30,-1.11,9.46,0.08,-0.07,0.05
3036,1.15,-1.11,9.50,0.08,-0.07,0.05
3041,1.15,-1.11,9.50,0.09,-0.02,0.12
3046,1.30,-0.77,9.16,0.09,-0.02,0.12
3051,0.92,-0.69,9.20,0.09,-0.02,0.12
3056,1.30,-1.46,9.43,0.09,-0.02,0.12
3061,0.88,-1.11,9.84,0.09,-0.02,0.12
3066,0.34,-1.30,9.38,0.09,-0.02,0.12
3071,0.73,-1.34,9.20,0.09,-0.02,0.12
3076,1.07,-1.19,9.27,0.09,-0.02,0.12
3080,1.19,-1.07,9.38,0.09,-0.02,0.12
3087,1.19,-1.07,9.38,0.10,-0.04,0.21
3091,1.19,-1.07,9.38,0.11,-0.06,0.22
3096,1.53,-1.07,9.23,0.11,-0.06,0.22
3101,1.53,-1.07,9.23,0.11,-0.08,0.21
3106,1.65,-1.38,10.04,0.11,-0.08,0.21
3111,1.88,-1.68,10.00,0.11,-0.08,0.21
3116,1.42,-1.11,9.96,0.11,-0.08,0.21
3121,1.11,-1.30,9.69,0.11,-0.08,0.21
3126,1.07,-1.19,8.77,0.11,-0.08,0.21
3131,0.88,-1.38,9.39,0.11,-0.08,0.21
3136,0.88,-1.38,9.39,0.10,-0.00,0.14
3141,0.88,-1.38,9.39,0.10,-0.01,0.13
3146,0.42,-1.53,9.50,0.10,-0.01,0.13
3151,0.54,-1.23,9.65,0.10,-0.01,0.13
3156,0.46,-0.96,9.92,0.10,-0.01,0.13
3161,0.46,-0.96,9.92,0.09,-0.03,0.09
3166,0.42,-0.77,9.30,0.09,-0.03,0.09
3171,0.42,-0.77,9.30,0.06,-0.04,0.04
3176,0.92,-0.46,9.69,0.06,-0.04,0.04
3181,0.96,-0.50,10.23,0.06,-0.04,0.04
3186,1.42,-0.92,10.57,0.06,-0.04,0.04
3191,1.34,-0.08,9.85,0.06,-0.04,0.04
3196,1.34,-0.08,9.85,0.05,-0.03,-0.01
3201,1.15,-0.23,9.77,0.05,-0.03,-0.01
3206,1.30,-0.19,9.73,0.05,-0.03,-0.01
3211,1.27,-0.38,9.20,0.05,-0.03,-0.01
3216,1.38,-0.19,9.77,0.05,-0.03,-0.01
3221,1.38,-0.19,9.77,0.03,0.00,-0.10
3226,1.27,0.00,9.77,0.03,0.00,-0.10
3231,1.23,-0.30,10.19,0.03,0.00,-0.10
3236,0.57,0.00,9.84,0.03,0.00,-0.10
3241,0.65,-0.11,10.41,0.03,0.00,-0.10
3246,0.19,-0.11,9.46,0.03,0.00,-0.10
3251,0.54,0.08,9.35,0.03,0.00,-0.10
3256,0.54,0.08,9.35,0.01,0.02,-0.12
3261,0.54,0.08,9.35,0.02,0.01,-0.12
3266,1.11,0.15,9.61,0.02,0.01,-0.12
3271,0.88,0.42,9.43,0.02,0.01,-0.12
3276,0.88,0.27,9.27,0.02,0.01,-0.12
3281,1.11,0.00,9.81,0.02,0.01,-0.12
3286,0.92,0.19,9.43,0.02,0.01,-0.12
3291,0.92,0.19,9.43,0.01,0.02,-0.09
3296,0.88,-0.04,9.50,0.01,0.02,-0.09
3301,0.73,-0.11,9.85,0.01,0.02,-0.09
3306,1.11,-0.27,9.34,0.01,0.02,-0.09
3312,1.30,-0.84,9.61,0.01,0.02,-0.09
3316,1.00,-0.80,8.88,0.01,0.02,-0.09
3321,0.15,-0.57,9.43,0.01,0.02,-0.09
3326,0.27,-0.54,9.30,0.01,0.02,-0.09
3331,0.69,-0.57,9.42,0.01,0.02,-0.09
3336,0.57,-0.65,9.38,0.01,0.02,-0.09
3341,0.57,-0.65,9.38,0.02,0.01,-0.07
3346,1.07,-0.54,9.20,0.02,0.01,-0.07
3351,0.77,-0.38,9.69,0.02,0.01,-0.07
3356,0.80,-0.88,9.20,0.02,0.01,-0.07
3362,0.88,-0.69,9.04,0.02,0.01,-0.07
3366,1.04,-1.27,9.27,0.02,0.01,-0.07
3371,1.61,-1.11,9.73,0.02,0.01,-0.07
3376,0.96,-1.23,9.77,0.02,0.01,-0.07
3381,1.15,-1.19,9.46,0.02,0.01,-0.07
3386,0.69,-0.96,9.50,0.02,0.01,-0.07
3392,0.96,-0.65,9.58,0.02,0.01,-0.07
3396,0.96,-0.65,9.58,0.03,0.04,0.07
3401,0.96,-0.65,9.58,0.03,0.03,0.09
3406,0.30,-1.00,9.65,0.03,0.03,0.09
3411,1.15,-1.23,9.61,0.03,0.03,0.09
3416,0.73,-1.11,9.84,0.03,0.03,0.09
3421,1.19,-1.38,9.50,0.03,0.03,0.09
3426,1.19,-1.38,9.50,0.06,-0.01,0.23
3430,1.19,-1.38,9.50,0.07,-0.01,0.25
3436,0.84,-1.42,8.92,0.07,-0.01,0.25
3442,0.38,-1.68,9.00,0.07,-0.01,0.25
3446,0.38,-1.68,9.00,0.09,-0.04,0.32
3451,1.07,-1.23,9.27,0.09,-0.04,0.32
3456,1.07,-0.96,9.54,0.09,-0.04,0.32
3461,0.42,-1.07,10.00,0.09,-0.04,0.32
3466,0.88,-1.30,9.34,0.09,-0.04,0.32
3471,0.42,-0.88,9.81,0.09,-0.04,0.32
3477,0.88,-1.15,9.38,0.09,-0.04,0.32
3481,0.88,-1.15,9.38,0.10,-0.04,0.38
3486,1.07,-1.15,9.61,0.10,-0.04,0.38
3491,0.80,-1.19,10.50,0.10,-0.04,0.38
3496,1.15,-1.34,9.81,0.10,-0.04,0.38
3501,1.34,-0.96,10.11,0.10,-0.04,0.38
3506,0.34,-1.11,10.31,0.10,-0.04,0.38
3511,1.04,-0.92,10.15,0.10,-0.04,0.38
3516,1.04,-0.92,10.15,0.11,-0.01,0.39
3521,1.04,-0.92,10.15,0.10,-0.02,0.39
3526,0.61,-1.07,9.50,0.10,-0.02,0.39
3531,1.00,-0.88,9.23,0.10,-0.02,0.39
3537,0.61,-0.61,9.16,0.10,-0.02,0.39
3541,0.04,-0.27,9.12,0.10,-0.02,0.39
3547,0.19,-0.30,9.04,0.10,-0.02,0.39
3551,0.19,-0.30,9.04,0.07,-0.00,0.39
3556,0.11,-0.15,9.58,0.07,-0.00,0.39
3561,0.30,-0.34,9.96,0.07,-0.00,0.39
3566,0.57,0.04,9.31,0.07,-0.00,0.39
3571,0.42,-0.27,9.93,0.07,-0.00,0.39
3576,0.96,-0.19,9.65,0.07,-0.00,0.39
3581,0.57,-0.54,9.69,0.07,-0.00,0.39
3587,1.00,-0.38,10.30,0.07,-0.00,0.39
3591,0.84,-0.42,9.73,0.07,-0.00,0.39
3596,1.34,-0.15,10.27,0.07,-0.00,0.39
3602,1.34,0.04,9.30,0.07,-0.00,0.39
3606,1.19,-0.46,10.23,0.07,-0.00,0.39
3611,1.30,0.23,9.50,0.07,-0.00,0.39
3616,1.07,-0.46,9.84,0.07,-0.00,0.39
3621,1.07,-0.46,9.84,0.05,0.04,0.73
3626,0.80,-0.27,9.20,0.05,0.04,0.73
3632,1.46,-0.73,10.00,0.05,0.04,0.73
3636,1.46,-0.73,10.00,0.05,0.01,0.84
3641,1.46,-0.73,10.00,0.04,-0.02,0.88
3646,1.15,-0.65,9.34,0.04,-0.02,0.88
3651,1.15,-0.65,9.34,0.05,-0.04,0.93
3656,1.15,-0.65,9.34,0.06,-0.05,0.95
3661,1.15,-0.65,9.34,0.06,-0.05,0.97
3667,1.57,-1.00,9.65,0.06,-0.05,0.97
3671,1.57,-1.00,9.65,0.06,-0.04,1.00
3676,1.38,-1.27,9.50,0.06,-0.04,1.00
3681,1.34,-1.23,9.42,0.06,-0.04,1.00
3687,0.77,-1.23,9.96,0.06,-0.04,1.00
3691,0.77,-1.23,9.96,0.07,-0.00,0.99
3696,0.08,-2.38,9.88,0.07,-0.00,0.99
3702,0.23,-1.99,9.89,0.07,-0.00,0.99
3706,0.23,-1.99,9.89,0.06,-0.02,0.92
3711,-0.23,-2.11,9.77,0.06,-0.02,0.92
3716,-0.23,-2.80,9.38,0.06,-0.02,0.92
3721,-0.23,-2.80,9.38,0.03,-0.04,0.79
3726,-0.23,-2.80,9.38,0.02,-0.04,0.75
3731,0.30,-2.18,9.35,0.02,-0.04,0.75
3737,0.30,-2.30,9.04,0.02,-0.04,0.75
3741,0.30,-2.30,9.04,-0.01,-0.04,0.60
3746,0.30,-2.38,9.54,-0.01,-0.04,0.60
3751,0.77,-2.03,9.89,-0.01,-0.04,0.60
3756,0.84,-2.26,10.27,-0.01,-0.04,0.60
3761,0.84,-2.26,10.27,-0.02,0.01,0.45
3766,0.65,-1.72,10.00,-0.02,0.01,0.45
3772,1.07,-1.00,9.84,-0.02,0.01,0.45
3776,1.07,-1.00,9.84,-0.04,0.04,0.37
3781,1.07,-1.00,9.84,-0.04,0.05,0.35
3785,1.04,-0.84,9.61,-0.04,0.05,0.35
3790,1.04,-0.84,9.61,-0.04,0.05,0.32
3797,1.04,-0.84,9.61,-0.04,0.06,0.31
3802,0.73,-0.23,9.73,-0.04,0.06,0.31
3806,0.73,-0.23,9.73,-0.04,0.07,0.28
3811,0.73,-0.23,9.73,-0.05,0.06,0.27
3816,0.57,0.42,9.73,-0.05,0.06,0.27
3822,0.84,0.42,9.58,-0.05,0.06,0.27
3826,0.84,0.42,9.58,-0.06,0.00,0.26
3831,1.30,0.65,9.58,-0.06,0.00,0.26
3837,1.38,0.96,9.69,-0.06,0.00,0.26
3841,1.38,0.96,9.69,-0.05,-0.00,0.29
3846,1.38,0.96,9.69,-0.04,0.01,0.29
3851,1.04,0.92,10.07,-0.04,0.01,0.29
3857,1.53,1.19,9.81,-0.04,0.01,0.29
3861,1.53,1.19,9.81,-0.05,0.05,0.27
3866,1.57,1.53,9.61,-0.05,0.05,0.27
3872,1.19,1.68,9.88,-0.05,0.05,0.27
3876,1.19,1.68,9.88,-0.11,0.04,0.20
3881,1.19,1.68,9.88,-0.13,0.03,0.16
3886,1.61,1.65,9.12,-0.13,0.03,0.16
3892,1.53,1.38,9.38,-0.13,0.03,0.16
3896,1.53,1.38,9.38,-0.18,0.06,0.08
3901,1.53,1.38,9.38,-0.19,0.07,0.06
3907,1.19,1.11,9.27,-0.19,0.07,0.06
3911,1.19,1.11,9.27,-0.21,0.07,0.01
3916,1.19,1.11,9.27,-0.22,0.05,-0.01
3921,1.19,1.11,9.27,-0.22,0.04,-0.01
3927,1.88,-0.04,9.54,-0.22,0.04,-0.01
3931,1.88,-0.04,9.54,-0.21,0.04,-0.02
3936,1.91,-0.38,9.73,-0.21,0.04,-0.02
3941,1.65,-0.38,9.73,-0.21,0.04,-0.02
3947,1.61,-0.30,10.03,-0.21,0.04,-0.02
3951,1.61,-0.30,10.03,-0.21,0.08,-0.07
3956,1.07,-0.27,9.73,-0.21,0.08,-0.07
3962,1.00,-0.23,10.00,-0.21,0.08,-0.07
3966,1.00,-0.23,10.00,-0.25,0.08,-0.14
3971,1.53,-0.19,9.00,-0.25,0.08,-0.14
3976,1.42,-0.34,9.30,-0.25,0.08,-0.14
3981,1.42,-0.34,9.30,-0.29,0.06,-0.21
3986,1.42,-0.34,9.30,-0.29,0.06,-0.24
3992,1.34,-0.30,9.31,-0.29,0.06,-0.24
3996,1.34,-0.30,9.31,-0.29,0.08,-0.27
4001,1.34,-0.30,9.31,-0.30,0.08,-0.28
4006,0.46,-0.08,9.73,-0.30,0.08,-0.28
4011,0.50,-0.30,9.58,-0.30,0.08,-0.28
4016,0.50,-0.30,9.58,-0.29,0.08,-0.28
4021,0.50,-0.30,9.58,-0.28,0.07,-0.28
4027,1.00,-0.27,9.61,-0.28,0.07,-0.28
4031,1.00,-0.27,9.61,-0.27,0.06,-0.25
4036,1.00,-0.27,9.61,-0.27,0.05,-0.25
4041,1.00,-0.27,9.61,-0.28,0.05,-0.25
4047,0.54,-0.34,9.50,-0.28,0.05,-0.25
4051,0.54,-0.34,9.50,-0.27,0.06,-0.25
4056,0.46,-0.92,9.61,-0.27,0.06,-0.25
4061,0.69,-0.50,9.31,-0.27,0.06,-0.25
4067,0.23,-1.19,9.31,-0.27,0.06,-0.25
4071,0.23,-1.19,9.31,-0.26,0.06,-0.21
4076,0.57,-0.54,9.27,-0.26,0.06,-0.21
4081,0.50,-0.61,9.30,-0.26,0.06,-0.21
4087,0.30,-0.77,9.58,-0.26,0.06,-0.21
4091,0.34,-0.80,9.16,-0.26,0.06,-0.21
4097,0.30,-0.15,9.43,-0.26,0.06,-0.21
4101,0.30,-0.15,9.43,-0.29,0.04,-0.19
4106,0.30,-0.15,9.43,-0.30,0.04,-0.19
4111,0.96,-1.49,9.61,-0.30,0.04,-0.19
4117,0.92,-0.77,9.81,-0.30,0.04,-0.19
4121,0.92,-0.77,9.81,-0.29,0.04,-0.17
4126,0.92,-0.77,9.81,-0.29,0.05,-0.16
4132,0.77,-1.11,9.89,-0.29,0.05,-0.16
4136,0.77,-1.11,9.89,-0.26,0.08,-0.12
4141,0.77,-1.11,9.89,-0.24,0.09,-0.11
4148,-0.30,-0.69,9.77,-0.24,0.09,-0.11
4151,-0.30,-0.69,9.77,-0.24,0.10,-0.09
4156,-0.30,-0.69,9.77,-0.25,0.08,-0.07
4161,-0.30,-0.69,9.77,-0.25,0.05,-0.05
4167,0.30,-0.80,8.96,-0.25,0.05,-0.05
4171,0.30,-0.80,8.96,-0.25,0.01,-0.02
4176,0.30,-0.80,8.96,-0.25,0.00,-0.01
4181,0.30,-0.80,8.96,-0.25,0.01,-0.01
4187,0.50,-0.15,9.80,-0.25,0.01,-0.01
4191,0.50,-0.15,9.80,-0.25,0.03,0.02
4196,0.50,-0.15,9.80,-0.26,0.05,0.03
4202,-0.46,-0.08,9.96,-0.26,0.05,0.03
4206,-0.46,-0.08,9.96,-0.27,0.08,0.05
4211,-0.46,-0.08,9.96,-0.27,0.08,0.06
4217,0.23,-0.42,9.85,-0.27,0.08,0.06
4221,0.23,-0.42,9.85,-0.28,0.07,0.09
4226,0.23,-0.42,9.85,-0.28,0.07,0.11
4231,0.15,-0.04,9.58,-0.28,0.07,0.11
4237,0.11,-0.42,9.88,-0.28,0.07,0.11
4241,0.11,-0.42,9.88,-0.28,0.09,0.14
4246,0.11,-0.42,9.88,-0.28,0.10,0.14
4252,-0.69,-0.77,9.16,-0.28,0.10,0.14
4256,-0.69,-0.77,9.16,-0.27,0.10,0.15
4261,-0.69,-0.77,9.16,-0.25,0.09,0.16
4266,-0.88,-1.84,9.08,-0.25,0.09,0.16
4272,-0.73,-1.76,9.12,-0.25,0.09,0.16
4276,-0.73,-1.76,9.12,-0.22,0.03,0.19
4281,-0.73,-1.76,9.12,-0.21,0.02,0.19
4287,-0.61,-1.65,9.43,-0.21,0.02,0.19
4291,-0.61,-1.65,9.43,-0.21,0.04,0.16
4296,-0.61,-1.65,9.43,-0.22,0.06,0.15
4301,-0.61,-1.65,9.43,-0.21,0.07,0.12
4307,-0.30,-2.30,9.93,-0.21,0.07,0.12
4311,-0.30,-2.30,9.93,-0.21,0.08,0.11
4316,-0.30,-2.30,9.93,-0.22,0.07,0.09
4322,-0.04,-3.03,9.31,-0.22,0.07,0.09
4326,-0.04,-3.03,9.31,-0.22,0.07,0.05
4331,-0.04,-3.03,9.31,-0.22,0.06,0.02
4337,0.27,-4.21,9.27,-0.22,0.06,0.02
4341,0.27,-4.21,9.27,-0.20,0.07,-0.00
4346,0.27,-4.21,9.27,-0.19,0.07,-0.01
4351,0.11,-5.59,9.27,-0.19,0.07,-0.01
4357,0.15,-5.63,9.54,-0.19,0.07,-0.01
4361,0.15,-5.63,9.54,-0.13,0.03,-0.04
4366,0.15,-5.63,9.54,-0.11,0.02,-0.04
4372,0.77,-6.32,9.81,-0.11,0.02,-0.04
4376,0.77,-6.32,9.81,-0.06,-0.01,-0.06
4381,0.77,-6.32,9.81,-0.05,-0.02,-0.07
4386,2.11,-5.21,9.96,-0.05,-0.02,-0.07
4392,2.11,-4.75,10.11,-0.05,-0.02,-0.07
4396,2.11,-4.75,10.11,-0.05,0.02,-0.12
4401,2.11,-4.75,10.11,-0.05,0.07,-0.14
4407,1.72,-3.91,10.45,-0.05,0.07,-0.14
4411,1.72,-3.91,10.45,-0.02,0.15,-0.16
4416,1.72,-3.91,10.45,-0.00,0.16,-0.15
4421,1.72,-3.91,10.45,0.01,0.16,-0.13
4427,2.64,-3.37,10.27,0.01,0.16,-0.13
4431,2.64,-3.37,10.27,0.03,0.10,-0.11
4436,2.64,-3.37,10.27,0.04,0.06,-0.11
4441,2.64,-3.37,10.27,0.05,0.04,-0.08
4447,2.38,-1.61,9.12,0.05,0.04,-0.08
4451,2.38,-1.61,9.12,0.06,0.01,0.00
4456,2.38,-1.61,9.12,0.06,0.02,0.02
4462,1.57,-0.42,8.62,0.06,0.02,0.02
4466,1.57,-0.42,8.62,0.04,0.03,0.03
4471,1.57,-0.42,8.62,0.03,0.02,0.04
4477,1.49,0.04,8.46,0.03,0.02,0.04
4481,1.49,0.04,8.46,-0.02,-0.02,0.05
4486,1.49,0.04,8.46,-0.03,-0.03,0.05
4492,1.65,-0.19,9.20,-0.03,-0.03,0.05
4496,1.65,-0.19,9.20,-0.05,-0.05,0.06
4501,1.65,-0.19,9.20,-0.05,-0.04,0.06
4506,1.65,-0.19,9.20,-0.06,-0.03,0.06
4512,1.23,0.50,9.69,-0.06,-0.03,0.06
4516,1.23,0.50,9.69,-0.07,0.03,0.06
4521,1.23,0.50,9.69,-0.08,0.05,0.05
4527,0.77,0.38,9.46,-0.08,0.05,0.05
4531,0.77,0.38,9.46,-0.08,0.08,0.05
4536,0.77,0.38,9.46,-0.10,0.07,0.05
4541,0.77,0.38,9.46,-0.09,0.07,0.04
4547,0.65,0.08,9.35,-0.09,0.07,0.04
4551,0.65,0.08,9.35,-0.12,0.06,0.03
4556,0.65,0.08,9.35,-0.11,0.05,0.03
4561,0.65,0.08,9.35,-0.12,0.05,0.01
4567,-0.11,-0.42,9.46,-0.12,0.05,0.01
4571,-0.11,-0.42,9.46,-0.14,0.06,-0.03
4576,-0.11,-0.42,9.46,-0.15,0.05,-0.04
4582,-0.19,-1.23,9.58,-0.15,0.05,-0.04
4586,-0.19,-1.23,9.58,-0.16,0.03,-0.08
4591,-0.19,-1.23,9.58,-0.17,0.01,-0.10
4597,-0.34,-1.38,9.50,-0.17,0.01,-0.10
4601,-0.34,-1.38,9.50,-0.17,0.02,-0.12
4606,-0.34,-1.38,9.50,-0.18,0.03,-0.15
4611,-0.61,-1.57,9.27,-0.18,0.03,-0.15
4617,-0.65,-1.68,9.27,-0.18,0.03,-0.15
4621,-0.65,-1.68,9.27,-0.18,0.07,-0.19
4626,-0.65,-1.68,9.27,-0.18,0.07,-0.20
4632,-0.57,-1.68,9.20,-0.18,0.07,-0.20
4636,-0.57,-1.68,9.20,-0.18,0.05,-0.22
4641,-0.57,-1.68,9.20,-0.18,0.04,-0.23
4646,-0.34,-2.07,9.39,-0.18,0.04,-0.23
4652,-0.38,-2.18,9.54,-0.18,0.04,-0.23
4656,-0.38,-2.18,9.54,-0.18,0.05,-0.24
4661,-0.38,-2.18,9.54,-0.16,0.05,-0.25
4667,-0.30,-2.68,9.50,-0.16,0.05,-0.25
4671,-0.30,-2.68,9.50,-0.16,0.04,-0.27
4676,-0.30,-2.68,9.50,-0.15,0.04,-0.28
4681,-0.30,-2.68,9.50,-0.14,0.04,-0.29
4687,-0.50,-3.41,9.04,-0.14,0.04,-0.29
4691,-0.50,-3.41,9.04,-0.13,0.03,-0.31
4696,-0.50,-3.41,9.04,-0.13,0.02,-0.32
4702,0.19,-3.48,9.16,-0.13,0.02,-0.32
4706,0.19,-3.48,9.16,-0.12,0.00,-0.33
4711,0.19,-3.48,9.16,-0.12,-0.00,-0.34
4716,0.50,-3.91,9.65,-0.12,-0.00,-0.34
4722,0.57,-4.06,9.77,-0.12,-0.00,-0.34
4726,0.57,-4.06,9.77,-0.11,0.01,-0.33
4731,0.57,-4.06,9.77,-0.08,-0.01,-0.27
4737,0.57,-2.91,9.65,-0.08,-0.01,-0.27
4741,0.57,-2.91,9.65,-0.06,-0.01,-0.31
4746,0.57,-2.91,9.65,-0.06,-0.02,-0.35
4752,1.80,-4.94,9.50,-0.06,-0.02,-0.35
4756,1.80,-4.94,9.50,-0.00,-0.00,-0.25
4761,1.80,-4.94,9.50,-0.00,0.01,-0.22
4766,1.80,-4.94,9.50,-0.00,0.02,-0.23
4772,1.04,-3.03,9.23,-0.00,0.02,-0.23
4776,1.04,-3.03,9.23,0.00,0.02,-0.29
4781,1.04,-3.03,9.23,-0.00,0.02,-0.27
4787,1.76,-2.68,9.65,-0.00,0.02,-0.27
4791,1.76,-2.68,9.65,0.00,-0.00,-0.24
4796,1.76,-2.68,9.65,0.01,-0.01,-0.25
4800,1.76,-2.68,9.65,0.02,-0.01,-0.24
4805,1.84,-2.11,9.46,0.02,-0.01,-0.24
4812,1.84,-2.11,9.46,0.03,-0.00,-0.21
4817,1.53,-1.68,9.39,0.03,-0.00,-0.21
4822,1.42,-1.61,9.50,0.03,-0.00,-0.21
4826,1.42,-1.61,9.50,0.02,0.01,-0.23
4831,1.42,-1.61,9.50,0.03,0.00,-0.24
4836,1.49,-1.49,9.54,0.03,0.00,-0.24
4842,0.69,-0.65,9.58,0.03,0.00,-0.24
4846,0.69,-0.65,9.58,-0.01,-0.01,-0.25
4851,0.69,-0.65,9.58,-0.02,-0.01,-0.27
4857,0.88,-1.23,9.65,-0.02,-0.01,-0.27
4861,0.88,-1.23,9.65,-0.02,0.02,-0.23
4866,0.88,-1.23,9.65,-0.02,0.03,-0.19
4871,0.15,-0.19,9.31,-0.02,0.03,-0.19
4877,0.19,-0.34,9.38,-0.02,0.03,-0.19
4881,0.19,-0.34,9.38,-0.02,0.04,-0.12
4886,0.19,-0.34,9.38,-0.03,0.03,-0.09
4891,0.08,-0.54,9.65,-0.03,0.03,-0.09
4896,0.08,-0.54,9.65,-0.03,0.00,-0.03
4901,0.08,-0.54,9.65,-0.03,-0.00,-0.00
4907,-0.11,-0.65,9.50,-0.03,-0.00,-0.00
4911,-0.11,-0.65,9.50,-0.04,-0.02,0.05
4916,-0.11,-0.65,9.50,-0.04,-0.01,0.07
4921,-0.11,-0.65,9.50,-0.05,-0.00,0.07
4826,1.42,-1.61,9.50,0.02,0.01,-0.23
4831,1.42,-1.61,9.50,0.03,0.00,-0.24
4836,1.49,-1.49,9.54,0.03,0.00,-0.24
4842,0.69,-0.65,9.58,0.03,0.00,-0.24
4846,0.69,-0.65,9.58,-0.01,-0.01,-0.25
4851,0.69,-0.65,9.58,-0.02,-0.01,-0.27
4857,0.88,-1.23,9.65,-0.02,-0.01,-0.27
4861,0.88,-1.23,9.65,-0.02,0.02,-0.23
4866,0.88,-1.23,9.65,-0.02,0.03,-0.19
4871,0.15,-0.19,9.31,-0.02,0.03,-0.19
4877,0.19,-0.34,9.38,-0.02,0.03,-0.19
4881,0.19,-0.34,9.38,-0.02,0.04,-0.12
4886,0.19,-0.34,9.38,-0.03,0.03,-0.09
4891,0.08,-0.54,9.65,-0.03,0.03,-0.09
4896,0.08,-0.54,9.65,-0.03,0.00,-0.03
4901,0.08,-0.54,9.65,-0.03,-0.00,-0.00
