timestamp,accX,accY,accZ,gyroX,gyroY,gyroZ
Straight
7,0.65,-0.27,10.19,-0.02,0.15,0.18
19,0.65,-0.27,10.19,0.00,0.18,0.16
21,2.14,1.76,8.08,0.00,0.18,0.16
22,2.14,1.76,8.08,-0.24,-0.01,-0.45
26,1.46,-1.80,10.42,-0.24,-0.01,-0.45
31,1.46,-1.80,10.42,-0.20,-0.03,-0.43
36,0.80,-2.72,11.19,-0.20,-0.03,-0.43
41,-0.04,-2.14,11.11,-0.20,-0.03,-0.43
46,-0.04,-2.14,11.11,-0.08,0.03,-0.25
51,-0.04,-2.14,11.11,-0.08,0.00,-0.26
56,2.14,0.92,10.19,-0.08,0.00,-0.26
61,2.30,1.15,8.46,-0.08,0.00,-0.26
66,2.30,1.15,8.46,-0.12,-0.02,-0.35
71,2.30,1.15,8.46,-0.13,0.04,-0.32
76,-1.07,-0.38,7.31,-0.13,0.04,-0.32
81,-1.38,0.04,8.01,-0.13,0.04,-0.32
86,-1.23,-0.08,8.39,-0.13,0.04,-0.32
91,0.88,0.11,9.42,-0.13,0.04,-0.32
96,1.23,-0.30,9.00,-0.13,0.04,-0.32
101,1.68,-0.61,9.38,-0.13,0.04,-0.32
106,1.76,-1.88,9.54,-0.13,0.04,-0.32
111,1.84,-1.61,9.73,-0.13,0.04,-0.32
116,1.84,-1.61,9.73,-0.04,-0.14,-0.19
121,-1.15,-1.72,9.88,-0.04,-0.14,-0.19
126,-0.54,-1.46,10.80,-0.04,-0.14,-0.19
131,-0.19,-1.23,11.00,-0.04,-0.14,-0.19
137,-0.27,-0.96,11.49,-0.04,-0.14,-0.19
141,-0.38,-1.04,11.41,-0.04,-0.14,-0.19
146,0.34,-1.42,11.49,-0.04,-0.14,-0.19
152,-0.27,-1.07,9.77,-0.04,-0.14,-0.19
156,-2.22,-0.34,8.54,-0.04,-0.14,-0.19
161,-1.42,0.11,8.35,-0.04,-0.14,-0.19
166,-1.68,-0.30,8.04,-0.04,-0.14,-0.19
171,-1.38,-0.11,7.89,-0.04,-0.14,-0.19
176,-1.00,0.00,8.16,-0.04,-0.14,-0.19
182,-0.96,-0.08,8.50,-0.04,-0.14,-0.19
186,-0.96,-0.08,8.50,-0.00,-0.04,-0.19
191,-0.96,-0.08,8.50,0.01,-0.01,-0.15
196,-1.57,-0.96,8.62,0.01,-0.01,-0.15
201,-1.99,-0.88,8.77,0.01,-0.01,-0.15
207,-3.18,-0.11,8.28,0.01,-0.01,-0.15
211,-1.23,-1.49,9.58,0.01,-0.01,-0.15
216,-0.34,-1.49,10.65,0.01,-0.01,-0.15
222,-0.23,-0.92,11.38,0.01,-0.01,-0.15
226,-0.80,-0.80,12.56,0.01,-0.01,-0.15
231,-0.88,-1.49,11.98,0.01,-0.01,-0.15
236,-1.23,-1.27,11.00,0.01,-0.01,-0.15
242,-1.15,-1.38,10.46,0.01,-0.01,-0.15
246,-3.95,-0.11,8.88,0.01,-0.01,-0.15
252,-3.87,-0.57,7.74,0.01,-0.01,-0.15
256,-3.87,-0.57,7.74,0.06,0.17,-0.11
261,-2.76,0.27,7.62,0.06,0.17,-0.11
266,-2.07,0.54,8.74,0.06,0.17,-0.11
271,-1.19,-1.27,9.23,0.06,0.17,-0.11
276,0.11,0.77,9.61,0.06,0.17,-0.11
281,-10.65,-5.44,11.34,0.06,0.17,-0.11
287,7.01,0.15,11.95,0.06,0.17,-0.11
291,7.01,0.15,11.95,0.04,-0.13,-0.18
296,-4.21,0.30,9.80,0.04,-0.13,-0.18
301,2.76,-3.98,9.77,0.04,-0.13,-0.18
306,0.84,-1.68,8.62,0.04,-0.13,-0.18
312,0.84,-1.68,8.62,0.16,-0.02,-0.16
317,0.57,-2.72,8.46,0.16,-0.02,-0.16
321,0.57,-2.72,8.46,0.13,0.03,-0.10
326,0.57,-2.72,8.46,0.11,0.06,-0.10
331,0.57,-2.72,8.46,0.07,0.11,-0.19
336,-2.34,-0.15,8.66,0.07,0.11,-0.19
342,-2.34,0.61,9.58,0.07,0.11,-0.19
346,0.27,0.84,10.00,0.07,0.11,-0.19
351,0.69,-0.80,9.92,0.07,0.11,-0.19
357,1.04,-0.38,9.65,0.07,0.11,-0.19
361,1.04,-0.38,9.65,0.08,-0.10,-0.25
366,0.38,-1.34,9.73,0.08,-0.10,-0.25
371,-0.84,-0.57,9.16,0.08,-0.10,-0.25
377,-1.23,-0.84,9.42,0.08,-0.10,-0.25
381,-1.30,-0.15,9.65,0.08,-0.10,-0.25
386,-1.84,1.27,9.08,0.08,-0.10,-0.25
391,-1.49,1.11,9.50,0.08,-0.10,-0.25
397,-1.38,1.34,8.78,0.08,-0.10,-0.25
401,-0.57,0.46,8.16,0.08,-0.10,-0.25
406,0.77,-0.19,7.86,0.08,-0.10,-0.25
412,1.42,-0.61,8.28,0.08,-0.10,-0.25
416,1.46,-0.54,9.80,0.08,-0.10,-0.25
421,2.76,0.23,12.14,0.08,-0.10,-0.25
427,2.45,0.50,11.96,0.08,-0.10,-0.25
431,2.45,0.50,11.96,0.09,-0.11,-0.11
436,0.38,-2.14,11.98,0.09,-0.11,-0.11
442,1.57,-2.30,12.34,0.09,-0.11,-0.11
446,1.57,-2.30,12.34,0.22,0.07,-0.15
451,1.57,-2.30,12.34,0.24,0.12,-0.06
457,-1.27,-0.96,7.78,0.24,0.12,-0.06
461,-1.27,-0.96,7.78,0.23,0.11,0.06
466,-1.27,-0.96,7.78,0.19,0.05,0.07
471,-0.69,-0.80,8.28,0.19,0.05,0.07
477,-0.73,-3.56,8.08,0.19,0.05,0.07
481,-0.73,-3.56,8.08,0.15,-0.15,0.24
486,-0.96,-4.33,9.35,0.15,-0.15,0.24
491,-0.80,-4.33,9.73,0.15,-0.15,0.24
497,-0.27,-4.14,9.73,0.15,-0.15,0.24
501,-0.27,-4.14,9.73,0.33,-0.16,0.62
506,-0.04,-2.11,10.61,0.33,-0.16,0.62
511,0.65,-2.84,11.80,0.33,-0.16,0.62
517,0.34,-2.11,10.61,0.33,-0.16,0.62
521,-0.84,-2.49,10.54,0.33,-0.16,0.62
527,-0.77,-2.22,10.27,0.33,-0.16,0.62
531,-0.77,-2.22,10.27,0.42,0.03,0.79
537,-2.99,-0.65,7.35,0.42,0.03,0.79
542,-3.26,-1.04,7.20,0.42,0.03,0.79
546,-3.26,-1.04,7.20,0.30,0.04,0.64
551,-3.26,-1.04,7.20,0.25,-0.01,0.59
556,-2.03,-0.92,6.62,0.25,-0.01,0.59
562,-1.53,-0.50,7.28,0.25,-0.01,0.59
566,-1.53,-0.50,7.28,0.15,-0.20,0.46
571,-1.53,-0.50,7.28,0.13,-0.21,0.42
577,-1.68,-1.27,9.61,0.13,-0.21,0.42
581,-1.68,-1.27,9.61,0.13,-0.13,0.33
586,-1.68,-1.27,9.61,0.15,-0.06,0.33
591,-1.68,-1.27,9.61,0.15,0.00,0.34
597,-2.38,0.73,8.93,0.15,0.00,0.34
601,-2.38,0.73,8.93,0.15,0.05,0.33
606,-1.34,1.27,8.01,0.15,0.05,0.33
611,-2.11,1.11,7.43,0.15,0.05,0.33
617,-2.64,2.07,7.59,0.15,0.05,0.33
622,-2.64,2.07,7.59,0.07,-0.06,0.31
626,0.23,0.88,9.20,0.07,-0.06,0.31
631,0.61,0.77,10.23,0.07,-0.06,0.31
637,0.46,1.07,10.61,0.07,-0.06,0.31
641,-0.23,1.27,10.39,0.07,-0.06,0.31
647,-0.65,1.53,10.04,0.07,-0.06,0.31
651,-0.65,1.53,10.04,-0.02,-0.02,0.23
658,-0.65,1.53,10.04,-0.03,0.03,0.20
663,-1.30,1.30,8.62,-0.03,0.03,0.20
666,-1.30,1.30,8.62,-0.03,0.04,0.18
671,-1.30,1.30,8.62,-0.05,-0.00,0.18
676,-1.42,1.91,8.93,-0.05,-0.00,0.18
682,-0.69,2.18,8.62,-0.05,-0.00,0.18
686,-0.69,2.18,8.62,-0.07,-0.09,0.16
692,-0.69,2.18,8.62,-0.09,-0.09,0.15
697,-3.33,2.49,6.97,-0.09,-0.09,0.15
701,-3.33,2.49,6.97,-0.13,-0.06,0.09
706,-3.33,2.49,6.97,-0.15,-0.12,0.08
711,-3.33,2.49,6.97,-0.15,-0.21,0.08
717,1.84,0.92,13.45,-0.15,-0.21,0.08
721,1.84,0.92,13.45,-0.19,-0.29,0.08
726,4.18,1.42,14.75,-0.19,-0.29,0.08
731,3.41,1.57,15.17,-0.19,-0.29,0.08
737,2.14,0.92,13.63,-0.19,-0.29,0.08
741,2.14,0.92,13.63,-0.15,0.09,0.08
746,-1.91,0.80,9.04,-0.15,0.09,0.08
752,-2.34,0.04,7.62,-0.15,0.09,0.08
756,-2.34,0.04,7.62,-0.10,0.33,0.11
761,-0.46,-0.84,7.09,-0.10,0.33,0.11
766,0.00,-1.11,8.32,-0.10,0.33,0.11
771,0.00,-1.11,8.32,-0.17,-0.08,0.07
776,0.00,-1.11,8.32,-0.19,-0.19,0.05
781,0.65,-0.42,9.93,-0.19,-0.19,0.05
787,0.11,-0.88,9.35,-0.19,-0.19,0.05
791,0.11,-0.88,9.35,-0.21,-0.15,-0.01
796,-0.65,-0.30,8.88,-0.21,-0.15,-0.01
802,0.04,-0.08,9.92,-0.21,-0.15,-0.01
806,0.04,-0.08,9.92,-0.24,-0.01,-0.11
812,0.04,-0.08,9.92,-0.24,-0.04,-0.13
818,2.14,-1.27,11.30,-0.24,-0.04,-0.13
821,2.14,-1.27,11.30,-0.19,-0.06,-0.03
826,2.14,-1.27,11.30,-0.18,-0.00,-0.01
831,2.14,-1.27,11.30,-0.16,0.08,-0.03
837,-0.57,-0.57,10.73,-0.16,0.08,-0.03
841,-0.57,-0.57,10.73,-0.13,0.29,-0.05
846,-0.57,-0.57,10.73,-0.12,0.34,-0.05
852,-0.57,-0.57,10.73,-0.14,0.36,-0.08
857,-4.48,1.61,7.43,-0.14,0.36,-0.08
861,-4.48,1.61,7.43,-0.15,0.29,-0.15
866,-1.53,0.57,7.32,-0.15,0.29,-0.15
872,-1.57,1.00,7.55,-0.15,0.29,-0.15
876,-1.57,1.00,7.55,-0.23,-0.04,-0.20
881,-0.15,1.53,10.34,-0.23,-0.04,-0.20
887,-0.19,1.19,10.31,-0.23,-0.04,-0.20
892,-0.19,1.19,10.31,-0.28,-0.10,-0.36
896,-0.19,1.19,10.31,-0.25,-0.04,-0.38
901,-0.65,-0.11,8.92,-0.25,-0.04,-0.38
907,0.04,0.08,8.58,-0.25,-0.04,-0.38
912,0.04,0.08,8.58,-0.14,0.15,-0.18
917,0.04,0.08,8.58,-0.12,0.16,-0.14
922,1.80,1.42,8.66,-0.12,0.16,-0.14
926,1.80,1.42,8.66,-0.15,0.12,-0.13
931,1.80,1.42,8.66,-0.16,0.13,-0.13
936,-2.49,0.08,9.34,-0.16,0.13,-0.13
942,-4.64,-0.04,9.88,-0.16,0.13,-0.13
946,-4.64,-0.04,9.88,-0.13,0.35,-0.12
951,-4.64,-0.04,9.88,-0.16,0.38,-0.11
957,-6.89,2.03,11.07,-0.16,0.38,-0.11
962,-6.89,2.03,11.07,-0.17,0.24,-0.16
966,-6.89,2.03,11.07,-0.22,0.02,-0.20
971,-6.89,2.03,11.07,-0.25,-0.19,-0.25
977,4.37,-2.14,9.38,-0.25,-0.19,-0.25
982,4.37,-2.14,9.38,-0.27,-0.34,-0.28
987,4.37,-2.14,9.38,-0.22,-0.26,-0.29
992,-3.14,-0.15,10.11,-0.22,-0.26,-0.29
997,-3.14,-0.15,10.11,-0.16,0.09,-0.31
1002,-3.14,-0.15,10.11,-0.16,0.21,-0.31
1006,-1.23,0.57,10.61,-0.16,0.21,-0.31
1012,-0.50,1.15,10.15,-0.16,0.21,-0.31
1017,-0.50,1.15,10.15,-0.15,0.18,-0.34
1021,-0.50,1.15,10.15,-0.18,0.10,-0.38
1027,1.23,-1.00,9.77,-0.18,0.10,-0.38
1032,1.23,-1.00,9.77,-0.17,-0.00,-0.40
1037,1.23,-1.00,9.77,-0.16,0.00,-0.39
1043,-1.61,-0.42,10.77,-0.16,0.00,-0.39
1046,-1.61,-0.42,10.77,-0.14,0.07,-0.39
1051,-1.61,-0.42,10.77,-0.13,0.09,-0.41
1056,-1.61,-0.54,10.15,-0.13,0.09,-0.41
1062,-2.18,-0.50,9.34,-0.13,0.09,-0.41
1066,-2.18,-0.50,9.34,-0.11,0.04,-0.43
1071,-2.18,-0.50,9.34,-0.11,0.01,-0.41
1078,0.23,-1.19,8.39,-0.11,0.01,-0.41
1081,0.23,-1.19,8.39,-0.09,-0.05,-0.41
1086,0.23,-1.19,8.39,-0.08,-0.06,-0.40
1091,0.23,-1.19,8.39,-0.06,-0.04,-0.37
1097,-1.84,-1.84,9.50,-0.06,-0.04,-0.37
1101,-1.84,-1.84,9.50,-0.02,0.03,-0.36
1106,-1.84,-1.84,9.50,-0.00,0.05,-0.33
1111,-1.84,-1.84,9.50,0.01,0.05,-0.31
1117,0.15,-1.68,8.58,0.01,0.05,-0.31
1121,0.15,-1.68,8.58,0.03,-0.08,-0.26
1126,0.15,-1.68,8.58,0.05,-0.08,-0.24
1132,0.54,-2.76,9.69,0.05,-0.08,-0.24
1136,0.54,-2.76,9.69,0.08,-0.04,-0.15
1141,0.54,-2.76,9.69,0.11,-0.00,-0.12
1147,-3.14,-0.73,8.92,0.11,-0.00,-0.12
1151,-3.14,-0.73,8.92,0.13,0.11,-0.05
1157,-3.14,-0.73,8.92,0.14,0.09,-0.02
1163,-1.84,-0.80,8.12,0.14,0.09,-0.02
1166,-1.84,-0.80,8.12,0.13,-0.02,0.01
1171,-1.84,-0.80,8.12,0.12,-0.08,0.03
1176,-1.84,-0.80,8.12,0.11,-0.12,0.07
1182,1.04,-1.27,9.88,0.11,-0.12,0.07
1186,1.04,-1.27,9.88,0.11,-0.14,0.10
1192,1.04,-1.27,9.88,0.10,-0.08,0.07
1198,-1.76,-0.42,10.38,0.10,-0.08,0.07
1201,-1.76,-0.42,10.38,0.11,0.04,0.06
1206,-1.76,-0.42,10.38,0.13,0.03,0.10
1211,-1.76,-0.42,10.38,0.14,-0.01,0.13
1217,1.19,-1.49,9.50,0.14,-0.01,0.13
1221,1.19,-1.49,9.50,0.14,-0.12,0.15
1226,1.19,-1.49,9.50,0.14,-0.13,0.17
1231,1.19,-1.49,9.50,0.13,-0.12,0.17
1238,0.65,-0.96,10.35,0.13,-0.12,0.17
1242,0.65,-0.96,10.35,0.14,-0.04,0.17
1247,0.65,-0.96,10.35,0.13,-0.01,0.17
1252,0.23,-0.88,10.61,0.13,-0.01,0.17
1256,0.23,-0.88,10.61,0.12,-0.02,0.16
1261,0.23,-0.88,10.61,0.10,-0.04,0.13
1267,0.80,-0.84,9.54,0.10,-0.04,0.13
1271,0.80,-0.84,9.54,0.08,-0.02,0.08
1277,0.80,-0.84,9.54,0.08,-0.00,0.10
1281,0.04,-0.38,9.35,0.08,-0.00,0.10
1287,-0.50,-0.65,9.20,0.08,-0.00,0.10
1291,-0.50,-0.65,9.20,0.08,0.04,0.08
1296,-0.50,-0.65,9.20,0.07,0.05,0.04
1302,-1.61,-0.54,8.46,0.07,0.05,0.04
1306,-1.61,-0.54,8.46,0.07,0.05,0.02
1311,-1.61,-0.54,8.46,0.08,0.03,0.03
1316,-0.73,-0.30,6.78,0.08,0.03,0.03
1322,0.23,-0.19,7.86,0.08,0.03,0.03
1326,0.23,-0.19,7.86,0.06,-0.12,0.02
1331,0.23,-0.19,7.86,0.06,-0.13,0.01
1337,-1.38,-0.65,11.60,0.06,-0.13,0.01
1341,-1.38,-0.65,11.60,0.05,-0.05,-0.05
1347,-1.38,-0.65,11.60,0.06,-0.04,-0.06
1353,-1.38,-0.65,11.60,0.08,-0.02,-0.07
1356,-1.38,-0.65,11.60,0.10,0.03,-0.06
1362,-1.38,-0.65,11.60,0.12,0.08,-0.05
1366,-1.38,-0.65,11.60,0.13,0.10,-0.05
1372,-2.68,0.73,7.82,0.13,0.10,-0.05
1376,-2.68,0.73,7.82,0.08,0.11,-0.11
1382,-2.68,0.73,7.82,0.04,0.07,-0.15
1386,-1.99,-0.69,9.50,0.04,0.07,-0.15
1393,-2.26,-0.77,10.15,0.04,0.07,-0.15
1396,-2.26,-0.77,10.15,0.02,-0.04,-0.23
1401,-2.26,-0.77,10.15,0.04,-0.04,-0.23
1407,-1.68,0.65,8.84,0.04,-0.04,-0.23
1411,-1.68,0.65,8.84,0.05,-0.00,-0.24
1416,-1.68,0.65,8.84,0.03,0.02,-0.26
1422,-1.07,1.72,8.23,0.03,0.02,-0.26
1426,-1.07,1.72,8.23,-0.00,-0.00,-0.30
1431,-1.07,1.72,8.23,0.00,-0.02,-0.30
1436,-1.07,1.72,8.23,-0.01,-0.00,-0.27
1442,-0.46,0.69,10.34,-0.01,-0.00,-0.27
1446,-0.46,0.69,10.34,-0.01,-0.00,-0.21
1451,-0.46,0.69,10.34,0.01,-0.02,-0.21
1457,0.11,1.76,10.07,0.01,-0.02,-0.21
1462,0.11,1.76,10.07,0.00,-0.01,-0.19
1467,0.11,1.76,10.07,0.00,0.02,-0.16
1471,0.11,1.76,10.07,-0.00,0.06,-0.14
1477,-1.53,2.38,9.27,-0.00,0.06,-0.14
1481,-1.53,2.38,9.27,-0.01,0.08,-0.10
1486,-1.53,2.38,9.27,-0.02,0.02,-0.09
1491,-1.53,2.38,9.27,-0.00,-0.03,-0.06
1498,-0.15,0.42,10.46,-0.00,-0.03,-0.06
1501,-0.15,0.42,10.46,0.01,-0.09,0.01
1506,0.08,-1.15,10.19,0.01,-0.09,0.01
1512,-0.73,-0.30,9.34,0.01,-0.09,0.01
1516,-0.73,-0.30,9.34,0.04,-0.04,0.04
1521,-0.73,-0.30,9.34,0.04,0.01,0.03
1527,0.11,-0.77,9.54,0.04,0.01,0.03
1531,0.11,-0.77,9.54,0.02,-0.06,0.03
1537,0.11,-0.77,9.54,0.00,-0.13,0.03
1543,0.27,-1.53,9.65,0.00,-0.13,0.03
1546,0.27,-1.53,9.65,-0.01,-0.13,-0.02
1551,0.27,-1.53,9.65,0.00,-0.09,-0.03
1556,0.27,-1.53,9.65,0.02,-0.03,-0.02
1562,-0.42,-1.80,9.20,0.02,-0.03,-0.02
1566,-0.42,-1.80,9.20,0.01,-0.02,-0.01
1571,-0.42,-1.80,9.20,0.02,-0.07,-0.03
1576,1.04,-2.64,10.77,0.02,-0.07,-0.03
1582,1.61,-1.95,11.15,0.02,-0.07,-0.03
1586,1.61,-1.95,11.15,0.05,-0.07,-0.01
1591,1.61,-1.95,11.15,0.08,-0.04,0.01
1597,0.61,-1.57,9.89,0.08,-0.04,0.01
1601,0.61,-1.57,9.89,0.11,0.06,0.05
1606,0.61,-1.57,9.89,0.13,0.07,0.04
1611,0.61,-1.57,9.89,0.13,0.07,0.03
1617,-1.34,-1.38,9.42,0.13,0.07,0.03
1621,-1.34,-1.38,9.42,0.16,0.08,0.05
1626,-1.34,-1.38,9.42,0.18,0.08,0.07
1632,-1.49,-1.04,9.04,0.18,0.08,0.07
1637,-1.49,-1.04,9.04,0.15,0.03,0.06
1641,-1.49,-1.04,9.04,0.15,-0.03,0.04
1646,-1.49,-1.04,9.04,0.14,-0.07,0.03
1653,-0.38,-0.77,8.54,0.14,-0.07,0.03
1657,-0.38,-0.77,8.54,0.12,-0.08,0.06
1661,-0.50,-0.69,8.12,0.12,-0.08,0.06
1667,-0.46,-1.15,8.50,0.12,-0.08,0.06
1671,-0.46,-1.15,8.50,0.13,-0.02,0.05
1676,-0.46,-1.15,8.50,0.15,0.00,0.06
1682,-1.04,-0.50,9.92,0.15,0.00,0.06
1686,-1.04,-0.50,9.92,0.14,0.03,0.07
1691,-1.04,-0.50,9.92,0.15,0.03,0.07
1696,-1.04,-0.50,9.92,0.16,0.03,0.07
1701,-1.34,0.23,9.20,0.16,0.03,0.07
1706,-1.34,0.23,9.20,0.15,0.04,0.08
1711,-1.34,0.23,9.20,0.15,0.01,0.09
1717,1.72,-0.54,10.07,0.15,0.01,0.09
1721,1.72,-0.54,10.07,0.12,-0.05,0.08
1726,1.72,-0.54,10.07,0.12,-0.04,0.07
1732,1.72,-0.54,10.07,0.12,0.02,0.07
1736,1.72,-0.54,10.07,0.12,0.07,0.08
1741,1.72,-0.54,10.07,0.13,0.12,0.09
1746,1.72,-0.54,10.07,0.14,0.15,0.09
1752,1.72,-0.54,10.07,0.15,0.16,0.10
1756,1.72,-0.54,10.07,0.12,0.14,0.11
1761,1.72,-0.54,10.07,0.12,0.11,0.11
1766,1.72,-0.54,10.07,0.11,0.06,0.11
1772,-2.07,-0.88,6.71,0.11,0.06,0.11
1776,-2.07,-0.88,6.71,0.11,-0.12,0.15
1781,-2.07,-0.88,6.71,0.12,-0.18,0.20
1787,-0.30,-1.04,10.69,0.12,-0.18,0.20
1791,-0.30,-1.04,10.69,0.11,-0.20,0.20
1796,-0.30,-1.04,10.69,0.11,-0.17,0.20
1802,-0.30,-1.04,10.69,0.13,-0.11,0.20
1806,-0.30,-1.04,10.69,0.14,-0.03,0.21
1811,-0.30,-1.04,10.69,0.17,0.03,0.22
1816,-0.30,-1.04,10.69,0.18,0.10,0.22
1821,-1.91,-1.53,8.62,0.18,0.10,0.22
1826,-1.91,-1.53,8.62,0.19,0.11,0.24
1831,-1.91,-1.53,8.62,0.17,0.05,0.24
1837,-1.91,-1.53,8.62,0.16,-0.01,0.22
1841,-1.91,-1.53,8.62,0.15,-0.05,0.20
1846,-1.91,-1.53,8.62,0.17,-0.08,0.21
1851,-1.91,-1.53,8.62,0.17,-0.11,0.25
1857,-1.46,-1.68,8.73,0.17,-0.11,0.25
1861,-1.46,-1.68,8.73,0.19,-0.13,0.29
1866,-1.46,-1.68,8.73,0.19,-0.14,0.29
1872,-1.46,-1.68,8.73,0.19,-0.14,0.29
1876,-1.46,-1.68,8.73,0.18,-0.12,0.29
1881,-1.46,-1.68,8.73,0.19,-0.07,0.29
1886,-1.46,-1.68,8.73,0.19,-0.05,0.31
1892,-0.04,-1.30,9.96,0.19,-0.05,0.31
1896,-0.04,-1.30,9.96,0.21,-0.08,0.34
1901,-0.04,-1.30,9.96,0.19,-0.08,0.34
1907,-0.04,-1.30,9.96,0.20,-0.08,0.35
1911,-0.04,-1.30,9.96,0.18,-0.12,0.34
1916,-0.04,-1.30,9.96,0.16,-0.14,0.32
1921,-0.04,-1.30,9.96,0.15,-0.12,0.32
1927,-0.50,-1.15,10.27,0.15,-0.12,0.32
1931,-0.50,-1.15,10.27,0.14,-0.02,0.31
1936,-0.50,-1.15,10.27,0.14,0.00,0.30
1942,-0.50,-1.15,10.27,0.15,0.03,0.29
1946,-0.50,-1.15,10.27,0.13,0.05,0.28
1951,-0.50,-1.15,10.27,0.14,0.04,0.30
1957,-0.50,-1.15,10.27,0.14,0.03,0.30
1962,-0.50,-1.15,10.27,0.14,0.02,0.29
1966,-0.50,-1.15,10.27,0.13,0.00,0.29
1971,-0.50,-1.15,10.27,0.16,-0.00,0.28
1977,-1.84,1.42,8.39,0.16,-0.00,0.28
1981,-1.84,1.42,8.39,0.12,-0.06,0.27
1986,-1.84,1.42,8.39,0.10,-0.14,0.25
1991,-1.84,1.42,8.39,0.06,-0.21,0.22
1996,2.11,-0.11,9.54,0.06,-0.21,0.22
2001,2.11,-0.11,9.54,0.04,-0.21,0.19
2007,2.11,-0.11,9.54,0.03,-0.16,0.15
2013,-0.84,-0.19,9.31,0.03,-0.16,0.15
2016,-0.84,-0.19,9.31,0.02,0.07,0.11
2021,-0.84,-0.19,9.31,0.01,0.07,0.09
2026,-0.84,-0.19,9.31,-0.01,0.04,0.06
2032,0.65,-0.77,11.76,-0.01,0.04,0.06
2036,0.65,-0.77,11.76,-0.01,0.01,0.07
2041,0.65,-0.77,11.76,0.01,0.01,0.10
2047,0.38,0.11,10.11,0.01,0.01,0.10
2051,0.38,0.11,10.11,0.05,0.11,0.15
2056,0.38,0.11,10.11,0.06,0.14,0.16
2061,0.38,0.11,10.11,0.05,0.15,0.16
2066,0.38,0.11,10.11,0.04,0.16,0.12
2071,0.38,0.11,10.11,0.04,0.15,0.11
2076,0.38,0.11,10.11,0.02,0.10,0.10
2082,-1.04,-0.15,8.08,0.02,0.10,0.10
2086,-1.04,-0.15,8.08,0.01,-0.04,0.12
2091,-1.04,-0.15,8.08,-0.01,-0.11,0.12
2096,-1.04,-0.15,8.08,-0.02,-0.13,0.11
2101,-1.04,-0.15,8.08,-0.04,-0.12,0.08
2106,-1.04,-0.15,8.08,-0.05,-0.07,0.05
2111,-1.04,-0.15,8.08,-0.04,-0.01,0.05
2117,-0.34,-0.54,10.73,-0.04,-0.01,0.05
2121,-0.34,-0.54,10.73,-0.03,0.10,0.09
2126,-0.34,-0.54,10.73,-0.02,0.11,0.11
2132,-0.34,-0.54,10.73,-0.01,0.11,0.12
2136,-0.34,-0.54,10.73,0.01,0.10,0.16
2141,-0.34,-0.54,10.73,0.02,0.10,0.20
2146,-0.34,-0.54,10.73,0.02,0.11,0.22
2152,-1.99,0.50,9.88,0.02,0.11,0.22
2156,-1.99,0.50,9.88,0.02,0.10,0.25
2161,-1.99,0.50,9.88,0.01,0.06,0.26
2167,-1.99,0.50,9.88,0.00,-0.00,0.26
2171,-1.99,0.50,9.88,0.00,-0.04,0.25
2176,-1.99,0.50,9.88,-0.02,-0.05,0.25
2182,-1.99,0.50,9.88,-0.03,-0.04,0.26
2186,-1.99,0.50,9.88,-0.04,-0.01,0.25
2191,-1.99,0.50,9.88,-0.06,0.05,0.23
2196,-1.99,0.50,9.88,-0.07,0.10,0.19
2201,-2.11,0.38,10.23,-0.07,0.10,0.19
2206,-2.11,0.38,10.23,-0.08,0.14,0.14
2211,-2.11,0.38,10.23,-0.08,0.15,0.15
2216,-2.11,0.38,10.23,-0.07,0.13,0.15
2221,-2.11,0.38,10.23,-0.09,0.09,0.17
2227,-2.11,0.38,10.23,-0.11,0.04,0.15
2231,-2.11,0.38,10.23,-0.12,-0.00,0.12
2237,0.27,1.30,10.04,-0.12,-0.00,0.12
2241,0.27,1.30,10.04,-0.15,-0.05,0.10
2246,0.27,1.30,10.04,-0.16,-0.03,0.09
2251,0.27,1.30,10.04,-0.17,0.01,0.05
2256,0.27,1.30,10.04,-0.17,0.05,0.02
2261,0.27,1.30,10.04,-0.16,0.12,-0.00
2266,0.27,1.30,10.04,-0.16,0.18,-0.01
2272,-1.30,1.46,8.96,-0.16,0.18,-0.01
2276,-1.30,1.46,8.96,-0.17,0.17,-0.03
2282,-1.30,1.46,8.96,-0.19,0.12,-0.05
2286,-1.30,1.46,8.96,-0.22,0.06,-0.08
2291,-1.30,1.46,8.96,-0.24,-0.01,-0.12
2296,-1.30,1.46,8.96,-0.24,-0.04,-0.13
2301,-1.30,1.46,8.96,-0.24,-0.03,-0.12
2307,-1.15,0.08,7.93,-0.24,-0.03,-0.12
2311,-1.15,0.08,7.93,-0.21,0.04,-0.12
2316,-1.15,0.08,7.93,-0.21,0.07,-0.12
2322,-1.15,0.08,7.93,-0.21,0.06,-0.14
2326,-1.15,0.08,7.93,-0.22,0.05,-0.16
2332,-1.15,0.08,7.93,-0.22,0.04,-0.18
2336,-1.15,0.08,7.93,-0.21,0.06,-0.17
2342,-0.46,0.15,9.80,-0.21,0.06,-0.17
2346,-0.46,0.15,9.80,-0.21,0.05,-0.15
2351,-0.46,0.15,9.80,-0.21,0.03,-0.14
2356,-0.46,0.15,9.80,-0.21,-0.00,-0.14
2361,-0.46,0.15,9.80,-0.21,-0.02,-0.14
2366,-0.46,0.15,9.80,-0.21,-0.03,-0.14
2371,-0.46,0.15,9.80,-0.21,-0.01,-0.15
2376,-0.46,0.15,9.80,-0.21,0.04,-0.15
2381,-0.46,0.15,9.80,-0.21,0.06,-0.15
2386,-0.46,0.15,9.80,-0.20,0.11,-0.15
2392,-0.46,0.15,9.80,-0.21,0.14,-0.16
2396,-0.46,0.15,9.80,-0.20,0.14,-0.18
2401,-0.46,0.15,9.80,-0.19,0.12,-0.16
2406,-0.46,0.15,9.80,-0.19,0.09,-0.14
2412,-0.23,-0.34,9.34,-0.19,0.09,-0.14
2416,-0.23,-0.34,9.34,-0.18,0.04,-0.16
2421,-0.23,-0.34,9.34,-0.18,0.02,-0.17
2427,-0.23,-0.34,9.34,-0.18,0.01,-0.17
2431,-0.23,-0.34,9.34,-0.18,0.01,-0.18
2436,-0.23,-0.34,9.34,-0.18,-0.03,-0.17
2441,-0.23,-0.34,9.34,-0.19,-0.07,-0.18
2446,-0.23,-0.34,9.34,-0.20,-0.10,-0.20
2451,-0.23,-0.34,9.34,-0.20,-0.07,-0.21
2456,-0.23,-0.34,9.34,-0.19,-0.02,-0.23
2462,-0.11,-0.15,7.89,-0.19,-0.02,-0.23
2466,-0.11,-0.15,7.89,-0.18,0.04,-0.22
2471,-0.11,-0.15,7.89,-0.18,0.02,-0.21
2476,-0.11,-0.15,7.89,-0.19,-0.00,-0.22
2482,0.57,-0.57,10.39,-0.19,-0.00,-0.22
2486,0.57,-0.57,10.39,-0.18,-0.01,-0.20
2491,0.57,-0.57,10.39,-0.16,0.00,-0.18
2497,-0.04,0.00,10.45,-0.16,0.00,-0.18
2501,-0.04,0.00,10.45,-0.12,0.09,-0.13
2506,-0.04,0.00,10.45,-0.12,0.15,-0.10
2511,-0.04,0.00,10.45,-0.11,0.16,-0.09
2517,-0.69,-0.11,8.93,-0.11,0.16,-0.09
2521,-0.69,-0.11,8.93,-0.11,0.11,-0.08
2526,-0.69,-0.11,8.93,-0.11,0.06,-0.07
2532,-1.91,-0.92,9.00,-0.11,0.06,-0.07
2536,-1.91,-0.92,9.00,-0.11,0.01,-0.04
2542,-1.91,-0.92,9.00,-0.10,-0.01,-0.03
2546,-1.91,-0.92,9.00,-0.10,-0.02,-0.04
2552,-2.87,-0.34,9.38,-0.10,-0.02,-0.04
2556,-2.87,-0.34,9.38,-0.10,0.00,-0.07
2561,-2.87,-0.34,9.38,-0.09,0.02,-0.05
2567,-1.00,-1.72,8.85,-0.09,0.02,-0.05
2571,-1.00,-1.72,8.85,-0.09,-0.05,-0.04
2576,-1.00,-1.72,8.85,-0.09,-0.07,-0.03
2582,-1.00,-1.72,8.85,-0.08,-0.08,-0.03
2587,-0.88,-2.18,9.58,-0.08,-0.08,-0.03
2591,-0.88,-2.18,9.58,-0.04,-0.05,-0.03
2596,-0.88,-2.18,9.58,-0.01,0.03,-0.03
2602,-3.45,-1.95,9.54,-0.01,0.03,-0.03
2606,-3.45,-1.95,9.54,0.01,0.10,-0.05
2611,-3.45,-1.95,9.54,0.01,0.09,-0.07
2617,-3.45,-1.95,9.54,0.01,0.03,-0.08
2621,-3.45,-1.95,9.54,0.00,-0.06,-0.08
2626,-3.45,-1.95,9.54,-0.00,-0.15,-0.09
2631,-3.45,-1.95,9.54,-0.02,-0.15,-0.12
2637,0.30,-1.46,10.00,-0.02,-0.15,-0.12
2641,0.30,-1.46,10.00,0.02,-0.06,-0.14
2646,0.30,-1.46,10.00,0.03,0.02,-0.13
2652,0.30,-1.46,10.00,0.04,0.11,-0.13
2656,0.30,-1.46,10.00,0.06,0.15,-0.13
2662,0.30,-1.46,10.00,0.06,0.14,-0.11
2666,0.30,-1.46,10.00,0.06,0.08,-0.12
2672,-2.22,-0.08,8.54,0.06,0.08,-0.12
2676,-2.22,-0.08,8.54,0.04,-0.05,-0.13
2681,-2.22,-0.08,8.54,0.03,-0.15,-0.10
2687,-2.22,-0.08,8.54,0.03,-0.21,-0.06
2691,-2.22,-0.08,8.54,0.02,-0.21,-0.05
2696,-2.22,-0.08,8.54,0.03,-0.16,-0.05
2701,-2.22,-0.08,8.54,0.05,-0.11,-0.04
2707,1.07,-0.54,11.42,0.05,-0.11,-0.04
2711,1.07,-0.54,11.42,0.08,0.01,-0.00
2716,1.07,-0.54,11.42,0.08,0.07,-0.03
2722,-1.07,-0.38,8.77,0.08,0.07,-0.03
2726,-1.07,-0.38,8.77,0.10,0.16,-0.01
2731,-1.07,-0.38,8.77,0.09,0.14,0.02
2737,-1.07,-0.38,8.77,0.07,0.08,0.03
2742,0.23,-0.38,9.27,0.07,0.08,0.03
2746,0.23,-0.38,9.27,0.04,-0.07,-0.02
2751,0.23,-0.38,9.27,0.02,-0.10,-0.03
2757,-1.23,-0.54,8.89,0.02,-0.10,-0.03
2761,-1.23,-0.54,8.89,0.04,-0.06,-0.03
2766,-1.23,-0.54,8.89,0.04,-0.05,-0.02
2772,-1.23,-0.54,8.89,0.04,-0.06,0.00
2777,1.30,0.15,9.12,0.04,-0.06,0.00
2782,1.30,0.15,9.12,0.01,-0.10,-0.01
2786,1.30,0.15,9.12,0.01,-0.10,-0.03
2792,0.23,-0.15,9.88,0.01,-0.10,-0.03
2796,0.23,-0.15,9.88,0.04,0.02,-0.02
2801,0.23,-0.15,9.88,0.06,0.10,0.00
2807,0.23,-0.15,9.88,0.05,0.10,0.02
2812,-0.27,-0.65,10.23,0.05,0.10,0.02
2816,-0.27,-0.65,10.23,0.04,-0.02,0.01
2821,-0.27,-0.65,10.23,0.03,-0.09,-0.01
2827,1.68,-1.11,11.07,0.03,-0.09,-0.01
2831,1.68,-1.11,11.07,0.03,-0.12,0.01
2836,1.68,-1.11,11.07,0.04,-0.07,0.00
2842,1.68,-1.11,11.07,0.06,0.00,0.00
2846,1.68,-1.11,11.07,0.05,0.07,-0.01
2851,1.68,-1.11,11.07,0.05,0.11,-0.03
2856,1.68,-1.11,11.07,0.07,0.13,-0.04
2862,-1.57,-0.23,9.04,0.07,0.13,-0.04
2866,-1.57,-0.23,9.04,0.06,0.07,-0.04
2871,-1.57,-0.23,9.04,0.06,0.00,-0.04
2877,-1.57,-0.23,9.04,0.05,-0.05,-0.04
2881,-1.57,-0.23,9.04,0.04,-0.08,-0.04
2887,-1.57,-0.23,9.04,0.04,-0.08,-0.03
2892,-1.57,-0.23,9.04,0.03,-0.09,-0.03
2897,0.15,-0.08,9.73,0.03,-0.09,-0.03
2902,0.15,-0.08,9.73,0.00,-0.13,-0.06
2906,0.15,-0.08,9.73,-0.01,-0.12,-0.05
2912,0.15,-0.08,9.73,0.01,-0.08,-0.05
2916,0.15,-0.08,9.73,0.02,0.01,-0.04
2922,0.15,-0.08,9.73,0.01,0.09,-0.03
2926,0.15,-0.08,9.73,0.02,0.11,-0.03
2932,-0.34,-0.08,9.00,0.02,0.11,-0.03
2936,-0.34,-0.08,9.00,-0.01,-0.02,-0.01
2941,-0.34,-0.08,9.00,-0.01,-0.09,-0.01
2947,0.65,-0.57,11.57,-0.01,-0.09,-0.01
2951,0.65,-0.57,11.57,0.00,-0.08,0.02
2956,0.65,-0.57,11.57,0.03,-0.00,0.04
2961,0.65,-0.57,11.57,0.04,0.08,0.04
2967,-2.49,0.73,8.39,0.04,0.08,0.04
2971,-2.49,0.73,8.39,0.04,0.13,0.04
2976,-2.49,0.73,8.39,0.02,0.10,0.02
2982,-2.22,0.30,7.55,0.02,0.10,0.02
2986,-2.22,0.30,7.55,-0.01,-0.05,-0.02
2991,-2.22,0.30,7.55,-0.02,-0.12,-0.01
2996,-2.22,0.30,7.55,-0.03,-0.16,-0.01
3002,-0.46,0.46,9.73,-0.03,-0.16,-0.01
3006,-0.46,0.46,9.73,-0.05,-0.15,-0.05
3011,-0.46,0.46,9.73,-0.06,-0.11,-0.08
3017,-2.53,0.27,9.96,-0.06,-0.11,-0.08
3021,-2.53,0.27,9.96,-0.06,0.02,-0.08
3026,-2.53,0.27,9.96,-0.06,0.03,-0.07
3031,-2.53,0.27,9.96,-0.06,-0.02,-0.07
3037,1.80,0.04,10.34,-0.06,-0.02,-0.07
3042,1.80,0.04,10.34,-0.06,-0.09,-0.03
3046,1.80,0.04,10.34,-0.04,-0.04,-0.03
3052,-1.07,0.57,9.58,-0.04,-0.04,-0.03
3056,-1.07,0.57,9.58,-0.04,0.12,-0.04
3061,-1.07,0.57,9.58,-0.03,0.17,-0.06
3066,-1.07,0.57,9.58,-0.03,0.18,-0.07
3072,-1.27,0.19,8.08,-0.03,0.18,-0.07
3076,-1.27,0.19,8.08,-0.08,-0.05,-0.06
3081,-1.27,0.19,8.08,-0.09,-0.21,-0.07
3087,1.61,-0.38,9.81,-0.09,-0.21,-0.07
3091,1.61,-0.38,9.81,-0.12,-0.29,-0.11
3096,1.61,-0.38,9.81,-0.12,-0.26,-0.12
3102,1.61,-0.38,9.81,-0.12,-0.20,-0.12
3106,1.61,-0.38,9.81,-0.08,-0.09,-0.11
3111,1.61,-0.38,9.81,-0.06,0.04,-0.11
3117,1.61,-0.38,9.81,-0.05,0.15,-0.12
3122,-2.49,-0.11,10.19,-0.05,0.15,-0.12
3126,-2.49,-0.11,10.19,-0.00,0.24,-0.14
3131,-2.49,-0.11,10.19,0.00,0.22,-0.10
3137,-0.11,-0.80,7.28,0.00,0.22,-0.10
3141,-0.11,-0.80,7.28,-0.00,0.03,-0.03
3146,-0.11,-0.80,7.28,-0.02,-0.08,-0.05
3151,-0.11,-0.80,7.28,-0.03,-0.16,-0.05
3157,1.49,-0.23,10.53,-0.03,-0.16,-0.05
3161,1.49,-0.23,10.53,-0.06,-0.20,-0.03
3166,1.49,-0.23,10.53,-0.05,-0.17,-0.03
3172,1.49,-0.23,10.53,-0.03,-0.10,-0.05
3176,1.49,-0.23,10.53,-0.02,-0.01,-0.03
3181,1.49,-0.23,10.53,-0.01,0.05,-0.01
3187,1.49,-0.23,10.53,-0.01,0.09,-0.00
3192,-0.04,0.27,9.30,-0.01,0.09,-0.00
3196,-0.04,0.27,9.30,-0.03,0.05,-0.01
3201,-0.04,0.27,9.30,-0.04,-0.01,-0.03
3207,0.69,-1.72,8.62,-0.04,-0.01,-0.03
3211,0.69,-1.72,8.62,-0.04,-0.04,-0.04
3216,0.69,-1.72,8.62,-0.02,-0.01,-0.03
3221,0.69,-1.72,8.62,-0.01,0.00,-0.01
3227,-1.53,-1.23,7.20,-0.01,0.00,-0.01
3231,-1.53,-1.23,7.20,0.01,0.00,-0.00
3237,-1.53,-1.23,7.20,0.00,-0.04,0.00
3242,0.61,-1.27,10.38,0.00,-0.04,0.00
3246,0.61,-1.27,10.38,-0.00,-0.12,0.01
3251,0.61,-1.27,10.38,0.00,-0.10,0.01
3256,0.61,-1.27,10.38,0.03,-0.04,0.03
3262,-0.96,-0.84,9.35,0.03,-0.04,0.03
3266,-0.96,-0.84,9.35,0.02,0.03,0.05
3272,-0.96,-0.84,9.35,0.03,0.02,0.05
3277,0.23,-1.27,9.27,0.03,0.02,0.05
3282,0.23,-1.27,9.27,0.03,-0.08,0.06
3286,0.23,-1.27,9.27,0.03,-0.12,0.06
3292,0.23,-1.27,9.27,0.02,-0.10,0.08
3296,0.23,-1.27,9.27,0.03,-0.05,0.07
3301,0.23,-1.27,9.27,0.03,-0.00,0.06
3307,0.23,-1.27,9.27,0.03,0.05,0.04
3312,0.23,-1.27,9.27,0.04,0.08,0.02
3316,0.23,-1.27,9.27,0.05,0.10,0.02
3321,0.23,-1.27,9.27,0.06,0.10,0.03
3326,-2.18,-0.42,10.27,0.06,0.10,0.03
3332,-1.91,-0.38,9.93,0.06,0.10,0.03
3336,-1.91,-0.38,9.93,0.05,0.00,0.03
3341,-1.91,-0.38,9.93,0.06,-0.01,0.02
3347,-1.61,0.11,8.01,0.06,-0.01,0.02
3351,-1.61,0.11,8.01,0.05,-0.08,0.05
3356,-1.61,0.11,8.01,0.03,-0.14,0.03
3362,0.42,-1.46,9.50,0.03,-0.14,0.03
3366,0.42,-1.46,9.50,0.02,-0.19,0.04
3371,0.42,-1.46,9.50,0.03,-0.14,0.03
3376,0.42,-1.46,9.50,0.06,-0.04,0.02
3382,-2.18,-1.65,8.92,0.06,-0.04,0.02
3386,-2.18,-1.65,8.92,0.07,0.07,0.04
3391,-2.18,-1.65,8.92,0.07,0.06,0.04
3397,-1.99,-1.38,8.73,0.07,0.06,0.04
3401,-1.99,-1.38,8.73,0.06,-0.04,0.07
3406,-1.99,-1.38,8.73,0.07,-0.10,0.08
3412,-1.99,-1.38,8.73,0.08,-0.11,0.11
3416,-1.99,-1.38,8.73,0.10,-0.05,0.13
3421,-1.99,-1.38,8.73,0.10,0.01,0.15
3427,-1.99,-1.38,8.73,0.12,0.03,0.18
3432,-1.99,-1.38,8.73,0.12,0.02,0.19
3436,-1.99,-1.38,8.73,0.12,0.00,0.20
3441,-1.99,-1.38,8.73,0.12,-0.05,0.23
3446,-1.99,-1.38,8.73,0.12,-0.11,0.25
3452,-0.73,-1.38,10.03,0.12,-0.11,0.25
3456,-0.73,-1.38,10.03,0.13,-0.07,0.27
3461,-0.73,-1.38,10.03,0.14,-0.04,0.28
3467,-1.07,-1.07,9.77,0.14,-0.04,0.28
3471,-1.07,-1.07,9.77,0.15,0.03,0.28
3476,-1.07,-1.07,9.77,0.14,0.08,0.27
3482,-1.07,-1.07,9.77,0.14,0.07,0.27
3486,-1.07,-1.07,9.77,0.13,-0.01,0.28
3491,-1.07,-1.07,9.77,0.12,-0.10,0.30
3496,-1.07,-1.07,9.77,0.12,-0.16,0.30
3502,1.07,-1.95,9.77,0.12,-0.16,0.30
3506,1.07,-1.95,9.77,0.12,-0.16,0.31
3511,1.07,-1.95,9.77,0.12,-0.12,0.30
3517,-1.38,-0.69,9.84,0.12,-0.12,0.30
3521,-1.38,-0.69,9.84,0.13,0.03,0.23
3526,-1.38,-0.69,9.84,0.12,0.07,0.21
3531,-1.38,-0.69,9.84,0.12,0.05,0.20
3537,1.68,-0.80,10.91,0.12,0.05,0.20
3541,1.68,-0.80,10.91,0.07,-0.09,0.16
3546,1.68,-0.80,10.91,0.06,-0.11,0.12
3552,1.68,-0.80,10.91,0.04,-0.07,0.08
3556,1.68,-0.80,10.91,0.05,-0.00,0.06
3561,1.68,-0.80,10.91,0.04,0.08,0.04
3566,1.68,-0.80,10.91,0.04,0.14,0.04
3572,1.68,-0.80,10.91,0.03,0.16,0.02
3576,1.68,-0.80,10.91,0.03,0.15,-0.01
3581,1.68,-0.80,10.91,0.02,0.13,-0.03
3586,-0.46,0.00,8.78,0.02,0.13,-0.03
3592,-0.11,0.73,7.43,0.02,0.13,-0.03
3596,-0.11,0.73,7.43,0.00,-0.01,-0.03
3601,-0.11,0.73,7.43,-0.01,-0.05,-0.01
3607,-0.04,2.11,9.30,-0.01,-0.05,-0.01
3611,-0.04,2.11,9.30,-0.03,-0.07,-0.04
3616,-0.04,2.11,9.30,-0.05,-0.08,-0.06
3622,1.07,0.27,11.26,-0.05,-0.08,-0.06
3626,1.07,0.27,11.26,-0.05,-0.02,-0.09
3631,1.07,0.27,11.26,-0.04,0.05,-0.09
3637,1.07,0.27,11.26,-0.04,0.12,-0.07
3641,1.07,0.27,11.26,-0.03,0.14,-0.06
3646,1.07,0.27,11.26,-0.04,0.13,-0.06
3651,1.07,0.27,11.26,-0.06,0.10,-0.06
3657,0.23,1.30,10.07,-0.06,0.10,-0.06
3661,0.23,1.30,10.07,-0.09,0.05,-0.11
3666,0.23,1.30,10.07,-0.08,0.07,-0.12
3672,0.23,1.30,10.07,-0.07,0.11,-0.11
3676,0.23,1.30,10.07,-0.06,0.12,-0.09
3681,0.23,1.30,10.07,-0.04,0.09,-0.08
3686,0.23,1.30,10.07,-0.05,0.05,-0.07
3692,0.23,1.30,10.07,-0.06,-0.00,-0.07
3696,0.23,1.30,10.07,-0.07,-0.05,-0.09
3701,0.23,1.30,10.07,-0.07,-0.04,-0.10
3706,0.23,1.30,10.07,-0.07,0.00,-0.10
3712,-0.88,-0.84,9.39,-0.07,0.00,-0.10
3716,-0.88,-0.84,9.39,-0.06,0.06,-0.09
3721,-0.88,-0.84,9.39,-0.05,0.05,-0.07
3727,-1.65,-0.96,9.50,-0.05,0.05,-0.07
3731,-1.65,-0.96,9.50,-0.05,0.05,-0.10
3736,-1.65,-0.96,9.50,-0.05,0.05,-0.09
3741,-1.65,-0.96,9.50,-0.05,0.06,-0.09
3746,-1.65,-0.96,9.50,-0.05,0.06,-0.09
3751,-1.65,-0.96,9.50,-0.04,0.06,-0.08
3756,-1.65,-0.96,9.50,-0.05,0.06,-0.08
3762,-1.49,-0.04,9.34,-0.05,0.06,-0.08
3766,-1.49,-0.04,9.34,-0.04,0.04,-0.08
3771,-1.49,-0.04,9.34,-0.03,0.06,-0.07
3776,-1.42,0.00,10.88,-0.03,0.06,-0.07
3781,-1.42,0.00,10.88,-0.02,0.06,-0.04
3786,-1.42,0.00,10.88,-0.02,0.03,-0.03
3792,-1.42,0.00,10.88,-0.04,-0.00,-0.04
3796,-1.42,0.00,10.88,-0.03,-0.00,-0.04
3801,-1.42,0.00,10.88,-0.04,0.03,-0.03
3806,-1.42,0.00,10.88,-0.05,0.05,-0.03
3811,-1.42,0.00,10.88,-0.07,0.01,-0.05
3816,-1.42,0.00,10.88,-0.08,-0.02,-0.06
3821,-1.42,0.00,10.88,-0.09,-0.01,-0.07
3826,-1.42,0.00,10.88,-0.10,0.03,-0.08
3832,-1.42,0.00,10.88,-0.09,0.03,-0.07
3836,-1.42,0.00,10.88,-0.10,0.01,-0.07
3842,-1.42,0.00,10.88,-0.10,0.01,-0.09
3846,-1.42,0.00,10.88,-0.11,0.00,-0.10
3851,-1.42,0.00,10.88,-0.11,-0.01,-0.11
3856,-1.42,0.00,10.88,-0.12,-0.03,-0.10
3862,-1.42,0.00,10.88,-0.11,-0.02,-0.11
3866,-1.42,0.00,10.88,-0.08,0.03,-0.10
3871,-1.42,0.00,10.88,-0.08,0.08,-0.09
3876,-1.42,0.00,10.88,-0.06,0.12,-0.06
3881,-0.61,0.19,9.93,-0.06,0.12,-0.06
3886,-0.61,0.19,9.93,-0.05,0.11,-0.08
3891,-0.61,0.19,9.93,-0.05,0.11,-0.08
3897,-0.61,0.19,9.93,-0.04,0.09,-0.06
3901,-0.61,0.19,9.93,-0.05,0.08,-0.04
3906,-0.61,0.19,9.93,-0.05,0.05,-0.04
3911,-0.61,0.19,9.93,-0.06,0.03,-0.05
3917,-1.68,0.69,8.58,-0.06,0.03,-0.05
3921,-1.68,0.69,8.58,-0.08,0.03,-0.10
3926,-1.68,0.69,8.58,-0.08,0.03,-0.10
3932,-1.68,0.69,8.58,-0.08,-0.01,-0.09
3936,-1.68,0.69,8.58,-0.08,-0.05,-0.06
3941,-1.68,0.69,8.58,-0.08,-0.07,-0.04
3946,-1.68,0.69,8.58,-0.08,-0.08,-0.05
3951,-1.68,0.69,8.58,-0.09,-0.08,-0.07
3956,-1.68,0.69,8.58,-0.09,-0.05,-0.10
3961,-1.68,0.69,8.58,-0.08,0.00,-0.10
3966,-1.68,0.69,8.58,-0.07,0.07,-0.10
3972,-0.30,-0.69,10.41,-0.07,0.07,-0.10
3976,-0.30,-0.69,10.41,-0.04,0.13,-0.07
3982,-0.30,-0.69,10.41,-0.04,0.11,-0.07
3986,-0.30,-0.69,10.41,-0.04,0.06,-0.08
3991,-0.30,-0.69,10.41,-0.04,0.02,-0.08
3996,-0.30,-0.69,10.41,-0.05,-0.01,-0.10
4002,-0.30,-0.69,10.41,-0.04,0.01,-0.11
4006,-0.30,-0.69,10.41,-0.03,0.05,-0.10
4011,-1.42,-1.34,9.77,-0.03,0.05,-0.10
4017,-1.42,-1.34,9.77,-0.01,0.17,-0.10
4021,-1.42,-1.34,9.77,-0.01,0.21,-0.11
4026,-1.42,-1.34,9.77,0.00,0.22,-0.12
4032,-1.42,-1.34,9.77,0.01,0.18,-0.11
4036,-1.42,-1.34,9.77,-0.01,0.11,-0.10
4041,0.04,-0.80,6.78,-0.01,0.11,-0.10
4046,0.04,-0.80,6.78,-0.03,-0.08,-0.10
4051,0.04,-0.80,6.78,-0.03,-0.14,-0.07
4056,0.04,-0.80,6.78,-0.03,-0.17,-0.06
4061,0.04,-0.80,6.78,-0.02,-0.16,-0.05
4066,0.04,-0.80,6.78,-0.01,-0.11,-0.03
4072,0.04,-0.80,6.78,0.00,-0.04,-0.01
4076,0.04,-0.80,6.78,0.02,0.04,-0.00
4081,-1.72,0.42,8.93,0.02,0.04,-0.00
4086,-1.72,0.42,8.93,0.03,0.16,-0.02
4091,-1.72,0.42,8.93,0.04,0.19,-0.02
4096,-1.72,0.42,8.93,0.02,0.17,0.01
4101,-1.72,0.42,8.93,0.01,0.12,0.02
4106,-1.72,0.42,8.93,-0.01,0.06,0.00
4111,-1.99,-1.38,9.84,-0.01,0.06,0.00
4116,-1.99,-1.38,9.84,-0.02,-0.04,-0.04
4122,-1.99,-1.38,9.84,-0.01,-0.06,-0.04
4127,-1.99,-1.38,9.84,-0.01,-0.06,-0.03
4131,-0.38,-1.07,8.62,-0.01,-0.06,-0.03
4136,-0.34,-0.54,8.81,-0.01,-0.06,-0.03
4142,-0.34,-0.54,8.81,-0.00,-0.10,-0.03
4146,-0.34,-1.30,8.62,-0.00,-0.10,-0.03
4151,-0.61,-0.69,8.62,-0.00,-0.10,-0.03
4157,-0.61,-0.69,8.62,0.02,-0.05,-0.04
4161,-0.61,-0.69,8.62,0.04,0.01,-0.04
4166,-1.72,-2.26,10.35,0.04,0.01,-0.04
4171,-1.72,-2.26,10.35,0.06,0.07,-0.03
4177,-0.30,-2.03,10.39,0.06,0.07,-0.03
4181,-1.11,-1.53,10.27,0.06,0.07,-0.03
4186,-0.69,-1.49,9.30,0.06,0.07,-0.03
4192,-0.69,-1.49,9.30,0.08,-0.04,0.01
4197,-0.69,-1.49,9.30,0.08,-0.03,0.03
4201,-0.73,-1.11,10.84,0.08,-0.03,0.03
4206,-1.07,-1.38,10.04,0.08,-0.03,0.03
4212,-1.07,-1.38,10.04,0.08,0.02,0.05
4217,-1.07,-1.38,10.04,0.10,0.02,0.06
4221,-0.57,-1.19,10.77,0.10,0.02,0.06
4226,-0.57,-1.46,10.19,0.10,0.02,0.06
4231,-0.57,-1.46,10.19,0.12,-0.02,0.11
4236,-0.57,-1.46,10.19,0.12,-0.01,0.12
4241,-0.57,-1.46,10.19,0.13,-0.02,0.12
4247,-0.57,-1.46,10.19,0.13,-0.02,0.12
4251,0.61,-1.34,9.65,0.13,-0.02,0.12
4256,1.30,-0.69,9.58,0.13,-0.02,0.12
4262,1.30,-0.69,9.58,0.11,-0.14,0.13
4267,1.30,-0.69,9.58,0.09,-0.15,0.12
4271,-1.53,-0.23,8.20,0.09,-0.15,0.12
4276,-1.68,-0.27,7.97,0.09,-0.15,0.12
4281,-1.68,-0.27,7.97,0.10,0.06,0.05
4286,-1.68,-0.27,7.97,0.08,0.07,0.05
4291,-1.68,-0.27,7.97,0.09,0.05,0.04
4297,-1.68,-0.27,7.97,0.06,-0.01,0.03
4301,0.88,-0.96,10.73,0.06,-0.01,0.03
4306,1.49,-0.96,10.88,0.06,-0.01,0.03
4312,1.49,-0.96,10.88,0.05,-0.12,0.00
4317,1.49,-0.96,10.88,0.05,-0.07,0.01
4321,0.57,-0.15,10.50,0.05,-0.07,0.01
4326,0.04,-0.15,10.84,0.05,-0.07,0.01
4332,0.04,-0.15,10.84,0.08,0.09,0.04
4337,0.04,-0.15,10.84,0.07,0.11,0.02
4341,-0.50,-0.19,10.46,0.07,0.11,0.02
4346,-0.92,-0.54,9.73,0.07,0.11,0.02
4352,-0.92,-0.54,9.73,0.09,0.06,0.05
4357,-0.92,-0.54,9.73,0.09,0.04,0.06
4361,-0.92,0.11,9.35,0.09,0.04,0.06
4366,-1.30,-0.11,9.20,0.09,0.04,0.06
4371,-1.30,-0.11,9.20,0.06,-0.01,0.00
4376,-1.30,-0.11,9.20,0.06,-0.02,0.00
4382,-1.30,-0.11,9.20,0.06,-0.04,0.03
4387,-1.30,-0.11,9.20,0.05,-0.06,0.05
4391,0.84,-0.04,8.85,0.05,-0.06,0.05
4396,0.38,-0.42,9.23,0.05,-0.06,0.05
4401,0.38,-0.42,9.23,0.05,-0.02,0.03
4406,-0.19,0.54,9.84,0.05,-0.02,0.03
4411,-1.04,-0.11,9.77,0.05,-0.02,0.03
4416,-1.04,-0.11,9.77,0.07,0.09,0.06
4421,-1.04,-0.11,9.77,0.08,0.09,0.06
4426,-0.96,0.46,9.61,0.08,0.09,0.06
4431,0.08,-0.15,9.80,0.08,0.09,0.06
4436,0.08,-0.15,9.80,0.07,0.04,0.08
4441,0.08,-0.15,9.80,0.06,-0.01,0.09
4446,0.08,-0.15,9.80,0.06,-0.04,0.09
4452,0.08,-0.15,9.80,0.06,-0.02,0.10
4456,0.08,-0.38,9.65,0.06,-0.02,0.10
4461,-1.34,-0.69,9.27,0.06,-0.02,0.10
4466,-1.34,-0.69,9.27,0.05,0.13,0.08
4472,-1.34,-0.69,9.27,0.05,0.19,0.07
4477,-1.34,-0.69,9.27,0.06,0.21,0.06
4481,-2.91,-1.04,8.77,0.06,0.21,0.06
4486,-2.38,-0.54,7.66,0.06,0.21,0.06
4491,-2.38,-0.54,7.66,0.02,0.00,0.04
4496,-2.38,-0.54,7.66,0.02,-0.12,0.06
4501,-2.38,-0.54,7.66,0.01,-0.19,0.07
4506,-2.38,-0.54,7.66,-0.00,-0.19,0.07
4511,0.19,0.38,11.72,-0.00,-0.19,0.07
4516,-0.46,-0.19,11.38,-0.00,-0.19,0.07
4521,-0.46,-0.19,11.38,0.01,0.00,0.09
4526,-0.69,-1.15,10.35,0.01,0.00,0.09
4531,-1.65,-0.08,9.77,0.01,0.00,0.09
4537,-1.65,-0.08,9.77,0.06,0.13,0.07
4541,-1.65,-0.08,9.77,0.06,0.16,0.09
4546,-1.38,1.11,9.31,0.06,0.16,0.09
4551,-1.23,2.26,9.80,0.06,0.16,0.09
4556,-1.23,2.26,9.80,0.02,0.11,0.11
4561,-0.84,0.42,10.65,0.02,0.11,0.11
4566,-1.57,-0.08,10.07,0.02,0.11,0.11
4571,-1.57,-0.08,10.07,-0.04,-0.03,0.00
4576,-1.57,-0.08,10.07,-0.06,-0.03,0.01
4581,-0.77,0.46,8.77,-0.06,-0.03,0.01
4586,-1.19,1.11,8.82,-0.06,-0.03,0.01
4591,-0.54,1.46,9.00,-0.06,-0.03,0.01
4596,0.73,1.07,9.20,-0.06,-0.03,0.01
4601,0.80,1.15,8.81,-0.06,-0.03,0.01
4606,0.80,1.15,8.81,-0.10,-0.06,-0.06
4612,0.80,1.15,8.81,-0.09,-0.01,-0.07
4616,0.80,1.15,8.81,-0.08,0.04,-0.07
4621,-1.38,0.54,8.35,-0.08,0.04,-0.07
4626,-1.88,0.00,8.04,-0.08,0.04,-0.07
4631,-1.27,0.04,8.01,-0.08,0.04,-0.07
4636,-1.27,0.04,8.01,-0.09,0.02,-0.11
4642,-1.27,0.04,8.01,-0.12,-0.06,-0.12
4646,1.61,-0.11,10.23,-0.12,-0.06,-0.12
4651,1.99,-0.84,10.84,-0.12,-0.06,-0.12
4657,1.99,-0.84,10.84,-0.13,-0.17,-0.12
4661,1.99,-0.84,10.84,-0.12,-0.13,-0.13
4666,-0.46,-1.27,11.26,-0.12,-0.13,-0.13
4671,-0.38,-0.08,11.49,-0.12,-0.13,-0.13
4677,-0.38,-0.08,11.49,-0.06,0.14,-0.10
4681,-0.34,-0.34,10.88,-0.06,0.14,-0.10
4686,-0.34,-0.34,10.88,-0.02,0.13,-0.05
4691,-0.73,0.04,8.78,-0.02,0.13,-0.05
4696,-0.73,0.04,8.78,-0.02,0.09,-0.06
4701,-0.73,0.04,8.78,-0.02,0.02,-0.05
4706,-0.73,0.04,8.78,-0.03,-0.07,-0.03
4712,-0.73,0.04,8.78,-0.04,-0.13,-0.02
4716,0.46,-0.19,8.32,-0.04,-0.13,-0.02
4721,0.46,-0.19,8.32,-0.08,-0.13,-0.07
4726,-1.11,-1.04,9.12,-0.08,-0.13,-0.07
4732,-1.88,-0.77,8.39,-0.08,-0.13,-0.07
4736,-0.15,-0.96,8.74,-0.08,-0.13,-0.07
4741,0.65,-0.96,9.08,-0.08,-0.13,-0.07
4746,1.11,-1.19,9.69,-0.08,-0.13,-0.07
4752,1.11,-1.19,9.69,-0.06,-0.10,-0.04
4756,2.61,-1.65,11.11,-0.06,-0.10,-0.04
4761,2.87,-1.19,11.64,-0.06,-0.10,-0.04
4766,0.73,-0.96,11.19,-0.06,-0.10,-0.04
4771,0.11,-0.80,10.57,-0.06,-0.10,-0.04
4776,-0.50,-0.69,9.88,-0.06,-0.10,-0.04
4782,-0.50,-0.69,9.88,0.04,0.19,0.12
4786,-2.30,-0.69,8.77,0.04,0.19,0.12
4791,-2.07,-1.30,9.20,0.04,0.19,0.12
4796,-1.91,-0.46,8.96,0.04,0.19,0.12
4801,-1.19,-1.07,8.46,0.04,0.19,0.12
4806,-1.00,-1.04,8.16,0.04,0.19,0.12
4812,-1.00,-1.04,8.16,0.03,-0.08,0.17
4816,-1.00,-1.04,8.16,0.01,-0.15,0.20
4821,-2.11,-0.34,8.74,0.01,-0.15,0.20
4826,-1.65,-0.04,8.93,0.01,-0.15,0.20
4832,-1.19,-0.15,8.85,0.01,-0.15,0.20
4836,-0.80,-1.42,9.23,0.01,-0.15,0.20
4841,0.30,-2.14,9.65,0.01,-0.15,0.20
4846,0.96,-1.15,8.54,0.01,-0.15,0.20
4851,1.04,-1.27,8.82,0.01,-0.15,0.20
4856,1.30,-1.27,9.96,0.01,-0.15,0.20
4861,0.30,-0.73,9.73,0.01,-0.15,0.20
4866,-0.54,-0.42,9.43,0.01,-0.15,0.20
4871,-2.87,-0.46,10.27,0.01,-0.15,0.20
4876,-3.98,-0.42,9.69,0.01,-0.15,0.20
4881,-4.10,-0.11,10.15,0.01,-0.15,0.20
4887,-4.10,-0.11,10.15,0.03,0.24,0.14
4891,-1.30,-0.61,10.57,0.03,0.24,0.14
4896,-0.30,-0.65,10.34,0.03,0.24,0.14
4902,-0.69,-0.80,10.07,0.03,0.24,0.14
4906,0.23,-0.84,9.04,0.03,0.24,0.14
4911,-0.50,-0.38,9.61,0.03,0.24,0.14
4916,-0.96,-0.50,9.85,0.03,0.24,0.14
4921,-0.96,-0.50,9.85,-0.04,-0.03,0.05
4826,-1.65,-0.04,8.93,0.01,-0.15,0.20
4832,-1.19,-0.15,8.85,0.01,-0.15,0.20
4836,-0.80,-1.42,9.23,0.01,-0.15,0.20
4841,0.30,-2.14,9.65,0.01,-0.15,0.20
4846,0.96,-1.15,8.54,0.01,-0.15,0.20
4851,1.04,-1.27,8.82,0.01,-0.15,0.20
4856,1.30,-1.27,9.96,0.01,-0.15,0.20
4861,0.30,-0.73,9.73,0.01,-0.15,0.20
4866,-0.54,-0.42,9.43,0.01,-0.15,0.20
4871,-2.87,-0.46,10.27,0.01,-0.15,0.20
4876,-3.98,-0.42,9.69,0.01,-0.15,0.20
4881,-4.10,-0.11,10.15,0.01,-0.15,0.20
4887,-4.10,-0.11,10.15,0.03,0.24,0.14
4891,-1.30,-0.61,10.57,0.03,0.24,0.14
4896,-0.30,-0.65,10.34,0.03,0.24,0.14
4902,-0.69,-0.80,10.07,0.03,0.24,0.14
