timestamp,accX,accY,accZ,gyroX,gyroY,gyroZ
Right
6,2.34,-2.11,14.09,0.10,0.42,0.02
18,-2.91,1.65,8.01,0.10,0.42,0.02
20,-2.91,1.65,8.01,-0.17,0.29,-0.11
21,-1.42,1.68,7.39,-0.17,0.29,-0.11
26,-1.42,1.68,7.39,-0.15,0.36,-0.08
31,0.34,1.00,7.27,-0.15,0.36,-0.08
36,0.34,1.00,7.27,-0.18,0.25,-0.10
42,0.73,-0.84,4.48,-0.18,0.25,-0.10
46,0.73,-0.84,4.48,-0.20,0.00,-0.10
51,0.73,-0.84,4.48,-0.22,-0.06,-0.07
56,0.73,-0.84,4.48,-0.21,-0.09,-0.04
62,-3.37,-0.34,10.42,-0.21,-0.09,-0.04
66,-3.37,-0.34,10.42,-0.19,-0.06,0.00
71,-3.37,-0.34,10.42,-0.21,-0.04,-0.02
77,1.38,0.08,13.10,-0.21,-0.04,-0.02
81,1.38,0.08,13.10,-0.19,-0.05,-0.08
86,1.38,0.08,13.10,-0.21,-0.06,-0.12
92,1.38,0.08,13.10,-0.21,-0.04,-0.13
96,1.38,0.08,13.10,-0.19,0.01,-0.11
101,1.38,0.08,13.10,-0.19,0.11,-0.08
106,1.38,0.08,13.10,-0.17,0.19,-0.04
112,-2.87,0.57,11.49,-0.17,0.19,-0.04
116,-2.87,0.57,11.49,-0.17,0.29,-0.04
121,-2.87,0.57,11.49,-0.19,0.27,-0.11
127,0.50,1.04,9.92,-0.19,0.27,-0.11
131,0.50,1.04,9.92,-0.23,0.13,-0.20
136,0.50,1.04,9.92,-0.23,0.03,-0.19
141,0.50,1.04,9.92,-0.23,-0.06,-0.13
147,-0.34,-2.22,7.27,-0.23,-0.06,-0.13
151,-0.34,-2.22,7.27,-0.24,-0.11,-0.07
156,-0.34,-2.22,7.27,-0.23,-0.10,-0.08
162,0.34,-0.27,9.92,-0.23,-0.10,-0.08
166,0.34,-0.27,9.92,-0.25,-0.04,-0.17
171,0.34,-0.27,9.92,-0.26,0.01,-0.24
176,0.34,-0.27,9.92,-0.23,0.04,-0.28
182,0.77,0.08,9.58,-0.23,0.04,-0.28
186,0.77,0.08,9.58,-0.22,0.10,-0.23
191,0.77,0.08,9.58,-0.24,0.10,-0.23
197,1.42,0.73,10.15,-0.24,0.10,-0.23
201,1.42,0.73,10.15,-0.28,0.06,-0.30
206,1.42,0.73,10.15,-0.29,0.04,-0.33
211,1.42,0.73,10.15,-0.29,0.03,-0.34
217,1.07,-0.11,10.69,-0.29,0.03,-0.34
221,1.07,-0.11,10.69,-0.29,-0.00,-0.34
226,1.07,-0.11,10.69,-0.30,0.01,-0.36
232,0.54,1.99,8.82,-0.30,0.01,-0.36
236,0.54,1.99,8.82,-0.37,0.11,-0.44
241,0.54,1.99,8.82,-0.38,0.12,-0.46
246,0.54,1.99,8.82,-0.40,0.11,-0.50
251,-2.41,-2.49,9.50,-0.40,0.11,-0.50
256,-2.41,-2.49,9.50,-0.31,0.05,-0.39
261,-2.41,-2.49,9.50,-0.30,0.01,-0.36
267,0.92,-0.15,10.19,-0.30,0.01,-0.36
271,0.92,-0.15,10.19,-0.32,0.03,-0.53
276,0.92,-0.15,10.19,-0.29,0.03,-0.53
282,0.92,-0.15,10.19,-0.33,0.09,-0.53
286,0.92,-0.15,10.19,-0.36,0.12,-0.49
291,0.92,-0.15,10.19,-0.34,0.11,-0.44
296,0.92,-0.15,10.19,-0.34,0.10,-0.46
302,1.42,0.54,11.53,-0.34,0.10,-0.46
306,1.42,0.54,11.53,-0.33,0.01,-0.54
311,1.42,0.54,11.53,-0.31,0.01,-0.61
316,0.27,-0.11,11.45,-0.31,0.01,-0.61
321,-2.30,0.11,11.15,-0.31,0.01,-0.61
326,-2.03,0.84,10.38,-0.31,0.01,-0.61
331,-2.03,0.84,10.38,-0.27,0.18,-0.56
337,-0.65,2.61,8.74,-0.27,0.18,-0.56
341,-0.65,2.61,8.74,-0.31,0.18,-0.62
346,-0.65,2.61,8.74,-0.34,0.16,-0.70
352,-1.04,1.27,8.23,-0.34,0.16,-0.70
356,-1.04,1.27,8.23,-0.34,0.12,-0.76
361,-1.04,1.27,8.23,-0.33,0.12,-0.74
366,-1.04,1.27,8.23,-0.30,0.10,-0.70
371,-1.99,0.46,8.54,-0.30,0.10,-0.70
376,-1.99,0.46,8.54,-0.28,0.05,-0.75
381,-1.99,0.46,8.54,-0.28,0.00,-0.76
387,1.72,0.92,11.38,-0.28,0.00,-0.76
391,1.72,0.92,11.38,-0.23,-0.04,-0.78
396,1.72,0.92,11.38,-0.23,0.01,-0.81
401,1.72,0.92,11.38,-0.19,0.07,-0.85
407,0.96,-0.88,12.34,-0.19,0.07,-0.85
411,0.96,-0.88,12.34,-0.19,0.26,-0.89
416,0.96,-0.88,12.34,-0.19,0.34,-0.91
422,0.96,-0.88,12.34,-0.18,0.40,-0.90
426,0.96,-0.88,12.34,-0.20,0.43,-0.88
431,0.96,-0.88,12.34,-0.23,0.42,-0.84
436,0.96,-0.88,12.34,-0.24,0.38,-0.83
442,-0.38,0.96,8.04,-0.24,0.38,-0.83
446,-0.38,0.96,8.04,-0.22,0.18,-0.79
451,-0.38,0.96,8.04,-0.19,0.06,-0.72
457,-0.11,-2.91,7.20,-0.19,0.06,-0.72
461,-0.11,-2.91,7.20,-0.11,-0.14,-0.51
466,-0.11,-2.91,7.20,-0.09,-0.21,-0.42
471,-0.11,-2.91,7.20,-0.06,-0.25,-0.38
477,5.13,-1.88,13.10,-0.06,-0.25,-0.38
481,5.13,-1.88,13.10,0.01,-0.25,-0.37
486,5.13,-1.88,13.10,0.05,-0.15,-0.42
491,1.88,-1.72,11.49,0.05,-0.15,-0.42
496,1.88,-1.72,11.49,0.04,0.15,-0.45
501,1.88,-1.72,11.49,0.03,0.30,-0.41
507,-2.38,-1.72,7.62,0.03,0.30,-0.41
511,-2.38,-1.72,7.62,0.01,0.40,-0.34
516,-2.38,-1.72,7.62,-0.03,0.36,-0.34
521,-2.38,-1.72,7.62,-0.03,0.27,-0.37
527,0.30,-1.30,10.00,-0.03,0.27,-0.37
531,0.30,-1.30,10.00,0.00,0.07,-0.39
536,0.30,-1.30,10.00,0.02,0.01,-0.36
542,0.30,-1.30,10.00,0.07,-0.02,-0.29
546,0.30,-1.30,10.00,0.12,-0.02,-0.22
551,0.30,-1.30,10.00,0.14,-0.02,-0.17
556,0.30,-1.30,10.00,0.16,-0.03,-0.12
562,0.30,-1.30,10.00,0.15,-0.04,-0.09
566,0.30,-1.30,10.00,0.14,-0.04,-0.09
571,0.30,-1.30,10.00,0.11,-0.00,-0.11
577,0.42,-1.95,10.15,0.11,-0.00,-0.11
581,0.42,-1.95,10.15,0.13,0.15,-0.16
586,0.42,-1.95,10.15,0.15,0.21,-0.13
591,0.42,-1.95,10.15,0.18,0.26,-0.07
597,-2.22,-1.53,11.30,0.18,0.26,-0.07
601,-2.22,-1.53,11.30,0.20,0.27,-0.02
606,-2.22,-1.53,11.30,0.21,0.24,-0.02
612,-1.61,-1.15,10.19,0.21,0.24,-0.02
616,-1.61,-1.15,10.19,0.16,0.14,-0.05
621,-1.61,-1.15,10.19,0.15,0.05,-0.02
627,-1.61,-1.15,10.19,0.15,-0.03,-0.00
631,-1.61,-1.15,10.19,0.14,-0.06,-0.01
636,-1.61,-1.15,10.19,0.11,-0.05,-0.04
641,-1.61,-1.15,10.19,0.08,-0.01,-0.05
647,-3.41,-0.11,5.90,0.08,-0.01,-0.05
651,-3.41,-0.11,5.90,0.04,0.06,-0.03
656,-3.41,-0.11,5.90,0.04,0.03,-0.02
662,-3.41,-0.11,5.90,0.04,-0.03,-0.04
666,-3.41,-0.11,5.90,0.07,-0.09,-0.11
671,-3.41,-0.11,5.90,0.08,-0.12,-0.17
676,-3.41,-0.11,5.90,0.09,-0.07,-0.23
681,-3.41,-0.11,5.90,0.09,0.03,-0.25
686,-3.41,-0.11,5.90,0.08,0.14,-0.21
691,-3.41,-0.11,5.90,0.05,0.22,-0.16
696,-3.41,-0.11,5.90,-0.01,0.24,-0.14
701,-0.04,2.26,8.39,-0.01,0.24,-0.14
706,-0.04,2.26,8.39,-0.06,0.08,-0.24
711,-0.04,2.26,8.39,-0.10,-0.04,-0.34
717,0.00,-0.80,8.23,-0.10,-0.04,-0.34
721,0.00,-0.80,8.23,-0.06,-0.12,-0.44
726,0.00,-0.80,8.23,-0.03,-0.08,-0.37
731,-2.34,0.65,5.98,-0.03,-0.08,-0.37
736,-2.34,0.65,5.98,-0.01,0.07,-0.17
741,-2.34,0.65,5.98,-0.07,0.09,-0.13
746,-2.34,0.65,5.98,-0.10,0.06,-0.16
751,-4.33,2.87,0.57,-0.10,0.06,-0.16
756,-4.33,2.87,0.57,-0.17,-0.13,-0.12
761,-4.33,2.87,0.57,-0.23,-0.33,-0.01
766,14.33,-0.77,20.88,-0.23,-0.33,-0.01
771,14.33,-0.77,20.88,-0.12,-0.82,0.06
776,14.33,-0.77,20.88,-0.08,-0.81,-0.10
781,14.33,-0.77,20.88,0.14,-0.60,-0.30
786,14.33,-0.77,20.88,0.24,-0.00,-0.47
791,14.33,-0.77,20.88,0.15,0.60,-0.54
796,14.33,-0.77,20.88,0.21,0.90,-0.55
801,14.33,-0.77,20.88,0.04,0.99,-0.46
805,-2.68,4.63,1.88,0.04,0.99,-0.46
811,-2.68,4.63,1.88,-0.16,0.90,-0.38
817,-2.68,4.63,1.88,-0.46,0.35,-0.59
821,-2.68,4.63,1.88,-0.39,0.08,-0.81
826,-0.42,-6.02,14.21,-0.39,0.08,-0.81
831,-0.42,-6.02,14.21,-0.05,-0.16,-0.94
836,2.91,-7.43,21.04,-0.05,-0.16,-0.94
841,2.91,-7.43,21.04,0.21,-0.12,-0.49
846,2.91,-7.43,21.04,0.27,-0.12,-0.30
851,2.91,-7.43,21.04,0.22,-0.10,-0.32
856,2.91,-7.43,21.04,0.16,-0.05,-0.52
861,2.91,-7.43,21.04,0.03,0.05,-0.76
866,2.91,-7.43,21.04,-0.04,0.20,-0.93
871,-11.22,0.65,0.80,-0.04,0.20,-0.93
876,-11.22,0.65,0.80,-0.14,0.53,-0.81
881,-11.22,0.65,0.80,-0.18,0.53,-0.58
886,-11.22,0.65,0.80,-0.20,0.39,-0.39
891,-11.22,0.65,0.80,-0.20,0.17,-0.32
896,-11.22,0.65,0.80,-0.13,-0.12,-0.39
901,-11.22,0.65,0.80,-0.09,-0.35,-0.48
906,3.29,-3.68,11.11,-0.09,-0.35,-0.48
911,3.29,-3.68,11.11,0.08,-0.42,-0.39
916,3.29,-3.68,11.11,0.22,-0.26,-0.21
921,3.29,-3.68,11.11,0.24,-0.09,0.00
926,3.29,-3.68,11.11,0.20,0.03,0.21
931,3.29,-3.68,11.11,0.13,0.10,0.31
936,3.29,-3.68,11.11,0.04,0.06,0.28
941,3.29,-3.68,11.11,-0.01,-0.00,0.14
946,3.29,-3.68,11.11,-0.05,-0.08,-0.02
951,3.29,-3.68,11.11,-0.02,-0.20,-0.10
956,3.29,-3.68,11.11,0.02,-0.30,-0.08
961,9.84,-7.70,10.31,0.02,-0.30,-0.08
966,9.84,-7.70,10.31,0.30,-0.08,0.05
971,9.84,-7.70,10.31,0.27,0.60,0.05
976,-15.48,-3.71,12.87,0.27,0.60,0.05
981,-15.48,-3.71,12.87,0.37,1.22,-0.03
986,-15.48,-3.71,12.87,0.32,1.29,0.02
991,-11.19,2.76,11.34,0.32,1.29,0.02
996,-11.19,2.76,11.34,0.27,0.90,0.33
1001,-11.19,2.76,11.34,0.20,0.39,0.47
1006,-11.19,2.76,11.34,0.08,-0.24,0.54
1012,7.39,-3.83,5.98,0.08,-0.24,0.54
1016,7.39,-3.83,5.98,0.04,-0.93,0.24
1021,7.39,-3.83,5.98,0.03,-1.03,0.16
1026,4.29,-5.13,8.42,0.03,-1.03,0.16
1031,4.29,-5.13,8.42,0.08,-0.74,0.23
1036,4.29,-5.13,8.42,0.04,-0.37,0.27
1041,4.29,-5.13,8.42,0.04,0.04,0.26
1046,4.29,-5.13,8.42,-0.03,0.37,0.21
1051,4.29,-5.13,8.42,-0.09,0.67,0.12
1056,4.29,-5.13,8.42,-0.09,0.88,0.04
1061,4.29,-5.13,8.42,-0.06,0.92,0.04
1066,4.29,-5.13,8.42,0.02,0.64,0.21
1071,4.29,-5.13,8.42,0.01,0.20,0.37
1076,4.29,-5.13,8.42,0.04,-0.29,0.43
1081,13.87,-5.13,14.02,0.04,-0.29,0.43
1086,13.87,-5.13,14.02,-0.06,-0.88,0.19
1091,13.87,-5.13,14.02,-0.11,-0.88,-0.01
1096,0.15,-2.38,9.65,-0.11,-0.88,-0.01
1101,0.15,-2.38,9.65,-0.20,-0.49,-0.20
1106,0.15,-2.38,9.65,-0.31,-0.25,-0.19
1111,0.15,-2.38,9.65,-0.39,-0.04,-0.18
1116,0.15,-2.38,9.65,-0.46,0.09,-0.26
1121,0.15,-2.38,9.65,-0.48,0.13,-0.41
1126,0.15,-2.38,9.65,-0.47,0.16,-0.58
1131,0.15,-2.38,9.65,-0.40,0.19,-0.68
1135,2.26,-4.98,8.12,-0.40,0.19,-0.68
1141,2.26,-4.98,8.12,-0.23,0.13,-0.47
1146,2.26,-4.98,8.12,-0.20,0.05,-0.30
1151,2.26,-4.98,8.12,-0.18,-0.01,-0.21
1155,1.84,2.38,9.12,-0.18,-0.01,-0.21
1161,1.84,2.38,9.12,-0.21,0.03,-0.34
1166,-3.33,2.18,8.96,-0.21,0.03,-0.34
1171,-3.33,2.18,8.96,-0.26,0.20,-0.52
1176,-3.33,2.18,8.96,-0.30,0.21,-0.50
1181,-3.33,2.18,8.96,-0.29,0.17,-0.45
1186,-3.33,2.18,8.96,-0.30,0.08,-0.44
1191,-3.33,2.18,8.96,-0.31,-0.03,-0.47
1196,-3.33,2.18,8.96,-0.33,-0.11,-0.54
1201,-3.33,2.18,8.96,-0.32,-0.15,-0.61
1206,-3.33,2.18,8.96,-0.31,-0.15,-0.66
1211,-3.33,2.18,8.96,-0.27,-0.09,-0.65
1216,-3.33,2.18,8.96,-0.21,0.01,-0.60
1221,-1.00,-0.30,9.65,-0.21,0.01,-0.60
1226,-1.00,-0.30,9.65,-0.24,0.22,-0.58
1231,-2.07,0.23,8.39,-0.24,0.22,-0.58
1236,-2.07,0.23,8.39,-0.25,0.30,-0.73
1241,-2.07,0.23,8.39,-0.26,0.31,-0.78
1246,-2.07,0.23,8.39,-0.24,0.26,-0.76
1252,-2.07,0.23,8.39,-0.23,0.19,-0.70
1256,0.61,-0.57,8.96,-0.23,0.19,-0.70
1261,1.57,-0.04,8.28,-0.23,0.19,-0.70
1266,1.57,-0.04,8.28,-0.26,-0.04,-0.70
1271,1.57,-0.04,8.28,-0.29,-0.05,-0.76
1275,-1.68,-0.73,9.88,-0.29,-0.05,-0.76
1281,-1.68,-0.73,9.88,-0.27,0.02,-0.74
1287,-0.46,0.11,11.22,-0.27,0.02,-0.74
1291,-0.46,0.11,11.22,-0.23,0.07,-0.61
1296,1.84,0.57,14.82,-0.23,0.07,-0.61
1301,1.46,0.69,12.91,-0.23,0.07,-0.61
1306,1.46,0.69,12.91,-0.16,0.20,-0.67
1311,1.46,0.69,12.91,-0.17,0.29,-0.63
1316,1.46,0.69,12.91,-0.17,0.34,-0.57
1322,1.46,0.69,12.91,-0.18,0.32,-0.48
1326,0.19,-0.34,7.16,-0.18,0.32,-0.48
1330,0.92,0.08,8.96,-0.18,0.32,-0.48
1336,0.92,0.08,8.96,-0.19,0.06,-0.42
1342,0.92,0.08,8.96,-0.18,0.03,-0.39
1346,0.92,0.08,8.96,-0.17,0.06,-0.39
1351,0.30,-1.19,11.11,-0.17,0.06,-0.39
1356,0.30,-1.19,11.11,-0.11,0.09,-0.38
1361,0.30,-1.19,11.11,-0.14,0.14,-0.40
1365,0.30,-1.19,11.11,-0.12,0.13,-0.39
1371,0.30,-1.19,11.11,-0.11,0.08,-0.35
1377,-2.57,-1.95,8.39,-0.11,0.08,-0.35
1381,1.34,-0.65,7.77,-0.11,0.08,-0.35
1386,1.11,-0.80,8.74,-0.11,0.08,-0.35
1391,1.11,-0.80,8.74,-0.20,-0.02,-0.43
1396,0.04,-0.77,8.01,-0.20,-0.02,-0.43
1401,-1.38,-0.96,8.39,-0.20,-0.02,-0.43
1406,-1.95,-0.11,8.88,-0.20,-0.02,-0.43
1411,-1.95,-0.11,8.88,-0.18,0.17,-0.50
1416,-1.95,-0.11,8.88,-0.16,0.18,-0.44
1421,-1.95,-0.11,8.88,-0.16,0.15,-0.40
1426,-1.95,-0.11,8.88,-0.19,0.08,-0.39
1431,0.96,-0.73,8.96,-0.19,0.08,-0.39
1435,2.14,-1.30,11.76,-0.19,0.08,-0.39
1441,2.14,-1.30,11.76,-0.18,-0.13,-0.36
1447,2.14,-1.30,11.76,-0.15,-0.21,-0.35
1451,5.55,-2.03,17.24,-0.15,-0.21,-0.35
1455,5.13,-1.91,16.82,-0.15,-0.21,-0.35
1461,5.13,-1.91,16.82,-0.09,0.00,-0.59
1466,5.13,-1.91,16.82,-0.08,0.20,-0.67
1471,3.18,-1.72,17.39,-0.08,0.20,-0.67
1476,5.75,-1.11,18.58,-0.08,0.20,-0.67
1481,5.75,-1.11,18.58,-0.05,0.67,-0.72
1486,5.75,-1.11,18.58,-0.09,0.75,-0.81
1491,5.75,-1.11,18.58,-0.14,0.85,-0.96
1496,5.75,-1.11,18.58,-0.14,0.91,-1.04
1501,-13.03,-0.92,-2.07,-0.14,0.91,-1.04
1506,-10.15,-1.19,-1.27,-0.14,0.91,-1.04
1511,-10.15,-1.19,-1.27,-0.16,0.79,-0.71
1516,-3.68,1.84,4.71,-0.16,0.79,-0.71
1520,-0.30,0.77,7.43,-0.16,0.79,-0.71
1526,-0.30,0.77,7.43,-0.17,-0.00,-0.35
1531,-0.30,0.77,7.43,-0.15,-0.31,-0.41
1536,0.84,-3.26,12.76,-0.15,-0.31,-0.41
1541,-1.91,-3.10,10.84,-0.15,-0.31,-0.41
1546,-1.91,-3.10,10.84,0.02,-0.54,-0.33
1551,-0.38,1.19,11.60,0.02,-0.54,-0.33
1555,-2.72,2.61,8.50,0.02,-0.54,-0.33
1561,-2.72,2.61,8.50,-0.06,-0.13,0.03
1566,-2.72,2.61,8.50,-0.16,-0.02,-0.05
1571,0.92,1.91,8.58,-0.16,-0.02,-0.05
1575,1.57,0.50,11.45,-0.16,-0.02,-0.05
1582,1.57,0.50,11.45,-0.23,0.10,-0.45
1586,0.80,-4.33,9.54,-0.23,0.10,-0.45
1590,0.77,-4.10,10.73,-0.23,0.10,-0.45
1596,0.77,-4.10,10.73,-0.10,0.25,-0.36
1602,0.77,-4.10,10.73,-0.09,0.31,-0.32
1606,-0.04,-1.15,9.23,-0.09,0.31,-0.32
1611,0.38,-1.80,9.31,-0.09,0.31,-0.32
1615,1.91,-2.22,9.93,-0.09,0.31,-0.32
1621,1.91,-2.22,9.93,-0.09,0.26,-0.37
1626,1.91,-2.22,9.93,-0.07,0.19,-0.39
1631,0.92,-2.26,10.19,-0.07,0.19,-0.39
1636,1.46,-2.53,10.50,-0.07,0.19,-0.39
1640,1.07,-1.04,9.93,-0.07,0.19,-0.39
1647,1.07,-1.04,9.93,-0.07,0.20,-0.49
1651,1.07,-1.04,9.93,-0.11,0.31,-0.51
1656,-5.52,1.57,11.64,-0.11,0.31,-0.51
1660,-6.89,2.53,11.38,-0.11,0.31,-0.51
1666,-6.89,2.53,11.38,-0.11,0.61,-0.45
1671,-6.89,2.53,11.38,-0.10,0.62,-0.43
1676,-4.56,3.03,6.47,-0.10,0.62,-0.43
1681,-4.10,0.42,4.98,-0.10,0.62,-0.43
1685,-1.91,-1.42,5.55,-0.10,0.62,-0.43
1691,-1.91,-1.42,5.55,-0.16,-0.10,-0.27
1696,-1.91,-1.42,5.55,-0.14,-0.33,-0.15
1702,-1.91,-1.42,5.55,-0.15,-0.58,-0.03
1706,9.35,0.42,11.19,-0.15,-0.58,-0.03
1710,7.47,-0.11,12.48,-0.15,-0.58,-0.03
1716,7.47,-0.11,12.48,-0.21,-0.77,-0.25
1721,7.47,-0.11,12.48,-0.24,-0.60,-0.40
1726,7.47,-0.11,12.48,-0.22,-0.35,-0.48
1731,0.65,-1.76,10.30,-0.22,-0.35,-0.48
1736,-1.04,-1.19,9.89,-0.22,-0.35,-0.48
1741,0.15,0.27,10.39,-0.22,-0.35,-0.48
1745,1.46,-0.04,10.91,-0.22,-0.35,-0.48
1751,1.46,-0.04,10.91,-0.31,0.51,-0.84
1756,1.46,-0.04,10.91,-0.32,0.43,-0.96
1761,1.46,-0.04,10.91,-0.37,0.33,-1.10
1766,1.46,-0.04,10.91,-0.34,0.25,-1.15
1771,0.46,-3.68,9.20,-0.34,0.25,-1.15
1776,0.46,-3.68,9.20,-0.31,0.09,-1.10
1781,1.80,0.69,8.08,-0.31,0.09,-1.10
1786,-0.30,2.26,8.62,-0.31,0.09,-1.10
1791,-0.30,2.26,8.62,-0.29,0.05,-1.15
1796,-0.30,2.26,8.62,-0.33,0.10,-1.21
1802,-0.30,2.26,8.62,-0.33,0.16,-1.25
1806,-0.30,2.26,8.62,-0.31,0.22,-1.24
1811,0.42,2.57,11.98,-0.31,0.22,-1.24
1816,0.04,3.29,11.80,-0.31,0.22,-1.24
1821,-0.54,2.64,13.02,-0.31,0.22,-1.24
1826,0.04,2.22,12.18,-0.31,0.22,-1.24
1830,-0.92,1.91,11.72,-0.31,0.22,-1.24
1836,-0.92,1.91,11.72,-0.16,0.40,-0.99
1842,-0.92,1.91,11.72,-0.13,0.39,-0.96
1846,-2.18,1.84,9.38,-0.13,0.39,-0.96
1851,-2.18,1.84,9.38,-0.15,0.28,-0.84
1855,-2.18,1.84,9.38,-0.21,0.26,-0.84
1861,-3.41,0.88,7.55,-0.21,0.26,-0.84
1866,-3.41,0.88,7.55,-0.23,0.21,-0.82
1871,-3.41,0.88,7.55,-0.23,0.15,-0.78
1876,-3.41,0.88,7.55,-0.21,0.07,-0.74
1881,4.29,-3.26,14.79,-0.21,0.07,-0.74
1886,4.33,-3.71,14.75,-0.21,0.07,-0.74
1891,3.41,-3.79,14.82,-0.21,0.07,-0.74
1896,1.46,-4.94,10.80,-0.21,0.07,-0.74
1901,-0.08,-4.90,10.15,-0.21,0.07,-0.74
1906,-1.57,-3.07,7.73,-0.21,0.07,-0.74
1911,-1.57,-3.07,7.73,-0.04,0.35,-0.70
1916,-1.57,-3.07,7.73,-0.07,0.43,-0.66
1921,-0.77,0.57,10.35,-0.07,0.43,-0.66
1926,-0.65,-0.96,11.15,-0.07,0.43,-0.66
1931,0.84,-3.22,12.61,-0.07,0.43,-0.66
1936,0.69,-3.98,12.76,-0.07,0.43,-0.66
1941,-1.07,-4.37,11.72,-0.07,0.43,-0.66
1946,-1.07,-4.37,11.72,0.01,0.33,-0.73
1951,1.23,-2.99,10.54,0.01,0.33,-0.73
1955,0.77,-1.23,10.15,0.01,0.33,-0.73
1960,0.77,-1.23,10.15,0.09,0.28,-0.46
1966,-0.27,0.34,8.78,0.09,0.28,-0.46
1971,0.04,-0.08,8.42,0.09,0.28,-0.46
1976,0.04,-0.08,8.42,0.06,0.26,-0.42
1982,0.04,-0.08,8.42,0.03,0.30,-0.38
1986,0.04,-0.08,8.42,0.06,0.32,-0.32
1990,1.95,-1.30,9.77,0.06,0.32,-0.32
1996,1.95,-1.30,9.77,0.03,0.30,-0.35
2001,1.95,-1.30,9.77,0.04,0.26,-0.36
2006,0.42,-1.65,10.41,0.04,0.26,-0.36
2011,-1.23,-2.30,10.11,0.04,0.26,-0.36
2016,0.34,-2.57,10.03,0.04,0.26,-0.36
2021,-0.73,-2.11,9.42,0.04,0.26,-0.36
2026,-0.15,-2.11,9.96,0.04,0.26,-0.36
2031,-0.15,-2.11,9.96,0.08,0.29,-0.34
2036,-1.00,-1.15,10.50,0.08,0.29,-0.34
2041,-0.61,-1.38,10.77,0.08,0.29,-0.34
2046,-0.65,-1.84,10.27,0.08,0.29,-0.34
2051,-0.34,-1.34,9.42,0.08,0.29,-0.34
2055,-0.34,-1.34,9.42,0.05,0.24,-0.61
2061,-0.69,-0.69,6.75,0.05,0.24,-0.61
2066,-0.69,-0.69,6.75,0.03,0.23,-0.61
2071,-3.26,-0.77,3.61,0.03,0.23,-0.61
2076,-3.26,-0.15,2.53,0.03,0.23,-0.61
2081,-3.45,0.61,2.03,0.03,0.23,-0.61
2086,-4.41,1.99,3.75,0.03,0.23,-0.61
2091,-4.41,1.99,3.75,-0.11,0.12,-0.52
2095,-4.41,1.99,3.75,-0.04,0.04,-0.41
2101,-4.98,2.72,2.84,-0.04,0.04,-0.41
2106,4.21,1.34,16.63,-0.04,0.04,-0.41
2111,4.21,1.34,16.63,0.05,-0.43,-0.16
2116,4.21,1.34,16.63,0.05,-0.58,-0.19
2121,18.54,-6.36,33.29,0.05,-0.58,-0.19
2126,13.95,-7.05,28.00,0.05,-0.58,-0.19
2131,10.34,-8.27,23.48,0.05,-0.58,-0.19
2136,-2.57,-4.29,12.03,0.05,-0.58,-0.19
2141,-5.64,1.30,5.59,0.05,-0.58,-0.19
2146,-5.79,3.41,3.75,0.05,-0.58,-0.19
2151,-4.67,6.47,4.06,0.05,-0.58,-0.19
2156,1.34,5.79,10.15,0.05,-0.58,-0.19
2161,1.34,5.79,10.15,-0.40,1.01,-1.00
2166,3.87,-4.21,15.36,-0.40,1.01,-1.00
2171,3.56,-7.82,14.36,-0.40,1.01,-1.00
2176,-0.11,-9.39,10.57,-0.40,1.01,-1.00
2181,-2.95,-11.07,7.05,-0.40,1.01,-1.00
2186,-7.28,-9.27,2.95,-0.40,1.01,-1.00
2192,-10.07,-1.04,-0.88,-0.40,1.01,-1.00
2196,-10.07,-1.04,-0.88,0.09,0.28,-0.47
2201,-5.44,9.39,4.06,0.09,0.28,-0.47
2206,-3.95,9.92,6.78,0.09,0.28,-0.47
2211,-1.00,8.04,10.19,0.09,0.28,-0.47
2216,-0.23,5.75,11.46,0.09,0.28,-0.47
2220,1.72,-1.15,14.21,0.09,0.28,-0.47
2225,1.72,-1.15,14.21,-0.10,-0.44,-0.64
2231,0.92,-3.41,13.71,-0.10,-0.44,-0.64
2237,0.92,-3.41,13.71,0.05,-0.34,-0.43
2241,1.34,-0.30,12.98,0.05,-0.34,-0.43
2246,1.34,-0.30,12.98,0.06,0.11,-0.09
2250,1.34,-0.30,12.98,-0.00,0.21,-0.16
2256,7.82,-0.27,18.08,-0.00,0.21,-0.16
2261,7.82,-0.27,18.08,0.04,0.37,-0.32
2267,9.96,-6.13,20.61,0.04,0.37,-0.32
2271,7.85,-9.73,15.36,0.04,0.37,-0.32
2276,4.90,-8.73,11.96,0.04,0.37,-0.32
2281,2.22,-7.82,7.70,0.04,0.37,-0.32
2287,-1.46,-6.12,4.67,0.04,0.37,-0.32
2291,-11.57,-0.65,0.54,0.04,0.37,-0.32
2296,-14.40,1.88,0.30,0.04,0.37,-0.32
2302,-18.08,1.11,-1.80,0.04,0.37,-0.32
2306,-26.93,5.79,4.06,0.04,0.37,-0.32
2311,-22.79,4.90,7.47,0.04,0.37,-0.32
2316,-6.79,3.14,5.67,0.04,0.37,-0.32
2321,1.23,1.99,7.70,0.04,0.37,-0.32
2326,10.50,-1.23,8.62,0.04,0.37,-0.32
2331,13.21,-2.38,11.57,0.04,0.37,-0.32
2336,13.21,-2.38,11.57,0.21,-1.10,0.02
2341,0.34,-4.79,18.04,0.21,-1.10,0.02
2346,-2.22,-2.61,18.92,0.21,-1.10,0.02
2351,-1.80,-0.73,21.80,0.21,-1.10,0.02
2356,-2.26,3.10,19.23,0.21,-1.10,0.02
2361,0.00,6.47,19.12,0.21,-1.10,0.02
2366,1.38,8.01,11.41,0.21,-1.10,0.02
2371,1.38,8.01,11.41,-0.23,0.49,-0.08
2376,2.26,-1.11,1.07,-0.23,0.49,-0.08
2381,2.03,-4.94,2.18,-0.23,0.49,-0.08
2386,2.30,-9.73,1.42,-0.23,0.49,-0.08
2391,-0.30,-10.57,2.30,-0.23,0.49,-0.08
2396,1.53,-11.42,7.55,-0.23,0.49,-0.08
2402,-0.23,-8.39,9.16,-0.23,0.49,-0.08
2406,-0.23,-8.39,9.16,0.15,0.17,0.08
2411,2.38,-3.75,14.05,0.15,0.17,0.08
2416,1.42,-2.87,13.87,0.15,0.17,0.08
2421,2.53,-1.88,14.18,0.15,0.17,0.08
2428,1.34,-3.14,11.76,0.15,0.17,0.08
2431,-0.73,-3.22,7.74,0.15,0.17,0.08
2436,-0.73,-3.22,7.74,0.12,0.40,-0.32
2441,-0.73,-3.22,7.74,0.07,0.53,-0.23
2446,-9.73,1.46,3.87,0.07,0.53,-0.23
2452,-10.04,3.83,5.02,0.07,0.53,-0.23
2456,-10.04,3.83,5.02,-0.11,0.53,-0.14
2461,-1.53,3.37,11.19,-0.11,0.53,-0.14
2466,4.71,0.69,13.48,-0.11,0.53,-0.14
2471,7.85,-0.57,16.43,-0.11,0.53,-0.14
2475,7.85,-0.57,16.43,-0.00,-0.45,-0.33
2482,8.81,-3.83,13.98,-0.00,-0.45,-0.33
2487,0.19,-2.80,6.16,-0.00,-0.45,-0.33
2491,0.19,-2.80,6.16,0.05,-0.18,-0.19
2496,0.19,-2.80,6.16,0.10,-0.07,-0.05
2501,14.14,-0.15,24.52,0.10,-0.07,-0.05
2506,14.14,-0.15,24.52,-0.06,0.14,-0.23
2511,6.86,-1.46,17.54,-0.06,0.14,-0.23
2516,0.92,-1.46,13.71,-0.06,0.14,-0.23
2522,-0.50,-2.68,7.66,-0.06,0.14,-0.23
2526,-0.50,-2.68,7.66,-0.07,1.10,-1.30
2531,-13.07,-0.46,-2.45,-0.07,1.10,-1.30
2537,-14.78,2.22,-2.30,-0.07,1.10,-1.30
2541,-14.78,2.22,-2.30,-0.23,1.40,-1.02
2547,-12.49,4.02,0.46,-0.23,1.40,-1.02
2551,-10.30,3.48,5.75,-0.23,1.40,-1.02
2555,-10.30,3.48,5.75,-0.26,0.47,-0.89
2560,-10.30,3.48,5.75,-0.12,-0.09,-0.93
2565,0.88,1.34,11.99,-0.12,-0.09,-0.93
2570,4.45,-3.29,16.59,-0.12,-0.09,-0.93
2578,4.45,-3.29,16.59,-0.03,-0.59,-0.89
2581,7.82,-2.11,15.14,-0.03,-0.59,-0.89
2586,7.82,-2.11,15.14,-0.04,-0.84,-0.84
2591,7.82,-2.11,15.14,-0.11,-0.57,-1.02
2595,7.82,-2.11,15.14,0.08,-0.02,-1.21
2602,2.07,6.63,14.36,0.08,-0.02,-1.21
2607,-1.68,6.21,11.22,0.08,-0.02,-1.21
2611,-1.68,6.21,11.22,-0.33,1.25,-1.49
2616,-1.68,6.21,11.22,-0.35,1.23,-1.58
2622,-11.30,3.48,5.86,-0.35,1.23,-1.58
2626,-11.30,3.48,5.86,-0.31,1.19,-1.58
2631,-11.30,3.48,5.86,-0.21,1.12,-1.45
2635,-10.42,1.99,1.34,-0.21,1.12,-1.45
2642,-10.42,1.99,1.34,-0.18,0.99,-1.23
2647,2.30,1.49,5.14,-0.18,0.99,-1.23
2651,9.65,1.30,10.84,-0.18,0.99,-1.23
2656,10.96,-0.57,13.79,-0.18,0.99,-1.23
2662,11.80,-2.38,14.90,-0.18,0.99,-1.23
2666,11.80,-2.38,14.90,-0.02,-0.99,-0.74
2671,0.88,-3.07,14.21,-0.02,-0.99,-0.74
2676,-1.23,-2.49,13.87,-0.02,-0.99,-0.74
2682,-0.34,-1.11,14.29,-0.02,-0.99,-0.74
2686,2.30,5.67,12.87,-0.02,-0.99,-0.74
2691,-0.46,3.33,11.30,-0.02,-0.99,-0.74
2696,-0.46,3.33,11.30,-0.22,0.97,-0.92
2701,-0.46,3.33,11.30,-0.25,1.04,-1.01
2706,-10.88,-1.27,12.10,-0.25,1.04,-1.01
2712,-9.50,-1.72,12.76,-0.25,1.04,-1.01
2716,-9.50,-1.72,12.76,-0.01,0.91,-0.86
2721,9.81,-4.79,13.91,-0.01,0.91,-0.86
2727,14.64,-5.75,12.91,-0.01,0.91,-0.86
2731,14.64,-5.75,12.91,0.09,-0.20,-0.55
2735,14.64,-5.75,12.91,0.03,-0.46,-0.68
2740,10.73,-8.04,4.90,0.03,-0.46,-0.68
2746,10.73,-8.04,4.90,-0.01,-0.58,-0.85
2751,10.73,-8.04,4.90,-0.04,-0.51,-1.00
2757,-4.29,-5.75,6.13,-0.04,-0.51,-1.00
2762,-3.75,-0.69,13.03,-0.04,-0.51,-1.00
2766,-3.75,-0.69,13.03,-0.07,0.46,-0.93
2771,-2.45,3.03,14.67,-0.07,0.46,-0.93
2776,2.61,0.57,14.56,-0.07,0.46,-0.93
2782,1.68,-1.00,13.21,-0.07,0.46,-0.93
2786,1.68,-1.00,13.21,0.12,0.59,-1.01
2791,5.52,-8.73,11.38,0.12,0.59,-1.01
2797,2.53,-7.85,11.68,0.12,0.59,-1.01
2801,2.53,-7.85,11.68,0.33,0.42,-0.78
2806,-1.57,-3.91,11.19,0.33,0.42,-0.78
2811,-3.07,-1.34,10.35,0.33,0.42,-0.78
2816,-3.07,-1.34,10.35,0.31,0.34,-0.72
2821,-3.07,-1.34,10.35,0.20,0.33,-0.82
2826,-0.27,4.02,8.28,0.20,0.33,-0.82
2831,2.91,1.84,7.12,0.20,0.33,-0.82
2836,2.91,1.84,7.12,0.04,0.11,-1.08
2841,2.84,-4.41,7.28,0.04,0.11,-1.08
2847,1.53,-5.02,8.84,0.04,0.11,-1.08
2851,1.53,-5.02,8.84,0.15,0.04,-0.93
2857,1.53,-5.02,8.84,0.18,0.18,-0.84
2862,-4.48,-2.18,10.61,0.18,0.18,-0.84
2866,-4.48,-2.18,10.61,0.35,0.53,-0.65
2871,-4.48,-2.18,10.61,0.36,0.63,-0.63
2876,-4.48,-2.18,10.61,0.39,0.67,-0.69
2882,-0.61,2.14,13.45,0.39,0.67,-0.69
2886,-0.61,2.14,13.45,0.36,0.64,-0.93
2891,-0.61,2.14,13.45,0.38,0.64,-0.94
2896,-6.85,-1.04,2.91,0.38,0.64,-0.94
2902,-6.55,-1.04,4.60,0.38,0.64,-0.94
2906,-6.55,-1.04,4.60,0.26,0.45,-0.50
2911,4.21,3.60,14.48,0.26,0.45,-0.50
2917,9.54,5.75,18.84,0.26,0.45,-0.50
2921,9.54,5.75,18.84,0.20,-0.16,-0.70
2926,6.70,0.04,16.09,0.20,-0.16,-0.70
2932,-2.41,-2.68,11.00,0.20,-0.16,-0.70
2936,-2.41,-2.68,11.00,0.18,0.44,-1.35
2941,-2.41,-2.68,11.00,0.34,0.82,-1.27
2946,-8.73,1.91,5.59,0.34,0.82,-1.27
2951,-4.06,4.60,6.86,0.34,0.82,-1.27
2955,-4.06,4.60,6.86,0.24,1.02,-0.51
2961,-4.06,4.60,6.86,0.17,0.68,-0.38
2965,5.86,1.34,7.16,0.17,0.68,-0.38
2970,5.86,1.34,7.16,0.07,0.33,-0.48
2978,7.28,-2.49,10.39,0.07,0.33,-0.48
2982,-0.19,-6.05,10.11,0.07,0.33,-0.48
2986,-0.19,-6.05,10.11,0.49,0.04,-0.71
2991,-0.19,-6.05,10.11,0.47,0.12,-0.47
2996,-0.19,-6.05,10.11,0.38,0.20,-0.32
3002,-1.11,2.30,13.75,0.38,0.20,-0.32
3006,-1.11,2.30,13.75,0.22,0.31,-0.57
3011,-1.11,2.30,13.75,0.24,0.29,-0.79
3016,-1.11,2.30,13.75,0.26,0.31,-0.97
3022,2.34,-5.75,9.50,0.26,0.31,-0.97
3026,2.34,-5.75,9.50,0.32,0.36,-0.87
3031,2.34,-5.75,9.50,0.32,0.29,-0.67
3037,-0.27,-7.09,6.17,0.32,0.29,-0.67
3041,-0.27,-7.09,6.17,0.29,0.19,-0.61
3046,-0.27,-7.09,6.17,0.36,0.13,-0.68
3051,2.72,-4.79,16.43,0.36,0.13,-0.68
3057,5.21,-4.67,17.01,0.36,0.13,-0.68
3061,5.21,-4.67,17.01,0.58,0.19,-0.79
3066,5.21,-4.67,17.01,0.65,0.30,-0.75
3071,-4.02,-0.77,10.38,0.65,0.30,-0.75
3077,-6.36,0.73,7.39,0.65,0.30,-0.75
3081,-6.36,0.73,7.39,0.58,0.89,-0.52
3086,-6.75,2.53,1.07,0.58,0.89,-0.52
3093,-7.55,1.15,3.07,0.58,0.89,-0.52
3096,-7.55,1.15,3.07,0.30,0.56,-0.29
3101,2.22,-2.41,6.12,0.30,0.56,-0.29
3107,-0.04,-0.80,6.93,0.30,0.56,-0.29
3111,-0.04,-0.80,6.93,0.56,-0.36,-0.11
3116,-0.04,-0.80,6.93,0.67,-0.43,0.08
3122,0.34,0.34,11.84,0.67,-0.43,0.08
3127,0.34,0.34,11.84,0.75,-0.23,0.41
3131,0.34,0.34,11.84,0.66,-0.09,0.39
3136,0.34,0.34,11.84,0.58,0.03,0.26
3142,-6.63,0.34,11.57,0.58,0.03,0.26
3146,-6.63,0.34,11.57,0.50,0.21,-0.09
3151,-6.63,0.34,11.57,0.48,0.20,-0.10
3157,-1.23,-2.76,8.73,0.48,0.20,-0.10
3161,-1.23,-2.76,8.73,0.44,0.12,0.07
3166,-1.23,-2.76,8.73,0.42,0.09,0.04
3171,-0.15,-3.60,7.55,0.42,0.09,0.04
3177,-1.68,-3.75,7.17,0.42,0.09,0.04
3181,-1.68,-3.75,7.17,0.43,0.14,-0.09
3186,-1.68,-3.75,7.17,0.48,0.16,0.03
3192,-3.71,-4.33,8.77,0.48,0.16,0.03
3196,-3.71,-4.33,8.77,0.54,0.30,0.26
3201,-3.71,-4.33,8.77,0.56,0.32,0.35
3206,0.54,-2.22,8.58,0.56,0.32,0.35
3211,0.54,-2.22,8.58,0.53,0.25,0.40
3216,0.54,-2.22,8.58,0.53,0.22,0.36
3221,0.54,-2.22,8.58,0.54,0.17,0.35
3227,1.61,-3.07,10.23,0.54,0.17,0.35
3231,1.61,-3.07,10.23,0.56,0.04,0.41
3235,1.61,-3.07,10.23,0.52,0.12,0.36
3240,5.98,1.04,10.11,0.52,0.12,0.36
3246,5.98,1.04,10.11,0.47,0.12,0.37
3252,5.98,1.04,10.11,0.44,0.01,0.42
3256,5.98,1.04,10.11,0.25,-0.12,0.14
3262,2.03,-2.95,6.16,0.25,-0.12,0.14
3266,2.03,-2.95,6.16,0.29,-0.08,-0.11
3271,2.03,-2.95,6.16,0.29,0.04,-0.07
3276,-1.34,-1.15,8.46,0.29,0.04,-0.07
3282,-0.77,-0.50,9.84,0.29,0.04,-0.07
3286,-0.77,-0.50,9.84,0.29,0.06,0.15
3291,-0.77,-0.50,9.84,0.30,-0.01,-0.01
3297,3.37,-0.27,11.64,0.30,-0.01,-0.01
3301,3.37,-0.27,11.64,0.31,-0.13,-0.34
3306,3.37,-0.27,11.64,0.27,-0.12,-0.39
3312,0.15,-1.80,8.32,0.27,-0.12,-0.39
3316,0.15,-1.80,8.32,0.24,-0.01,-0.36
3321,0.15,-1.80,8.32,0.23,0.07,-0.37
3326,-2.57,3.37,8.16,0.23,0.07,-0.37
3332,0.69,1.95,9.08,0.23,0.07,-0.37
3336,0.69,1.95,9.08,0.10,0.10,-0.54
3341,0.69,1.95,9.08,0.04,0.02,-0.66
3347,2.34,-1.15,10.07,0.04,0.02,-0.66
3351,2.34,-1.15,10.07,0.07,-0.08,-0.89
3356,2.34,-1.15,10.07,0.13,-0.02,-0.88
3361,-0.80,-1.23,10.50,0.13,-0.02,-0.88
3367,-1.27,-0.61,10.50,0.13,-0.02,-0.88
3371,-1.27,-0.61,10.50,0.25,0.26,-0.63
3376,-1.27,-0.61,10.50,0.23,0.29,-0.64
3382,0.73,2.22,10.35,0.23,0.29,-0.64
3386,0.73,2.22,10.35,0.16,0.15,-0.78
3391,0.73,2.22,10.35,0.11,0.05,-0.90
3396,0.73,2.22,10.35,0.11,-0.09,-0.95
3402,0.61,-0.11,9.35,0.11,-0.09,-0.95
3406,0.61,-0.11,9.35,0.16,-0.16,-0.92
3411,0.61,-0.11,9.35,0.20,-0.10,-0.86
3417,0.61,-0.11,9.35,0.23,0.04,-0.79
3421,0.61,-0.11,9.35,0.21,0.18,-0.77
3426,0.61,-0.11,9.35,0.17,0.24,-0.77
3431,-0.38,2.38,11.11,0.17,0.24,-0.77
3438,-0.61,1.99,11.96,0.17,0.24,-0.77
3441,-0.61,1.99,11.96,0.15,0.19,-0.89
3446,-2.03,0.42,10.49,0.15,0.19,-0.89
3452,-2.07,-0.23,11.04,0.15,0.19,-0.89
3456,-2.07,-0.23,11.04,0.26,0.16,-0.67
3461,-2.07,-0.23,11.04,0.27,0.12,-0.54
3467,-0.65,0.84,6.13,0.27,0.12,-0.54
3471,-0.65,0.84,6.13,0.20,0.02,-0.48
3476,-0.65,0.84,6.13,0.16,-0.05,-0.53
3481,-0.65,0.84,6.13,0.17,-0.09,-0.53
3487,1.84,-2.84,11.07,0.17,-0.09,-0.53
3491,1.84,-2.84,11.07,0.27,-0.15,-0.39
3496,1.84,-2.84,11.07,0.33,-0.07,-0.32
3502,-0.30,-3.33,11.53,0.33,-0.07,-0.32
3506,-0.30,-3.33,11.53,0.44,0.17,-0.19
3511,-0.30,-3.33,11.53,0.47,0.27,-0.11
3516,-0.30,-3.33,11.53,0.44,0.33,-0.05
3522,0.38,-2.53,7.28,0.44,0.33,-0.05
3526,0.38,-2.53,7.28,0.42,0.13,0.06
3531,0.38,-2.53,7.28,0.41,0.03,0.04
3537,0.19,-4.33,10.80,0.41,0.03,0.04
3541,0.19,-4.33,10.80,0.43,-0.06,-0.01
3546,0.19,-4.33,10.80,0.52,0.03,0.04
3551,-2.64,-3.87,9.08,0.52,0.03,0.04
3557,-4.41,-2.80,7.43,0.52,0.03,0.04
3561,-4.41,-2.80,7.43,0.57,0.23,0.39
3566,-4.41,-2.80,7.43,0.53,0.20,0.38
3572,-5.67,-0.96,6.59,0.53,0.20,0.38
3576,-5.67,-0.96,6.59,0.49,0.06,0.29
3581,-5.67,-0.96,6.59,0.49,-0.03,0.32
3586,-1.57,-3.33,9.34,0.49,-0.03,0.32
3592,0.15,-3.75,10.65,0.49,-0.03,0.32
3596,0.15,-3.75,10.65,0.53,-0.23,0.55
3601,0.15,-3.75,10.65,0.53,-0.18,0.51
3606,-2.99,-3.68,10.00,0.53,-0.18,0.51
3612,-2.99,-3.68,10.00,0.54,-0.01,0.50
3616,-2.99,-3.68,10.00,0.54,0.06,0.54
3621,-2.99,-3.68,10.00,0.53,0.09,0.59
3627,-1.30,-1.65,8.70,0.53,0.09,0.59
3631,-1.30,-1.65,8.70,0.50,0.05,0.58
3636,-1.30,-1.65,8.70,0.46,0.04,0.54
3642,-0.96,-3.26,7.09,0.46,0.04,0.54
3646,-0.96,-3.26,7.09,0.47,-0.09,0.62
3651,-0.96,-3.26,7.09,0.48,-0.17,0.68
3655,-0.96,-3.26,7.09,0.49,-0.20,0.69
3660,-1.61,-2.45,12.64,0.49,-0.20,0.69
3666,-1.61,-2.45,12.64,0.52,-0.17,0.69
3672,-1.61,-2.45,12.64,0.52,-0.04,0.71
3677,-1.04,-1.04,10.69,0.52,-0.04,0.71
3681,-1.04,-1.04,10.69,0.45,0.00,0.65
3686,-1.04,-1.04,10.69,0.41,0.01,0.57
3692,-3.98,-0.73,6.44,0.41,0.01,0.57
3696,-3.98,-0.73,6.44,0.32,-0.01,0.49
3701,-3.98,-0.73,6.44,0.29,-0.05,0.50
3706,0.84,-2.14,8.43,0.29,-0.05,0.50
3712,3.26,-2.72,10.84,0.29,-0.05,0.50
3716,3.26,-2.72,10.84,0.28,-0.28,0.37
3721,3.26,-2.72,10.84,0.29,-0.27,0.28
3727,1.11,-1.72,12.22,0.29,-0.27,0.28
3731,1.11,-1.72,12.22,0.29,-0.04,0.17
3736,1.11,-1.72,12.22,0.27,0.09,0.15
3741,1.11,-1.72,12.22,0.25,0.21,0.12
3747,-1.80,0.04,6.82,0.25,0.21,0.12
3751,-1.80,0.04,6.82,0.20,0.19,0.08
3756,-1.80,0.04,6.82,0.15,0.10,0.04
3762,5.79,1.23,9.16,0.15,0.10,0.04
3766,5.79,1.23,9.16,0.10,-0.22,-0.12
3771,5.79,1.23,9.16,0.08,-0.31,-0.21
3777,5.79,1.23,9.16,0.09,-0.31,-0.28
3781,5.79,1.23,9.16,0.09,-0.22,-0.31
3786,5.79,1.23,9.16,0.09,-0.05,-0.32
3791,5.79,1.23,9.16,0.08,0.12,-0.31
3797,-2.03,2.38,7.93,0.08,0.12,-0.31
3801,-2.03,2.38,7.93,0.03,0.27,-0.33
3806,-2.03,2.38,7.93,-0.02,0.26,-0.40
3811,-0.38,3.52,8.74,-0.02,0.26,-0.40
3817,-3.71,4.14,5.71,-0.02,0.26,-0.40
3821,-3.71,4.14,5.71,-0.08,0.04,-0.50
3826,-3.71,4.14,5.71,-0.06,-0.03,-0.43
3832,-1.07,2.03,8.70,-0.06,-0.03,-0.43
3836,-1.07,2.03,8.70,-0.02,-0.12,-0.29
3841,-1.07,2.03,8.70,-0.02,-0.17,-0.29
3846,-1.07,2.03,8.70,-0.02,-0.19,-0.33
3851,-1.07,2.03,8.70,-0.02,-0.16,-0.41
3856,-1.07,2.03,8.70,-0.03,-0.11,-0.48
3861,-1.07,2.03,8.70,-0.02,-0.04,-0.54
3867,-2.14,1.04,10.65,-0.02,-0.04,-0.54
3871,-2.14,1.04,10.65,-0.04,0.23,-0.57
3876,-2.14,1.04,10.65,-0.02,0.36,-0.55
3882,-2.14,1.04,10.65,-0.06,0.46,-0.54
3886,-2.14,1.04,10.65,-0.06,0.46,-0.52
3891,-2.14,1.04,10.65,-0.05,0.32,-0.47
3896,-2.14,1.04,10.65,-0.08,0.14,-0.45
3902,3.26,0.38,7.20,-0.08,0.14,-0.45
3906,3.26,0.38,7.20,-0.10,-0.32,-0.48
3911,3.26,0.38,7.20,-0.06,-0.43,-0.47
3917,3.26,0.38,7.20,-0.02,-0.46,-0.41
3921,3.26,0.38,7.20,0.02,-0.39,-0.32
3926,3.26,0.38,7.20,0.07,-0.26,-0.24
3931,3.26,0.38,7.20,0.07,-0.11,-0.22
3937,-5.55,-0.19,11.72,0.07,-0.11,-0.22
3941,-5.55,-0.19,11.72,0.08,0.22,-0.36
3946,-5.55,-0.19,11.72,0.09,0.25,-0.35
3952,-5.55,-0.19,11.72,0.09,0.17,-0.30
3956,-5.55,-0.19,11.72,0.04,0.13,-0.30
3961,-5.55,-0.19,11.72,0.01,0.08,-0.34
3966,-5.55,-0.19,11.72,0.03,0.02,-0.31
3972,-4.25,-1.42,10.00,0.03,0.02,-0.31
3976,-4.25,-1.42,10.00,0.09,0.11,-0.19
3981,-4.25,-1.42,10.00,0.14,0.14,-0.08
3986,-3.68,0.15,10.88,0.14,0.14,-0.08
3991,-3.68,0.15,10.88,0.16,0.11,0.04
3996,-3.68,0.15,10.88,0.14,0.01,0.03
4002,-3.68,0.15,10.88,0.12,-0.09,-0.01
4006,-3.68,0.15,10.88,0.09,-0.17,-0.01
4011,-3.68,0.15,10.88,0.10,-0.24,0.05
4016,-3.68,0.15,10.88,0.12,-0.25,0.14
4022,-0.42,-0.46,9.20,0.12,-0.25,0.14
4026,-0.42,-0.46,9.20,0.10,-0.18,0.22
4031,-0.42,-0.46,9.20,0.10,-0.09,0.19
4037,-0.42,-0.46,9.20,0.08,-0.02,0.12
4041,-0.42,-0.46,9.20,0.08,-0.03,0.07
4046,-0.42,-0.46,9.20,0.12,-0.03,0.02
4051,-0.42,-0.46,9.20,0.11,-0.01,-0.01
4057,-0.42,-0.46,9.20,0.13,0.02,0.01
4061,-0.42,-0.46,9.20,0.16,0.12,0.04
4066,-0.42,-0.46,9.20,0.11,0.25,0.05
4072,-0.42,-0.46,9.20,0.09,0.31,0.09
4076,-0.42,-0.46,9.20,0.11,0.26,0.14
4081,-0.42,-0.46,9.20,0.07,0.16,0.14
4086,-0.42,-0.46,9.20,0.05,-0.03,0.10
4092,-0.04,1.19,10.23,0.05,-0.03,0.10
4096,-0.04,1.19,10.23,0.05,-0.25,-0.03
4101,-0.04,1.19,10.23,0.04,-0.25,-0.04
4106,-0.04,1.19,10.23,0.04,-0.20,0.02
4111,-0.04,1.19,10.23,0.04,-0.08,0.06
4116,-0.04,1.19,10.23,0.00,0.07,0.03
4121,-0.04,1.19,10.23,-0.01,0.19,-0.05
4127,-5.09,1.91,9.16,-0.01,0.19,-0.05
4131,-5.09,1.91,9.16,-0.08,0.21,-0.14
4136,-5.09,1.91,9.16,-0.10,0.07,-0.14
4142,-5.09,1.91,9.16,-0.10,-0.08,-0.18
4146,-5.09,1.91,9.16,-0.11,-0.20,-0.24
4151,-5.09,1.91,9.16,-0.11,-0.22,-0.29
4156,-5.09,1.91,9.16,-0.06,-0.15,-0.29
4162,-1.07,-0.50,11.38,-0.06,-0.15,-0.29
4166,-1.07,-0.50,11.38,-0.01,0.11,-0.18
4171,-1.07,-0.50,11.38,-0.02,0.26,-0.19
4177,-1.07,-0.50,11.38,-0.07,0.30,-0.23
4181,-1.07,-0.50,11.38,-0.06,0.25,-0.27
4186,-1.07,-0.50,11.38,-0.13,0.15,-0.32
4191,-1.07,-0.50,11.38,-0.17,-0.04,-0.34
4197,1.95,0.65,7.39,-0.17,-0.04,-0.34
4201,1.95,0.65,7.39,-0.18,-0.35,-0.32
4206,1.95,0.65,7.39,-0.17,-0.39,-0.34
4212,1.95,0.65,7.39,-0.13,-0.35,-0.36
4216,1.95,0.65,7.39,-0.08,-0.24,-0.38
4221,1.95,0.65,7.39,-0.05,-0.12,-0.38
4226,1.95,0.65,7.39,-0.02,0.03,-0.40
4231,1.95,0.65,7.39,-0.00,0.15,-0.44
4236,1.95,0.65,7.39,-0.04,0.22,-0.47
4241,1.95,0.65,7.39,-0.03,0.27,-0.48
4246,0.96,0.54,7.23,-0.03,0.27,-0.48
4251,0.96,0.54,7.23,-0.12,0.16,-0.48
4256,0.96,0.54,7.23,-0.11,0.04,-0.49
4261,0.96,0.54,7.23,-0.08,-0.04,-0.50
4266,0.96,0.54,7.23,-0.05,-0.11,-0.48
4271,0.96,0.54,7.23,0.01,-0.11,-0.44
4276,0.96,0.54,7.23,0.06,-0.06,-0.39
4282,3.45,-0.96,12.14,0.06,-0.06,-0.39
4286,3.45,-0.96,12.14,0.10,0.00,-0.36
4291,3.45,-0.96,12.14,0.07,0.08,-0.41
4296,3.45,-0.96,12.14,0.04,0.13,-0.46
4301,3.45,-0.96,12.14,0.04,0.18,-0.47
4306,3.45,-0.96,12.14,0.01,0.22,-0.46
4311,3.45,-0.96,12.14,0.01,0.18,-0.41
4317,-1.38,0.92,9.16,0.01,0.18,-0.41
4321,-1.38,0.92,9.16,0.01,0.03,-0.36
4326,-1.38,0.92,9.16,0.01,-0.06,-0.38
4331,-1.38,0.92,9.16,0.01,-0.12,-0.39
4336,-1.38,0.92,9.16,0.04,-0.16,-0.34
4341,-1.38,0.92,9.16,0.07,-0.19,-0.24
4346,-1.38,0.92,9.16,0.11,-0.18,-0.14
4352,0.30,-0.30,12.18,0.11,-0.18,-0.14
4356,0.30,-0.30,12.18,0.17,-0.06,-0.06
4361,0.30,-0.30,12.18,0.19,0.02,-0.07
4366,0.30,-0.30,12.18,0.17,0.10,-0.11
4371,0.30,-0.30,12.18,0.17,0.11,-0.11
4376,0.30,-0.30,12.18,0.16,0.09,-0.08
4381,0.30,-0.30,12.18,0.13,0.06,-0.08
4387,1.11,-0.46,6.51,0.13,0.06,-0.08
4391,1.11,-0.46,6.51,0.07,-0.02,-0.09
4396,1.11,-0.46,6.51,0.05,0.02,-0.10
4401,1.11,-0.46,6.51,0.06,0.01,-0.04
4406,1.11,-0.46,6.51,0.09,-0.02,0.04
4411,1.11,-0.46,6.51,0.18,-0.04,0.11
4416,1.11,-0.46,6.51,0.19,-0.12,0.15
4421,1.11,-0.46,6.51,0.08,-0.18,0.15
4426,1.11,-0.46,6.51,0.08,-0.18,0.07
4431,1.11,-0.46,6.51,0.18,-0.14,-0.04
4438,1.11,-0.46,6.51,0.33,-0.04,-0.10
4441,1.11,-0.46,6.51,0.40,0.12,-0.04
4446,1.11,-0.46,6.51,0.35,0.21,0.14
4451,1.11,-0.46,6.51,0.25,0.25,0.31
4456,1.11,-0.46,6.51,0.13,0.26,0.27
4461,1.11,-0.46,6.51,0.03,0.16,0.08
4466,1.11,-0.46,6.51,0.04,-0.03,-0.13
4471,1.11,-0.46,6.51,0.07,-0.14,-0.26
4476,1.11,-0.46,6.51,0.14,-0.17,-0.24
4481,1.11,-0.46,6.51,0.18,-0.13,-0.07
4486,1.11,-0.46,6.51,0.22,-0.00,0.10
4491,1.11,-0.46,6.51,0.24,0.15,0.21
4496,1.11,-0.46,6.51,0.29,0.20,0.25
4501,1.11,-0.46,6.51,0.29,0.14,0.24
4507,0.04,-2.07,7.89,0.29,0.14,0.24
4511,0.04,-2.07,7.89,0.23,-0.15,0.17
4516,0.04,-2.07,7.89,0.21,-0.29,0.14
4521,0.04,-2.07,7.89,0.21,-0.37,0.12
4526,0.04,-2.07,7.89,0.23,-0.32,0.12
4531,0.04,-2.07,7.89,0.26,-0.18,0.12
4536,0.04,-2.07,7.89,0.27,-0.01,0.12
4542,-5.48,-0.23,9.43,0.27,-0.01,0.12
4546,-5.48,-0.23,9.43,0.25,0.28,-0.01
4551,-5.48,-0.23,9.43,0.21,0.33,-0.06
4556,-5.48,-0.23,9.43,0.20,0.21,-0.03
4561,-5.48,-0.23,9.43,0.13,0.05,0.02
4566,-5.48,-0.23,9.43,0.11,-0.15,0.01
4571,-5.48,-0.23,9.43,0.13,-0.34,0.02
4577,3.64,-3.33,12.41,0.13,-0.34,0.02
4581,3.64,-3.33,12.41,0.19,-0.47,0.01
4586,3.64,-3.33,12.41,0.24,-0.40,0.00
4591,3.64,-3.33,12.41,0.30,-0.27,-0.02
4597,1.76,-2.72,11.96,0.30,-0.27,-0.02
4601,1.76,-2.72,11.96,0.36,0.09,-0.05
4606,1.76,-2.72,11.96,0.30,0.30,-0.06
4612,-3.03,1.72,3.95,0.30,0.30,-0.06
4616,-3.03,1.72,3.95,0.22,0.32,0.05
4621,-3.03,1.72,3.95,0.16,0.10,0.09
4627,-3.03,1.72,3.95,0.08,-0.15,0.01
4631,-3.03,1.72,3.95,0.09,-0.26,-0.17
4636,-3.03,1.72,3.95,0.15,-0.21,-0.30
4641,-3.03,1.72,3.95,0.24,-0.14,-0.24
4647,-0.15,-3.75,12.72,0.24,-0.14,-0.24
4651,-0.15,-3.75,12.72,0.35,0.04,0.06
4656,-0.15,-3.75,12.72,0.30,0.07,0.07
4662,-0.15,-3.75,12.72,0.27,0.09,-0.01
4666,-0.15,-3.75,12.72,0.18,0.09,-0.14
4671,-0.15,-3.75,12.72,0.12,0.05,-0.22
4676,-0.15,-3.75,12.72,0.11,-0.02,-0.20
4682,-0.61,0.00,9.39,0.11,-0.02,-0.20
4686,-0.61,0.00,9.39,0.12,-0.09,-0.08
4691,-0.61,0.00,9.39,0.19,-0.13,-0.02
4697,-0.61,0.00,9.39,0.21,-0.14,-0.00
4701,-0.61,0.00,9.39,0.23,-0.13,-0.00
4706,-0.61,0.00,9.39,0.25,-0.11,-0.01
4711,-0.61,0.00,9.39,0.27,-0.06,-0.04
4717,1.88,-1.30,11.68,0.27,-0.06,-0.04
4721,1.88,-1.30,11.68,0.28,0.09,-0.08
4726,1.88,-1.30,11.68,0.21,0.20,-0.07
4732,-2.22,-1.34,7.86,0.21,0.20,-0.07
4736,-2.22,-1.34,7.86,0.23,0.21,0.05
4741,-2.22,-1.34,7.86,0.18,0.15,0.04
4746,-2.22,-1.34,7.86,0.14,0.03,0.01
4751,0.57,-0.80,8.35,0.14,0.03,0.01
4755,0.57,-0.80,8.35,0.16,-0.24,-0.01
4760,0.57,-0.80,8.35,0.19,-0.33,0.03
4766,3.29,-3.03,10.99,0.19,-0.33,0.03
4772,3.29,-3.03,10.99,0.24,-0.38,0.09
4776,3.29,-3.03,10.99,0.30,-0.19,0.14
4781,3.29,-3.03,10.99,0.33,-0.02,0.15
4787,-5.94,-0.11,10.69,0.33,-0.02,0.15
4791,-5.94,-0.11,10.69,0.30,0.30,0.12
4796,-5.94,-0.11,10.69,0.31,0.32,0.15
4802,-0.69,0.65,7.81,0.31,0.32,0.15
4806,-0.69,0.65,7.81,0.22,0.13,0.13
4811,-0.69,0.65,7.81,0.22,-0.04,0.12
4816,-0.69,0.65,7.81,0.21,-0.15,0.10
4822,1.91,-3.37,8.70,0.21,-0.15,0.10
4826,1.91,-3.37,8.70,0.28,-0.17,0.14
4831,1.91,-3.37,8.70,0.32,-0.07,0.20
4837,-5.13,-0.88,9.73,0.32,-0.07,0.20
4841,-5.13,-0.88,9.73,0.37,0.16,0.34
4846,-5.13,-0.88,9.73,0.35,0.20,0.38
4851,-5.13,-0.88,9.73,0.28,0.19,0.35
4857,-1.65,0.23,4.41,0.28,0.19,0.35
4861,-1.65,0.23,4.41,0.22,-0.15,0.33
4866,-1.65,0.23,4.41,0.21,-0.38,0.34
4872,10.73,-1.53,15.94,0.21,-0.38,0.34
4876,10.73,-1.53,15.94,0.30,-0.65,0.47
4881,10.73,-1.53,15.94,0.25,-0.54,0.45
4887,10.73,-1.53,15.94,0.23,-0.34,0.35
4891,10.73,-1.53,15.94,0.32,-0.08,0.23
4896,10.73,-1.53,15.94,0.45,0.18,0.15
4901,10.73,-1.53,15.94,0.57,0.47,0.18
4907,-7.39,3.87,3.22,0.57,0.47,0.18
4911,-7.39,3.87,3.22,0.34,0.69,0.50
4916,-7.39,3.87,3.22,0.21,0.60,0.56
4922,-7.39,3.87,3.22,0.08,0.40,0.46
4926,-7.39,3.87,3.22,0.11,0.10,0.31
4831,1.91,-3.37,8.70,0.32,-0.07,0.20
4837,-5.13,-0.88,9.73,0.32,-0.07,0.20
4841,-5.13,-0.88,9.73,0.37,0.16,0.34
4846,-5.13,-0.88,9.73,0.35,0.20,0.38
4851,-5.13,-0.88,9.73,0.28,0.19,0.35
4857,-1.65,0.23,4.41,0.28,0.19,0.35
4861,-1.65,0.23,4.41,0.22,-0.15,0.33
4866,-1.65,0.23,4.41,0.21,-0.38,0.34
4872,10.73,-1.53,15.94,0.21,-0.38,0.34
4876,10.73,-1.53,15.94,0.30,-0.65,0.47
4881,10.73,-1.53,15.94,0.25,-0.54,0.45
4887,10.73,-1.53,15.94,0.23,-0.34,0.35
4891,10.73,-1.53,15.94,0.32,-0.08,0.23
4896,10.73,-1.53,15.94,0.45,0.18,0.15
4901,10.73,-1.53,15.94,0.57,0.47,0.18
