timestamp,accX,accY,accZ,gyroX,gyroY,gyroZ
Straight
5,-1.00,-3.48,9.00,-0.01,-0.00,-0.02
19,-1.00,-3.48,9.00,-0.00,-0.00,0.00
20,2.49,0.42,8.96,-0.00,-0.00,0.00
23,2.49,0.42,8.96,0.07,-0.06,-0.00
25,-1.72,0.19,10.34,0.07,-0.06,-0.00
30,-3.48,0.38,10.00,0.07,-0.06,-0.00
36,-3.48,0.38,10.00,0.08,0.05,0.05
41,-3.48,0.38,10.00,0.07,0.12,0.08
46,-3.48,0.38,10.00,0.08,0.10,0.08
51,-3.48,0.38,10.00,0.04,0.03,0.03
56,-3.48,0.38,10.00,0.04,-0.06,-0.05
60,-3.48,0.38,10.00,0.05,-0.12,-0.11
66,2.34,-1.04,10.73,0.05,-0.12,-0.11
71,2.34,-1.04,10.73,0.04,-0.06,-0.13
75,2.34,-1.04,10.73,0.04,0.02,-0.13
81,2.34,-1.04,10.73,0.03,0.09,-0.15
86,-3.37,0.46,7.28,0.03,0.09,-0.15
91,-3.37,0.46,7.28,0.00,0.18,-0.19
95,-3.37,0.46,7.28,-0.02,0.15,-0.14
101,-1.07,0.92,7.39,-0.02,0.15,-0.14
106,-1.07,0.92,7.39,-0.04,-0.03,-0.08
110,-1.07,0.92,7.39,-0.02,-0.15,-0.07
116,-1.07,0.92,7.39,0.04,-0.23,-0.03
121,2.45,-1.91,13.53,0.04,-0.23,-0.03
126,2.45,-1.91,13.53,0.13,-0.15,0.04
131,2.45,-1.91,13.53,0.19,-0.02,0.08
136,-3.33,-0.46,9.04,0.19,-0.02,0.08
141,-3.33,-0.46,9.04,0.17,0.13,0.20
145,-3.33,-0.46,9.04,0.11,0.11,0.21
151,-3.33,-0.46,9.04,0.03,0.00,0.18
156,3.10,0.54,7.24,0.03,0.00,0.18
161,3.10,0.54,7.24,-0.02,-0.22,0.01
165,3.10,0.54,7.24,0.01,-0.22,-0.02
171,3.10,0.54,7.24,0.04,-0.16,0.01
176,3.10,0.54,7.24,0.10,-0.06,0.10
180,3.10,0.54,7.24,0.12,0.03,0.18
186,3.10,0.54,7.24,0.14,0.05,0.21
191,1.15,-0.34,8.70,0.14,0.05,0.21
195,1.15,-0.34,8.70,0.10,-0.10,0.14
201,1.15,-0.34,8.70,0.09,-0.19,0.05
206,3.33,-2.22,7.89,0.09,-0.19,0.05
211,3.33,-2.22,7.89,0.07,-0.25,0.05
215,3.33,-2.22,7.89,0.10,-0.19,0.07
221,-1.53,-2.18,10.45,0.10,-0.19,0.07
226,-1.53,-2.18,10.45,0.07,-0.02,0.09
230,-1.53,-2.18,10.45,-0.06,-0.03,0.04
236,-1.53,-2.18,10.45,0.08,0.04,-0.10
241,2.76,-4.02,8.12,0.08,0.04,-0.10
246,2.76,-4.02,8.12,0.17,-0.09,-0.03
250,2.76,-4.02,8.12,0.03,-0.11,-0.03
256,3.03,1.46,11.04,0.03,-0.11,-0.03
260,3.03,1.46,11.04,0.12,-0.17,-0.08
265,3.03,1.46,11.04,0.12,-0.07,-0.11
271,3.03,1.46,11.04,0.13,0.04,-0.08
276,-5.32,2.18,9.04,0.13,0.04,-0.08
281,-5.32,2.18,9.04,0.12,0.22,-0.02
285,-5.32,2.18,9.04,0.08,0.20,-0.04
291,-5.32,2.18,9.04,0.08,0.10,-0.02
296,-5.32,2.18,9.04,0.03,-0.03,-0.03
300,-5.32,2.18,9.04,0.01,-0.12,-0.09
306,-5.32,2.18,9.04,-0.01,-0.18,-0.15
311,-0.34,0.77,8.82,-0.01,-0.18,-0.15
316,-0.34,0.77,8.82,0.01,-0.06,-0.18
320,-0.34,0.77,8.82,0.02,0.06,-0.12
326,-7.66,0.34,2.53,0.02,0.06,-0.12
331,-7.66,0.34,2.53,-0.08,0.19,0.07
335,-7.66,0.34,2.53,-0.13,0.17,0.12
341,-7.66,0.34,2.53,-0.06,0.06,0.12
346,-7.66,0.34,2.53,-0.07,-0.13,0.14
350,-7.66,0.34,2.53,-0.07,-0.39,0.19
356,-7.66,0.34,2.53,-0.05,-0.67,0.30
361,8.54,-3.71,17.73,-0.05,-0.67,0.30
366,8.54,-3.71,17.73,0.01,-0.98,0.42
370,8.54,-3.71,17.73,0.08,-0.91,0.39
376,8.54,-3.71,17.73,0.21,-0.71,0.31
380,8.54,-3.71,17.73,0.34,-0.33,0.24
385,8.54,-3.71,17.73,0.34,0.16,0.18
391,8.54,-3.71,17.73,0.37,0.46,0.10
396,-3.68,0.84,6.36,0.37,0.46,0.10
400,-3.68,0.84,6.36,0.10,0.63,-0.07
405,-3.68,0.84,6.36,-0.11,0.57,-0.11
411,-3.68,0.84,6.36,-0.25,0.45,-0.10
415,-3.68,0.84,6.36,-0.28,0.30,-0.09
420,-3.68,0.84,6.36,-0.24,0.14,-0.03
425,-3.68,0.84,6.36,-0.17,0.04,0.07
431,-3.68,0.84,6.36,-0.09,-0.01,0.21
435,-3.68,0.84,6.36,0.04,-0.01,0.35
441,-3.68,0.84,6.36,0.16,0.01,0.47
445,-1.68,-2.84,9.54,0.16,0.01,0.47
451,-3.56,-1.88,7.93,0.16,0.01,0.47
455,-3.56,-1.88,7.93,0.34,-0.05,0.65
461,-3.56,-1.88,7.93,0.30,-0.07,0.64
465,-3.56,-1.88,7.93,0.23,-0.11,0.58
470,-3.56,-1.88,7.93,0.16,-0.12,0.53
476,-3.56,-1.88,7.93,0.07,-0.11,0.46
481,-3.26,1.11,6.21,0.07,-0.11,0.46
485,-3.26,1.11,6.21,-0.08,-0.18,0.31
490,-3.26,1.11,6.21,-0.12,-0.33,0.26
496,-3.26,1.11,6.21,-0.10,-0.48,0.21
500,-3.26,1.11,6.21,-0.07,-0.54,0.15
505,-3.26,1.11,6.21,-0.07,-0.47,0.11
511,-3.26,1.11,6.21,-0.04,-0.28,0.09
516,-7.21,1.72,3.07,-0.04,-0.28,0.09
521,-7.21,1.72,3.07,-0.20,0.21,0.14
526,-7.21,1.72,3.07,-0.17,0.31,0.15
531,-7.21,1.72,3.07,-0.17,0.18,0.17
535,-7.21,1.72,3.07,-0.22,-0.12,0.17
540,-7.21,1.72,3.07,-0.19,-0.43,0.13
546,-7.21,1.72,3.07,-0.25,-0.62,0.06
551,-7.21,1.72,3.07,-0.06,-0.58,0.02
555,-7.21,1.72,3.07,0.05,-0.18,0.02
561,-7.21,1.72,3.07,0.15,0.66,0.16
565,-7.21,1.72,3.07,0.12,1.23,0.17
571,-15.13,2.14,5.13,0.12,1.23,0.17
575,-15.13,2.14,5.13,-0.05,1.69,0.09
580,-15.13,2.14,5.13,-0.10,1.69,0.04
586,-4.59,-0.57,3.79,-0.10,1.69,0.04
590,-4.59,-0.57,3.79,-0.10,0.84,0.09
596,-4.59,-0.57,3.79,-0.12,0.16,0.15
601,-4.59,-0.57,3.79,-0.15,-0.49,0.11
605,-4.59,-0.57,3.79,-0.18,-0.93,-0.05
610,-4.59,-0.57,3.79,-0.20,-1.05,-0.22
616,-4.59,-0.57,3.79,-0.20,-0.84,-0.31
621,-9.58,-2.11,6.82,-0.20,-0.84,-0.31
625,-9.58,-2.11,6.82,0.04,-0.05,-0.22
630,-9.58,-2.11,6.82,-0.06,0.30,-0.11
636,-9.58,-2.11,6.82,-0.07,0.46,0.02
640,-9.58,-2.11,6.82,-0.16,0.38,0.08
645,-9.58,-2.11,6.82,-0.27,0.16,0.04
651,-9.58,-2.11,6.82,-0.34,-0.13,-0.08
655,-9.58,-2.11,6.82,-0.38,-0.40,-0.21
660,-9.58,-2.11,6.82,-0.43,-0.58,-0.30
665,-9.58,-2.11,6.82,-0.43,-0.64,-0.37
671,-9.58,-2.11,6.82,-0.38,-0.60,-0.38
675,-9.58,-2.11,6.82,-0.33,-0.49,-0.36
680,-9.58,-2.11,6.82,-0.42,-0.40,-0.34
685,-9.58,-2.11,6.82,-0.34,-0.41,-0.31
691,-9.58,-2.11,6.82,-0.20,-0.32,-0.30
695,-9.58,-2.11,6.82,-0.10,0.10,-0.30
700,-9.58,-2.11,6.82,-0.01,0.59,-0.27
706,-6.47,-4.02,10.49,-0.01,0.59,-0.27
710,-6.47,-4.02,10.49,0.27,0.97,-0.31
716,-6.47,-4.02,10.49,0.21,1.08,-0.24
721,-6.47,-4.02,10.49,0.06,1.09,-0.16
725,-6.47,-4.02,10.49,-0.06,0.95,-0.16
730,-6.47,-4.02,10.49,-0.13,0.75,-0.25
735,-6.47,-4.02,10.49,-0.18,0.57,-0.38
741,-11.19,2.99,-3.22,-0.18,0.57,-0.38
745,-11.19,2.99,-3.22,-0.18,0.58,-0.51
751,-11.19,2.99,-3.22,-0.34,0.64,-0.49
756,-11.19,2.99,-3.22,-0.48,0.74,-0.53
761,-11.19,2.99,-3.22,-0.29,0.72,-0.58
765,9.20,1.23,8.66,-0.29,0.72,-0.58
770,9.20,1.23,8.66,-0.25,-0.42,-0.47
776,8.16,2.99,-2.45,-0.25,-0.42,-0.47
780,8.16,2.99,-2.45,-0.39,-1.41,-0.26
785,8.16,2.99,-2.45,-0.34,-1.55,-0.24
791,8.16,2.99,-2.45,-0.28,-1.61,-0.28
795,8.16,2.99,-2.45,-0.25,-1.62,-0.33
801,8.16,2.99,-2.45,0.31,-0.37,-0.23
805,8.16,2.99,-2.45,-0.24,0.87,-0.06
811,8.16,2.99,-2.45,-0.28,0.95,-0.13
815,8.16,2.99,-2.45,0.20,0.78,-0.20
820,8.16,2.99,-2.45,0.18,0.57,-0.22
825,8.16,2.99,-2.45,0.14,0.35,-0.18
831,8.88,-2.14,-2.22,0.14,0.35,-0.18
836,8.88,-2.14,-2.22,0.01,-0.15,0.01
840,12.22,-0.08,-1.76,0.01,-0.15,0.01
846,12.22,-0.08,-1.76,-0.25,-0.44,0.06
850,12.22,-0.08,-1.76,-0.29,-0.45,-0.03
855,12.22,-0.08,-1.76,-0.32,-0.30,-0.12
861,12.22,-0.08,-1.76,-0.16,-0.06,-0.15
866,12.22,-0.08,-1.76,-0.02,0.20,-0.12
870,-0.80,-3.14,15.09,-0.02,0.20,-0.12
875,-1.46,-1.57,7.23,-0.02,0.20,-0.12
881,-1.46,-1.57,7.23,0.19,0.69,-0.00
886,-1.46,-1.57,7.23,0.08,0.63,-0.03
890,-1.46,-1.57,7.23,0.05,0.53,-0.12
896,-1.46,-1.57,7.23,0.05,0.58,-0.24
901,-1.46,-1.57,7.23,0.04,0.66,-0.31
906,-11.26,-2.49,14.52,0.04,0.66,-0.31
910,4.52,-5.02,14.94,0.04,0.66,-0.31
916,4.52,-5.02,14.94,-0.08,-0.05,-0.20
921,4.52,-5.02,14.94,-0.11,-0.67,-0.15
925,4.52,-5.02,14.94,-0.20,-1.16,-0.17
931,4.52,-5.02,14.94,-0.09,-1.21,-0.24
936,4.52,-5.02,14.94,-0.18,-1.16,-0.28
940,5.67,-3.18,11.84,-0.18,-1.16,-0.28
945,-12.06,5.79,5.98,-0.18,-1.16,-0.28
951,-12.06,5.79,5.98,-0.01,-0.53,-0.15
956,-12.06,5.79,5.98,0.11,-0.11,-0.07
960,-6.82,0.04,10.39,0.11,-0.11,-0.07
966,-6.82,0.04,10.39,0.12,0.57,-0.03
971,-6.82,0.04,10.39,0.10,0.65,-0.06
975,-6.82,0.04,10.39,0.02,0.52,-0.09
981,-6.82,0.04,10.39,0.02,0.22,-0.12
986,-6.82,0.04,10.39,-0.00,-0.17,-0.13
991,-0.65,-1.23,14.25,-0.00,-0.17,-0.13
995,-1.11,0.27,11.80,-0.00,-0.17,-0.13
1001,-1.11,0.27,11.80,-0.07,-0.10,-0.12
1006,-14.79,0.77,17.35,-0.07,-0.10,-0.12
1010,-15.29,1.30,16.81,-0.07,-0.10,-0.12
1016,-15.29,1.30,16.81,0.27,1.00,-0.10
1021,-15.29,1.30,16.81,0.26,0.98,-0.01
1025,10.61,-2.41,9.58,0.26,0.98,-0.01
1031,10.61,-2.41,9.58,0.17,0.20,0.20
1036,10.61,-2.41,9.58,0.08,-0.24,0.15
1040,3.60,-2.61,-4.06,0.08,-0.24,0.15
1045,-4.10,1.07,-1.04,0.08,-0.24,0.15
1051,-8.58,0.84,9.42,0.08,-0.24,0.15
1056,-8.58,0.84,9.42,-0.02,-0.12,-0.10
1060,-8.58,0.84,9.42,-0.05,0.24,-0.13
1065,-8.58,0.84,9.42,-0.05,0.50,-0.18
1071,-8.58,0.84,9.42,-0.05,0.49,-0.20
1076,1.27,-2.87,8.31,-0.05,0.49,-0.20
1080,2.95,-1.65,-0.27,-0.05,0.49,-0.20
1085,2.95,-1.65,-0.27,0.15,-0.04,-0.22
1091,3.10,3.75,-6.71,0.15,-0.04,-0.22
1096,3.10,3.75,-6.71,0.11,-0.23,-0.07
1101,-5.66,4.83,1.53,0.11,-0.23,-0.07
1105,-6.51,2.38,9.27,0.11,-0.23,-0.07
1110,-4.86,-1.30,13.52,0.11,-0.23,-0.07
1115,-4.86,-1.30,13.52,-0.10,0.08,-0.24
1121,-4.86,-1.30,13.52,-0.01,-0.05,-0.26
1126,-4.86,-1.30,13.52,0.03,-0.25,-0.17
1131,6.28,-3.14,16.89,0.03,-0.25,-0.17
1136,6.13,-1.95,11.68,0.03,-0.25,-0.17
1140,6.13,-1.95,11.68,0.03,-0.48,-0.06
1145,6.13,-1.95,11.68,0.07,-0.35,-0.11
1150,6.13,-1.95,11.68,0.09,-0.19,-0.11
1156,6.13,-1.95,11.68,0.23,0.03,-0.04
1160,-2.18,1.68,11.41,0.23,0.03,-0.04
1165,3.52,0.34,11.88,0.23,0.03,-0.04
1171,3.52,0.34,11.88,0.26,0.49,0.10
1176,3.52,0.34,11.88,0.23,0.43,0.08
1181,-5.98,3.14,3.64,0.23,0.43,0.08
1185,-8.46,1.34,6.51,0.23,0.43,0.08
1191,-8.46,1.34,6.51,0.14,0.48,-0.03
1196,-8.46,1.34,6.51,0.09,0.56,-0.07
1200,-6.36,-1.91,15.02,0.09,0.56,-0.07
1205,-1.42,-3.03,11.92,0.09,0.56,-0.07
1210,1.34,-5.63,12.34,0.09,0.56,-0.07
1215,1.34,-5.63,12.34,0.07,-0.20,-0.14
1221,1.34,-5.63,12.34,0.13,-0.41,-0.04
1226,1.34,-5.63,12.34,0.13,-0.49,0.05
1230,2.26,0.34,6.51,0.13,-0.49,0.05
1235,1.84,1.68,6.02,0.13,-0.49,0.05
1240,-0.04,0.08,9.16,0.13,-0.49,0.05
1245,-0.04,0.08,9.16,0.09,-0.23,0.05
1250,-0.04,0.08,9.16,0.08,-0.20,0.06
1257,-0.04,0.08,9.16,0.11,-0.21,0.10
1261,-0.04,0.08,9.16,0.14,-0.15,0.14
1265,7.01,-2.11,16.62,0.14,-0.15,0.14
1270,-0.92,-1.27,10.65,0.14,-0.15,0.14
1276,-0.92,-1.27,10.65,0.14,0.10,0.01
1281,-0.92,-1.27,10.65,0.14,0.23,-0.01
1285,1.19,-3.10,7.97,0.14,0.23,-0.01
1290,-2.03,-1.30,5.52,0.14,0.23,-0.01
1296,-2.03,-1.30,5.52,0.16,0.13,0.04
1300,5.28,-0.23,0.65,0.16,0.13,0.04
1305,7.39,-1.42,1.99,0.16,0.13,0.04
1311,10.11,-1.95,7.59,0.16,0.13,0.04
1315,-3.95,1.95,6.17,0.16,0.13,0.04
1320,-4.37,0.69,10.92,0.16,0.13,0.04
1325,-4.37,0.69,10.92,0.10,-0.06,0.05
1331,-4.37,0.69,10.92,0.14,0.21,0.04
1335,-17.09,1.34,10.11,0.14,0.21,0.04
1340,-15.66,0.88,8.35,0.14,0.21,0.04
1346,-15.66,0.88,8.35,0.20,0.69,-0.02
1351,-15.66,0.88,8.35,0.22,0.46,-0.03
1355,4.21,0.88,0.34,0.22,0.46,-0.03
1360,11.95,2.76,1.11,0.22,0.46,-0.03
1366,11.95,2.76,1.11,-0.07,-0.96,0.06
1370,7.82,-0.69,13.79,-0.07,-0.96,0.06
1375,4.37,-1.53,17.89,-0.07,-0.96,0.06
1381,4.37,-1.53,17.89,-0.31,-1.21,-0.10
1386,4.37,-1.53,17.89,0.01,-0.75,-0.13
1390,0.65,-2.99,21.00,0.01,-0.75,-0.13
1395,-2.14,-1.04,15.67,0.01,-0.75,-0.13
1400,-2.14,-1.04,15.67,0.42,0.83,0.18
1406,-2.14,-1.04,15.67,0.37,0.82,0.20
1410,-1.80,-0.84,3.03,0.37,0.82,0.20
1416,4.21,0.11,9.27,0.37,0.82,0.20
1420,-1.38,-1.34,7.89,0.37,0.82,0.20
1425,-0.15,-1.88,11.72,0.37,0.82,0.20
1430,-0.88,-1.38,11.26,0.37,0.82,0.20
1435,-0.88,-1.38,11.26,0.12,-0.01,0.28
1441,-0.88,-1.38,11.26,0.08,0.04,0.24
1445,-4.86,0.69,2.34,0.08,0.04,0.24
1451,-3.83,0.88,-1.19,0.08,0.04,0.24
1455,0.92,-1.88,2.72,0.08,0.04,0.24
1460,-0.15,0.73,3.75,0.08,0.04,0.24
1465,4.48,-0.15,6.44,0.08,0.04,0.24
1470,3.22,0.65,9.04,0.08,0.04,0.24
1475,3.22,0.65,9.04,-0.14,-0.80,-0.00
1481,3.22,0.65,9.04,-0.12,-0.69,-0.06
1486,3.22,0.65,9.04,-0.08,-0.52,-0.04
1490,6.13,-2.95,14.98,-0.08,-0.52,-0.04
1495,5.44,-1.84,13.79,-0.08,-0.52,-0.04
1501,6.13,-1.72,10.88,-0.08,-0.52,-0.04
1505,5.29,-2.99,12.41,-0.08,-0.52,-0.04
1510,2.11,-0.65,9.69,-0.08,-0.52,-0.04
1515,-5.59,0.04,7.32,-0.08,-0.52,-0.04
1521,-5.59,0.04,7.32,0.17,0.23,0.28
1525,-6.86,4.41,7.13,0.17,0.23,0.28
1530,-3.91,3.07,5.44,0.17,0.23,0.28
1536,-2.53,1.57,5.55,0.17,0.23,0.28
1540,5.82,-2.41,9.08,0.17,0.23,0.28
1545,6.82,-2.07,6.78,0.17,0.23,0.28
1552,6.82,-2.07,6.78,0.00,-0.20,0.13
1556,6.82,-2.07,6.78,-0.03,-0.45,0.19
1560,-9.34,4.10,4.02,-0.03,-0.45,0.19
1565,-11.07,3.14,6.02,-0.03,-0.45,0.19
1571,-7.32,-0.15,10.27,-0.03,-0.45,0.19
1576,-7.43,0.38,12.30,-0.03,-0.45,0.19
1580,-7.43,0.38,12.30,0.01,0.38,0.06
1585,-7.66,-0.08,12.91,0.01,0.38,0.06
1591,-7.24,-1.34,11.54,0.01,0.38,0.06
1595,1.65,-0.92,11.80,0.01,0.38,0.06
1600,3.10,1.57,8.93,0.01,0.38,0.06
1605,-0.38,1.30,4.14,0.01,0.38,0.06
1611,-0.38,1.30,4.14,-0.15,-0.33,0.06
1616,-1.76,-2.57,7.13,-0.15,-0.33,0.06
1620,-6.44,-2.87,7.28,-0.15,-0.33,0.06
1625,-6.05,-1.95,8.28,-0.15,-0.33,0.06
1630,-2.53,-1.68,9.80,-0.15,-0.33,0.06
1635,-1.38,0.69,7.39,-0.15,-0.33,0.06
1641,0.11,0.38,7.89,-0.15,-0.33,0.06
1645,6.44,-0.84,6.21,-0.15,-0.33,0.06
1650,2.48,1.76,1.88,-0.15,-0.33,0.06
1655,7.20,-0.92,8.32,-0.15,-0.33,0.06
1661,7.20,-0.92,8.32,-0.03,-0.40,0.04
1665,-9.46,4.37,-0.30,-0.03,-0.40,0.04
1670,-1.46,0.54,8.81,-0.03,-0.40,0.04
1676,-3.26,2.53,8.35,-0.03,-0.40,0.04
1681,-5.52,2.61,4.02,-0.03,-0.40,0.04
1685,-5.52,2.61,4.02,-0.15,-0.04,-0.02
1690,9.65,-3.10,13.91,-0.15,-0.04,-0.02
1695,15.97,-4.25,22.26,-0.15,-0.04,-0.02
1700,17.32,-3.52,29.99,-0.15,-0.04,-0.02
1705,17.09,-3.14,30.26,-0.15,-0.04,-0.02
1711,3.71,0.08,27.78,-0.15,-0.04,-0.02
1716,0.00,-2.49,19.84,-0.15,-0.04,-0.02
1720,0.00,-2.49,19.84,0.16,0.49,0.04
1725,0.00,-2.49,19.84,0.28,0.76,0.08
1730,7.78,-3.37,11.11,0.28,0.76,0.08
1735,14.36,-4.41,10.46,0.28,0.76,0.08
1741,11.98,-2.95,10.38,0.28,0.76,0.08
1745,-1.53,1.23,4.55,0.28,0.76,0.08
1750,-9.23,4.10,8.89,0.28,0.76,0.08
1755,-12.48,3.68,10.11,0.28,0.76,0.08
1761,-15.82,6.17,8.35,0.28,0.76,0.08
1766,-6.44,-1.23,6.44,0.28,0.76,0.08
1770,-6.44,-1.23,6.44,-0.10,0.60,-0.34
1775,-5.74,-0.11,-0.57,-0.10,0.60,-0.34
1780,0.15,-1.38,0.23,-0.10,0.60,-0.34
1785,1.80,-2.04,0.80,-0.10,0.60,-0.34
1790,0.77,1.84,0.34,-0.10,0.60,-0.34
1796,0.42,-0.57,2.76,-0.10,0.60,-0.34
1801,-3.07,1.23,7.86,-0.10,0.60,-0.34
1805,-3.07,1.23,7.86,-0.22,-0.67,-0.24
1810,-2.38,0.80,12.30,-0.22,-0.67,-0.24
1815,-2.18,0.92,14.44,-0.22,-0.67,-0.24
1820,3.37,0.23,17.70,-0.22,-0.67,-0.24
1825,5.59,-0.11,12.87,-0.22,-0.67,-0.24
1831,2.61,0.73,11.84,-0.22,-0.67,-0.24
1836,9.31,-2.41,13.17,-0.22,-0.67,-0.24
1840,9.31,-2.41,13.17,0.18,-0.01,0.14
1845,9.31,-2.41,13.17,0.13,0.46,0.15
1851,-3.33,-0.30,11.68,0.13,0.46,0.15
1856,-4.33,-0.42,13.83,0.13,0.46,0.15
1860,-4.33,-0.42,13.83,0.16,0.83,0.06
1865,-4.33,-0.42,13.83,0.10,0.82,0.05
1870,-2.49,-1.04,5.55,0.10,0.82,0.05
1875,1.65,-1.53,4.33,0.10,0.82,0.05
1881,3.91,-2.30,6.09,0.10,0.82,0.05
1885,13.03,-3.48,5.13,0.10,0.82,0.05
1890,15.28,-1.80,7.28,0.10,0.82,0.05
1895,13.11,-2.87,8.08,0.10,0.82,0.05
1901,-11.30,0.46,10.61,0.10,0.82,0.05
1906,-23.71,0.34,15.05,0.10,0.82,0.05
1910,-23.71,0.34,15.05,-0.09,1.08,0.07
1915,-47.69,7.97,18.92,-0.09,1.08,0.07
1920,-7.73,1.53,7.51,-0.09,1.08,0.07
1925,2.34,-0.11,1.42,-0.09,1.08,0.07
1932,3.87,2.49,0.38,-0.09,1.08,0.07
1935,11.53,-0.38,-4.33,-0.09,1.08,0.07
1940,16.43,1.76,-3.91,-0.09,1.08,0.07
1947,19.08,-0.27,-2.57,-0.09,1.08,0.07
1950,8.08,-2.99,4.60,-0.09,1.08,0.07
1955,-9.12,2.80,14.29,-0.09,1.08,0.07
1960,-6.09,0.23,14.82,-0.09,1.08,0.07
1965,-4.33,-2.30,14.36,-0.09,1.08,0.07
1971,-1.57,-0.23,12.38,-0.09,1.08,0.07
1976,-3.07,2.18,-3.06,-0.09,1.08,0.07
1980,-3.07,2.18,-3.06,0.04,0.03,-0.12
1985,-3.07,2.18,-3.06,-0.12,-0.13,0.03
1990,21.95,-2.61,16.20,-0.12,-0.13,0.03
1995,27.84,-2.87,24.82,-0.12,-0.13,0.03
2002,28.77,-1.11,28.96,-0.12,-0.13,0.03
2005,8.96,-4.37,33.78,-0.12,-0.13,0.03
2010,-2.64,-6.17,27.50,-0.12,-0.13,0.03
2017,-13.29,-6.78,22.41,-0.12,-0.13,0.03
2020,-14.10,0.30,4.94,-0.12,-0.13,0.03
2025,-9.12,1.49,1.61,-0.12,-0.13,0.03
2032,-0.04,2.10,2.03,-0.12,-0.13,0.03
2036,8.46,1.57,-1.38,-0.12,-0.13,0.03
2041,5.21,3.56,-0.34,-0.12,-0.13,0.03
2045,5.21,3.56,-0.34,-0.17,-0.31,0.28
2050,5.21,3.56,-0.34,-0.23,-0.51,0.06
2055,-3.26,-2.72,8.54,-0.23,-0.51,0.06
2060,-6.21,-1.68,8.93,-0.23,-0.51,0.06
2065,-2.30,-3.79,13.57,-0.23,-0.51,0.06
2071,2.61,-3.95,14.68,-0.23,-0.51,0.06
2077,2.30,0.23,11.04,-0.23,-0.51,0.06
2080,2.30,0.23,11.04,-0.10,-0.46,0.07
2085,2.30,0.23,11.04,-0.09,-0.43,-0.06
2090,-11.15,1.99,-1.27,-0.09,-0.43,-0.06
2097,-11.15,0.73,2.11,-0.09,-0.43,-0.06
2100,-11.15,0.73,2.11,-0.04,0.04,-0.03
2106,-11.15,0.73,2.11,-0.05,0.07,0.05
2112,1.30,0.77,10.69,-0.05,0.07,0.05
2115,1.30,0.77,10.69,-0.11,-0.34,0.05
2120,1.30,0.77,10.69,-0.04,-0.62,0.02
2125,4.21,-0.38,3.03,-0.04,-0.62,0.02
2130,-0.73,-1.49,-1.30,-0.04,-0.62,0.02
2137,1.72,-1.76,6.40,-0.04,-0.62,0.02
2140,0.19,-1.84,10.46,-0.04,-0.62,0.02
2145,1.76,-3.91,18.31,-0.04,-0.62,0.02
2151,6.17,-5.90,25.40,-0.04,-0.62,0.02
2155,6.17,-5.90,25.40,-0.10,-0.43,0.07
2160,1.91,-4.83,24.82,-0.10,-0.43,0.07
2165,-2.99,-3.07,20.27,-0.10,-0.43,0.07
2172,0.38,-4.86,16.47,-0.10,-0.43,0.07
2175,-1.99,-1.42,10.15,-0.10,-0.43,0.07
2180,2.14,-1.46,6.62,-0.10,-0.43,0.07
2185,8.50,0.08,5.75,-0.10,-0.43,0.07
2191,13.98,-3.26,6.74,-0.10,-0.43,0.07
2195,7.97,-3.41,3.45,-0.10,-0.43,0.07
2201,-3.29,-1.49,5.32,-0.10,-0.43,0.07
2205,-3.29,-1.49,5.32,0.22,0.95,0.24
2210,-23.60,0.04,7.82,0.22,0.95,0.24
2215,-31.30,2.99,14.33,0.22,0.95,0.24
2221,-35.63,6.82,19.73,0.22,0.95,0.24
2226,-35.63,6.82,19.73,0.12,1.19,0.16
2232,1.04,0.23,8.12,0.12,1.19,0.16
2235,1.04,0.23,8.12,0.03,-0.32,0.17
2240,1.04,0.23,8.12,-0.06,-0.94,0.06
2245,1.04,0.23,8.12,-0.17,-1.25,-0.11
2251,7.77,-2.68,-3.87,-0.17,-1.25,-0.11
2255,7.77,-2.68,-3.87,-0.08,-1.28,-0.19
2260,-1.34,3.52,13.10,-0.08,-1.28,-0.19
2265,-1.30,1.99,15.48,-0.08,-1.28,-0.19
2271,-0.84,-1.38,22.22,-0.08,-1.28,-0.19
2275,-0.84,-1.38,22.22,-0.02,0.25,-0.07
2280,-10.80,-0.61,10.15,-0.02,0.25,-0.07
2286,-5.55,3.64,2.99,-0.02,0.25,-0.07
2290,-5.55,3.64,2.99,0.14,0.57,0.05
2296,6.71,-0.38,1.34,0.14,0.57,0.05
2301,11.76,-0.42,5.82,0.14,0.57,0.05
2305,11.76,-0.42,5.82,-0.20,-0.36,-0.11
2310,11.76,-0.42,5.82,-0.28,-0.49,-0.23
2315,1.00,-2.07,25.09,-0.28,-0.49,-0.23
2321,-1.04,-2.14,20.38,-0.28,-0.49,-0.23
2325,-1.04,-2.14,20.38,-0.03,0.44,-0.11
2331,14.10,-5.82,19.23,-0.03,0.44,-0.11
2337,11.61,-0.30,13.98,-0.03,0.44,-0.11
2340,11.61,-0.30,13.98,0.10,0.42,-0.02
2345,11.61,-0.30,13.98,0.12,0.66,-0.04
2350,-18.54,3.60,-5.55,0.12,0.66,-0.04
2356,-23.79,3.60,-8.96,0.12,0.66,-0.04
2360,-23.79,3.60,-8.96,-0.10,1.10,-0.00
2366,-23.79,3.60,-8.96,-0.03,0.90,0.10
2371,11.34,-2.14,6.44,-0.03,0.90,0.10
2375,11.34,-2.14,6.44,-0.42,-0.86,0.22
2380,11.34,-2.14,6.44,-0.36,-1.56,0.27
2386,36.70,0.77,33.29,-0.36,-1.56,0.27
2391,25.20,6.24,22.03,-0.36,-1.56,0.27
2395,25.20,6.24,22.03,0.23,-0.96,-0.18
2400,-13.41,-2.14,2.61,0.23,-0.96,-0.18
2405,-19.73,-4.10,4.06,0.23,-0.96,-0.18
2412,-15.66,-1.61,1.07,0.23,-0.96,-0.18
2416,-15.66,-1.61,1.07,0.12,1.04,-0.24
2420,12.22,-1.68,7.59,0.12,1.04,-0.24
2425,13.64,-3.22,10.92,0.12,1.04,-0.24
2432,10.39,-2.72,8.77,0.12,1.04,-0.24
2436,-0.19,1.49,9.89,0.12,1.04,-0.24
2441,-2.26,0.57,11.80,0.12,1.04,-0.24
2445,-2.26,0.57,11.80,-0.18,-0.36,-0.32
2451,-2.26,0.57,11.80,-0.04,-0.07,-0.41
2456,2.07,-0.42,10.50,-0.04,-0.07,-0.41
2460,2.07,-0.42,10.50,-0.04,0.13,-0.18
2465,2.07,-0.42,10.50,-0.07,0.02,-0.01
2470,6.17,-3.10,3.79,-0.07,0.02,-0.01
2476,4.29,-3.14,5.90,-0.07,0.02,-0.01
2480,4.29,-3.14,5.90,-0.12,-0.58,-0.01
2486,4.29,-3.14,5.90,-0.07,-0.48,-0.11
2491,0.00,-0.54,13.10,-0.07,-0.48,-0.11
2495,0.00,-0.54,13.10,-0.04,-0.25,-0.05
2500,0.00,-0.54,13.10,-0.05,-0.19,0.05
2506,0.00,-0.54,13.10,0.01,-0.13,0.10
2511,3.60,-3.48,14.13,0.01,-0.13,0.10
2515,3.60,-3.48,14.13,0.10,0.01,0.13
2520,-9.16,0.30,11.68,0.10,0.01,0.13
2525,-11.38,-0.65,10.61,0.10,0.01,0.13
2531,-10.53,1.49,10.04,0.10,0.01,0.13
2536,-10.53,1.49,10.04,0.15,0.62,0.22
2540,-5.02,-1.07,10.50,0.15,0.62,0.22
2545,-2.57,-1.76,6.29,0.15,0.62,0.22
2552,1.53,-2.72,5.44,0.15,0.62,0.22
2556,5.90,-1.04,3.29,0.15,0.62,0.22
2562,3.56,-0.11,-4.21,0.15,0.62,0.22
2565,3.56,-0.11,-4.21,-0.02,-0.64,0.41
2570,3.56,-0.11,-4.21,0.06,-0.79,0.37
2576,2.61,-5.44,0.04,0.06,-0.79,0.37
2581,-8.58,-0.80,18.20,0.06,-0.79,0.37
2585,-8.58,-0.80,18.20,0.19,0.97,0.23
2591,-40.68,1.27,38.23,0.19,0.97,0.23
2597,-6.63,0.15,25.21,0.19,0.97,0.23
2600,-6.63,0.15,25.21,0.23,1.08,0.40
2606,-6.63,0.15,25.21,0.26,0.54,0.45
2612,7.16,-1.00,0.19,0.26,0.54,0.45
2615,7.16,-1.00,0.19,0.05,-0.54,0.44
2620,7.16,-1.00,0.19,-0.09,-0.88,0.32
2626,7.16,-1.00,0.19,-0.02,-1.08,0.24
2632,13.87,-1.46,-2.64,-0.02,-1.08,0.24
2636,13.87,-1.46,-2.64,-0.06,-0.89,0.00
2640,13.87,-1.46,-2.64,-0.18,-0.42,-0.10
2645,13.87,-1.46,-2.64,-0.04,0.06,-0.08
2651,-7.51,-5.86,14.94,-0.04,0.06,-0.08
2656,-7.51,-5.86,14.94,0.02,0.35,0.27
2661,-7.51,-5.86,14.94,0.07,0.28,0.32
2666,12.95,-2.18,15.94,0.07,0.28,0.32
2671,12.95,-2.18,15.94,0.04,-0.14,0.18
2676,12.95,-2.18,15.94,0.02,-0.29,0.11
2682,-0.23,3.07,12.26,0.02,-0.29,0.11
2687,-0.23,3.07,12.26,0.17,0.19,0.08
2691,-0.23,3.07,12.26,0.10,0.59,0.14
2696,-5.79,2.64,18.04,0.10,0.59,0.14
2702,-9.12,2.45,16.12,0.10,0.59,0.14
2706,-9.12,2.45,16.12,-0.07,1.11,0.05
2711,-9.12,2.45,16.12,-0.01,0.79,0.04
2716,6.09,-1.49,8.88,-0.01,0.79,0.04
2720,6.09,-1.49,8.88,0.00,0.04,0.03
2726,6.09,-1.49,8.88,-0.03,-0.21,0.03
2732,2.41,3.60,1.00,-0.03,-0.21,0.03
2735,2.41,3.60,1.00,-0.18,-0.27,0.05
2740,2.41,3.60,1.00,-0.21,-0.09,0.00
2746,2.41,3.60,1.00,-0.25,0.07,-0.06
2752,-3.68,2.18,5.02,-0.25,0.07,-0.06
2756,-3.68,2.18,5.02,-0.24,0.02,-0.17
2760,-3.68,2.18,5.02,-0.24,-0.20,-0.14
2766,-3.68,2.18,5.02,-0.26,-0.51,-0.07
2771,13.83,-2.34,13.52,-0.26,-0.51,-0.07
2776,13.83,-2.34,13.52,-0.35,-0.91,-0.07
2781,13.83,-2.34,13.52,-0.30,-0.81,-0.13
2786,-7.20,-0.84,16.86,-0.30,-0.81,-0.13
2791,-7.20,-0.84,16.86,-0.16,0.54,-0.18
2796,-7.20,-0.84,16.86,-0.11,0.93,-0.22
2802,-7.82,1.84,9.89,-0.11,0.93,-0.22
2806,-7.82,1.84,9.89,0.01,0.92,-0.19
2810,-7.82,1.84,9.89,-0.04,0.63,-0.11
2816,1.68,-0.08,-5.55,-0.04,0.63,-0.11
2821,-0.23,1.04,-2.95,-0.04,0.63,-0.11
2827,-0.23,1.04,-2.95,-0.15,-0.28,-0.10
2832,-0.23,1.04,-2.95,-0.17,-0.40,-0.13
2837,1.46,3.79,4.48,-0.17,-0.40,-0.13
2840,1.46,3.79,4.48,-0.35,-0.47,-0.14
2846,1.46,3.79,4.48,-0.40,-0.51,-0.19
2851,2.99,-2.22,10.07,-0.40,-0.51,-0.19
2857,-3.91,-1.27,16.55,-0.40,-0.51,-0.19
2860,-3.91,-1.27,16.55,-0.04,-0.12,-0.24
2866,-3.91,-1.27,16.55,-0.02,0.19,-0.16
2871,-7.89,3.29,15.32,-0.02,0.19,-0.16
2876,-7.89,3.29,15.32,-0.14,0.52,-0.17
2880,-7.89,3.29,15.32,-0.19,0.45,-0.30
2886,-7.89,3.29,15.32,-0.19,0.30,-0.44
2891,7.66,-3.33,6.36,-0.19,0.30,-0.44
2896,7.66,-3.33,6.36,-0.11,-0.09,-0.39
2900,7.66,-3.33,6.36,-0.15,-0.13,-0.29
2905,7.66,-3.33,6.36,-0.16,0.00,-0.25
2912,-7.51,0.69,12.03,-0.16,0.00,-0.25
2916,-7.51,0.69,12.03,-0.20,0.28,-0.37
2921,-7.51,0.69,12.03,-0.09,0.33,-0.42
2927,3.60,-4.21,17.85,-0.09,0.33,-0.42
2931,3.60,-4.21,17.85,-0.01,0.06,-0.38
2936,3.60,-4.21,17.85,-0.03,-0.02,-0.36
2942,2.18,-1.04,-0.30,-0.03,-0.02,-0.36
2946,2.18,-1.04,-0.30,-0.07,-0.15,-0.25
2951,2.18,-1.04,-0.30,-0.11,-0.21,-0.19
2957,-3.41,-0.30,2.57,-0.11,-0.21,-0.19
2960,-3.41,-0.30,2.57,-0.22,-0.13,-0.25
2966,-3.41,-0.30,2.57,-0.14,-0.10,-0.30
2971,-3.41,-0.30,2.57,-0.09,0.00,-0.32
2976,-8.70,-0.73,15.82,-0.09,0.00,-0.32
2980,-8.70,-0.73,15.82,0.03,0.22,-0.24
2986,-8.70,-0.73,15.82,0.04,0.15,-0.17
2992,1.42,0.80,9.93,0.04,0.15,-0.17
2996,1.42,0.80,9.93,0.03,-0.19,-0.13
3000,1.42,0.80,9.93,0.10,-0.39,-0.11
3006,1.42,0.80,9.93,0.05,-0.50,-0.05
3012,-2.98,1.07,2.91,0.05,-0.50,-0.05
3016,-2.98,1.07,2.91,0.07,-0.25,0.10
3020,-2.98,1.07,2.91,0.08,-0.07,0.13
3026,-2.98,1.07,2.91,0.07,0.04,0.14
3032,3.75,-2.22,13.21,0.07,0.04,0.14
3036,3.75,-2.22,13.21,0.11,0.19,0.08
3041,3.75,-2.22,13.21,0.12,0.28,0.02
3048,-6.82,-1.15,4.37,0.12,0.28,0.02
3051,-6.82,-1.15,4.37,0.15,0.52,-0.09
3056,-6.82,-1.15,4.37,0.12,0.60,-0.13
3061,-13.21,2.07,-14.33,0.12,0.60,-0.13
3066,-13.21,2.07,-14.33,0.04,0.46,-0.16
3071,-13.21,2.07,-14.33,-0.01,0.22,-0.17
3076,18.28,-3.45,17.09,-0.01,0.22,-0.17
3081,25.32,-4.83,34.24,-0.01,0.22,-0.17
3086,25.32,-4.83,34.24,-0.28,-1.70,-0.07
3091,25.32,-4.83,34.24,-0.37,-1.84,-0.09
3097,0.30,0.23,34.86,-0.37,-1.84,-0.09
3100,0.30,0.23,34.86,0.05,0.69,-0.11
3106,0.30,0.23,34.86,0.02,1.59,-0.20
3111,-15.52,-1.38,-7.01,0.02,1.59,-0.20
3117,-7.55,-0.46,-9.30,0.02,1.59,-0.20
3120,-7.55,-0.46,-9.30,0.40,1.12,0.24
3126,-7.55,-0.46,-9.30,0.14,0.46,0.43
3132,11.19,4.79,4.10,0.14,0.46,0.43
3136,11.19,4.79,4.10,-0.18,-0.82,0.21
3141,11.19,4.79,4.10,-0.20,-0.97,-0.01
3147,11.19,4.79,4.10,-0.14,-0.96,-0.14
3150,11.19,4.79,4.10,-0.04,-0.77,-0.13
3156,11.19,4.79,4.10,0.06,-0.40,-0.07
3161,11.19,4.79,4.10,0.11,-0.13,0.06
3167,-2.49,0.04,-1.68,0.11,-0.13,0.06
3171,-2.49,0.04,-1.68,0.08,0.20,0.35
3176,-2.49,0.04,-1.68,0.01,0.16,0.39
3180,-2.14,4.10,17.28,0.01,0.16,0.39
3187,-1.46,2.30,19.50,0.01,0.16,0.39
3190,-1.46,2.30,19.50,0.05,0.06,0.03
3196,-14.40,1.46,4.33,0.05,0.06,0.03
3201,-15.48,0.61,0.23,0.05,0.06,0.03
3206,-15.48,0.61,0.23,0.08,0.35,0.18
3211,-15.48,0.61,0.23,0.01,0.15,0.26
3217,13.68,-2.53,5.67,0.01,0.15,0.26
3220,13.68,-2.53,5.67,-0.32,-0.83,0.12
3226,13.68,-2.53,5.67,-0.37,-1.19,-0.03
3231,13.68,-2.53,5.67,-0.15,-1.29,-0.08
3237,-6.70,-6.51,18.96,-0.15,-1.29,-0.08
3241,-6.70,-6.51,18.96,0.16,-0.58,0.02
3246,-6.70,-6.51,18.96,0.14,-0.04,0.14
3252,-1.80,-1.57,12.22,0.14,-0.04,0.14
3256,-1.80,-1.57,12.22,0.06,0.30,0.14
3261,-1.80,-1.57,12.22,0.10,0.07,0.10
3266,-1.80,-1.57,12.22,0.14,-0.12,0.08
3271,11.38,-4.37,-6.86,0.14,-0.12,0.08
3276,11.38,-4.37,-6.86,0.36,-0.23,0.09
3280,11.38,-4.37,-6.86,0.36,0.31,0.08
3285,11.38,-4.37,-6.86,0.15,1.19,0.15
3292,-46.66,2.68,33.25,0.15,1.19,0.15
3297,-46.66,2.68,33.25,-0.26,1.65,0.38
3300,22.56,-7.85,31.68,-0.26,1.65,0.38
3307,17.16,-3.10,27.35,-0.26,1.65,0.38
3311,17.16,-3.10,27.35,0.06,-0.68,0.25
3316,17.16,-3.10,27.35,0.37,-0.86,-0.01
3322,7.74,-8.85,-16.89,0.37,-0.86,-0.01
3326,7.74,-8.85,-16.89,0.74,-1.00,-0.27
3331,7.74,-8.85,-16.89,0.16,-0.90,-0.33
3337,-8.39,6.24,11.19,0.16,-0.90,-0.33
3340,-8.39,6.24,11.19,-0.29,-0.04,-0.29
3346,-8.39,6.24,11.19,-0.04,0.29,-0.09
3351,-8.39,6.24,11.19,0.12,0.71,0.12
3357,-19.61,2.41,6.09,0.12,0.71,0.12
3361,-19.61,2.41,6.09,0.19,1.16,0.27
3366,-19.61,2.41,6.09,0.20,0.93,0.23
3372,8.50,-0.84,-6.40,0.20,0.93,0.23
3376,8.50,-0.84,-6.40,-0.20,-0.12,0.15
3381,8.50,-0.84,-6.40,-0.36,-0.57,0.11
3386,8.50,-0.84,-6.40,-0.29,-0.59,-0.05
3392,1.15,-3.68,24.21,-0.29,-0.59,-0.05
3396,1.15,-3.68,24.21,-0.13,-0.31,-0.30
3400,1.15,-3.68,24.21,-0.01,-0.24,-0.19
3405,1.15,-3.68,24.21,0.09,-0.29,0.02
3412,10.30,-2.99,9.58,0.09,-0.29,0.02
3416,10.30,-2.99,9.58,0.19,-0.22,0.32
3421,8.84,-6.28,4.33,0.19,-0.22,0.32
3426,-0.23,7.55,11.19,0.19,-0.22,0.32
3431,-0.23,7.55,11.19,-0.04,0.20,0.20
3436,-0.23,7.55,11.19,-0.21,0.58,0.13
3441,9.35,-3.33,24.02,-0.21,0.58,0.13
3446,9.35,-3.33,24.02,0.03,0.45,0.15
3451,9.35,-3.33,24.02,0.01,0.21,0.13
3456,2.10,-1.65,-0.84,0.01,0.21,0.13
3462,-13.53,2.53,6.28,0.01,0.21,0.13
3466,-13.53,2.53,6.28,0.03,-0.10,-0.11
3471,-13.53,2.53,6.28,-0.03,-0.25,-0.12
3476,10.61,2.07,0.57,-0.03,-0.25,-0.12
3481,10.61,2.07,0.57,-0.12,-0.25,-0.19
3486,10.61,2.07,0.57,-0.33,0.06,-0.26
3491,-4.56,-0.61,27.23,-0.33,0.06,-0.26
3496,-13.83,-0.38,20.38,-0.33,0.06,-0.26
3501,-13.83,-0.38,20.38,-0.06,0.37,-0.19
3506,-13.83,-0.38,20.38,-0.05,0.49,-0.22
3511,-3.41,1.61,8.31,-0.05,0.49,-0.22
3516,-3.41,1.61,8.31,-0.07,0.31,-0.29
3521,-3.41,1.61,8.31,-0.06,0.01,-0.29
3527,-3.41,1.61,8.31,-0.11,-0.38,-0.24
3531,-3.41,1.61,8.31,-0.15,-0.71,-0.15
3536,-3.41,1.61,8.31,-0.14,-0.83,-0.11
3541,-3.41,1.61,8.31,-0.15,-0.69,-0.11
3546,-1.11,0.11,13.59,-0.15,-0.69,-0.11
3551,-1.11,0.11,13.59,-0.10,-0.11,-0.21
3556,-1.11,0.11,13.59,-0.09,0.07,-0.20
3562,-1.11,0.11,13.59,-0.01,0.15,-0.13
3566,-1.11,0.11,13.59,0.04,0.20,-0.06
3571,-1.11,0.11,13.59,0.07,0.27,-0.04
3576,-1.11,0.11,13.59,0.06,0.35,-0.07
3582,-3.48,5.36,10.45,0.06,0.35,-0.07
3586,-3.48,5.36,10.45,-0.02,0.46,-0.16
3591,-3.48,5.36,10.45,-0.11,0.42,-0.14
3596,-3.48,5.36,10.45,-0.13,0.24,-0.11
3601,-3.48,5.36,10.45,-0.13,0.02,-0.09
3606,-3.48,5.36,10.45,-0.09,-0.22,-0.08
3611,-3.48,5.36,10.45,-0.05,-0.45,-0.05
3616,8.08,-1.27,12.87,-0.05,-0.45,-0.05
3621,8.08,-1.27,12.87,-0.06,-0.82,0.16
3626,8.08,-1.27,12.87,-0.10,-0.90,0.22
3632,8.08,-1.27,12.87,-0.11,-0.80,0.21
3636,8.08,-1.27,12.87,-0.10,-0.63,0.16
3641,8.08,-1.27,12.87,0.16,-0.33,0.15
3646,8.08,-1.27,12.87,0.10,0.24,0.22
3652,-5.82,-2.95,14.82,0.10,0.24,0.22
3656,-5.82,-2.95,14.82,0.09,0.76,0.15
3661,-5.82,-2.95,14.82,0.10,0.69,0.09
3667,-5.82,-2.95,14.82,0.06,0.49,0.06
3671,-5.82,-2.95,14.82,0.03,0.25,0.08
3676,-5.82,-2.95,14.82,0.07,0.03,0.12
3681,-5.82,-2.95,14.82,-0.00,-0.11,0.16
3686,-3.56,-0.77,-0.50,-0.00,-0.11,0.16
3691,-3.56,-0.77,-0.50,-0.05,-0.06,0.09
3696,-3.56,-0.77,-0.50,-0.07,0.11,-0.00
3701,-3.56,-0.77,-0.50,-0.05,0.24,-0.06
3706,-3.56,-0.77,-0.50,-0.01,0.23,-0.07
3711,-3.56,-0.77,-0.50,-0.01,0.06,-0.01
3716,-3.56,-0.77,-0.50,-0.01,-0.17,0.06
3721,-3.56,-0.77,-0.50,-0.04,-0.41,0.10
3727,-3.56,-0.77,-0.50,-0.07,-0.54,0.07
3731,-3.56,-0.77,-0.50,-0.08,-0.57,0.02
3736,-6.86,-4.71,9.00,-0.08,-0.57,0.02
3741,-6.86,-4.71,9.00,0.13,0.06,0.01
3746,-6.86,-4.71,9.00,0.17,0.57,0.06
3752,-6.86,-4.71,9.00,0.26,0.87,0.10
3756,-6.86,-4.71,9.00,0.08,1.01,0.13
3761,-6.86,-4.71,9.00,0.10,0.92,0.17
3766,-6.86,-4.71,9.00,0.01,0.40,0.21
3771,16.74,-3.48,21.18,0.01,0.40,0.21
3776,16.74,-3.48,21.18,-0.21,-0.72,0.12
3781,16.74,-3.48,21.18,-0.24,-0.97,-0.03
3787,16.74,-3.48,21.18,-0.05,-0.87,-0.16
3791,16.74,-3.48,21.18,0.22,-0.38,-0.22
3796,16.74,-3.48,21.18,0.44,0.29,-0.15
3801,16.74,-3.48,21.18,0.11,0.79,-0.06
3807,16.74,-3.48,21.18,0.12,0.97,0.02
3811,16.74,-3.48,21.18,0.12,0.90,0.05
3816,16.74,-3.48,21.18,-0.02,0.66,0.03
3821,16.74,-3.48,21.18,0.13,0.45,-0.06
3826,16.74,-3.48,21.18,0.03,0.32,-0.16
3831,16.74,-3.48,21.18,-0.02,0.21,-0.17
3836,16.74,-3.48,21.18,-0.14,0.10,-0.13
3841,-1.68,6.44,14.36,-0.14,0.10,-0.13
3846,-1.68,6.44,14.36,-0.29,-0.14,-0.13
3851,-1.68,6.44,14.36,-0.33,-0.45,-0.20
3856,-1.68,6.44,14.36,-0.25,-0.59,-0.29
3861,-1.68,6.44,14.36,-0.16,-0.53,-0.33
3866,-1.68,6.44,14.36,-0.16,-0.39,-0.25
3871,-1.68,6.44,14.36,-0.12,-0.31,-0.08
3876,4.37,1.23,10.03,-0.12,-0.31,-0.08
3881,4.37,1.23,10.03,-0.25,-0.23,0.01
3886,4.37,1.23,10.03,-0.29,-0.21,-0.12
3891,4.37,1.23,10.03,-0.22,-0.17,-0.23
3896,4.37,1.23,10.03,-0.20,-0.04,-0.28
3901,4.37,1.23,10.03,-0.12,0.11,-0.22
3905,4.37,1.23,10.03,-0.14,0.17,-0.11
3911,6.89,-2.49,15.52,-0.14,0.17,-0.11
3916,6.89,-2.49,15.52,-0.11,0.08,-0.07
3921,6.89,-2.49,15.52,-0.12,0.06,-0.15
3926,6.89,-2.49,15.52,-0.07,0.14,-0.24
3931,6.89,-2.49,15.52,-0.01,0.33,-0.27
3936,6.89,-2.49,15.52,0.03,0.49,-0.24
3940,6.89,-2.49,15.52,0.00,0.47,-0.17
3946,9.27,-0.19,2.11,0.00,0.47,-0.17
3951,9.27,-0.19,2.11,-0.09,-0.11,-0.07
3956,9.27,-0.19,2.11,-0.13,-0.29,-0.10
3961,9.27,-0.19,2.11,-0.20,-0.22,-0.18
3966,9.27,-0.19,2.11,-0.17,-0.06,-0.26
3971,9.27,-0.19,2.11,-0.17,0.17,-0.34
3976,9.27,-0.19,2.11,-0.15,0.26,-0.39
3981,9.27,-0.19,2.11,-0.05,0.15,-0.40
3986,9.27,-0.19,2.11,-0.06,0.01,-0.40
3991,9.27,-0.19,2.11,-0.02,-0.13,-0.38
3996,-3.26,-3.41,-2.61,-0.02,-0.13,-0.38
4001,-3.26,-3.41,-2.61,-0.02,-0.30,-0.23
4006,-3.26,-3.41,-2.61,-0.09,-0.38,-0.16
4011,-3.26,-3.41,-2.61,-0.13,-0.49,-0.13
4016,-3.26,-3.41,-2.61,-0.17,-0.38,-0.19
4021,-3.26,-3.41,-2.61,-0.12,-0.18,-0.29
4026,-3.26,-3.41,-2.61,-0.08,-0.03,-0.32
4032,0.38,-0.88,7.09,-0.08,-0.03,-0.32
4036,0.38,-0.88,7.09,0.08,0.10,-0.12
4041,0.38,-0.88,7.09,0.04,0.14,-0.04
4046,0.38,-0.88,7.09,-0.07,0.12,-0.05
4051,0.38,-0.88,7.09,-0.11,-0.00,-0.14
4056,0.38,-0.88,7.09,-0.17,-0.18,-0.27
4061,0.38,-0.88,7.09,-0.04,-0.19,-0.39
4066,-0.42,-3.91,7.85,-0.04,-0.19,-0.39
4071,-0.42,-3.91,7.85,0.12,0.04,-0.31
4076,-0.42,-3.91,7.85,0.08,0.23,-0.13
4081,-0.42,-3.91,7.85,0.04,0.40,-0.01
4086,-0.42,-3.91,7.85,-0.10,0.36,0.00
4091,-0.42,-3.91,7.85,-0.14,0.01,-0.03
4095,-0.42,-3.91,7.85,-0.18,-0.48,-0.08
4101,18.66,-6.05,15.21,-0.18,-0.48,-0.08
4106,18.66,-6.05,15.21,-0.11,-0.92,-0.14
4111,18.66,-6.05,15.21,0.03,-0.53,-0.21
4116,18.66,-6.05,15.21,0.20,0.02,-0.21
4121,18.66,-6.05,15.21,0.31,0.39,-0.15
4126,18.66,-6.05,15.21,-0.06,0.67,-0.14
4130,18.66,-6.05,15.21,-0.08,0.65,-0.10
4136,20.69,-3.83,27.88,-0.08,0.65,-0.10
4141,20.69,-3.83,27.88,-0.25,-0.49,0.12
4146,20.69,-3.83,27.88,-0.04,-0.79,0.14
4151,20.69,-3.83,27.88,0.01,-0.77,0.04
4156,20.69,-3.83,27.88,0.17,-0.59,-0.05
4161,20.69,-3.83,27.88,0.53,0.15,-0.05
4165,20.69,-3.83,27.88,0.17,0.91,-0.00
4171,-3.45,-0.96,20.65,0.17,0.91,-0.00
4176,-3.45,-0.96,20.65,0.26,1.16,0.08
4181,-3.45,-0.96,20.65,0.28,0.96,0.18
4187,-3.45,-0.96,20.65,0.22,0.58,0.24
4191,-3.45,-0.96,20.65,0.14,0.09,0.23
4196,-3.45,-0.96,20.65,0.13,-0.39,0.16
4200,-3.45,-0.96,20.65,-0.01,-0.77,0.04
4206,1.49,0.92,-4.41,-0.01,-0.77,0.04
4211,1.49,0.92,-4.41,-0.18,-1.11,-0.11
4216,1.49,0.92,-4.41,-0.17,-0.97,-0.16
4221,1.49,0.92,-4.41,-0.20,-0.77,-0.17
4226,1.49,0.92,-4.41,-0.12,-0.70,-0.11
4231,1.49,0.92,-4.41,0.18,-0.64,-0.02
4235,1.49,0.92,-4.41,0.25,-0.21,0.06
4241,12.49,-5.36,26.86,0.25,-0.21,0.06
4246,12.49,-5.36,26.86,0.15,0.70,0.06
4250,12.49,-5.36,26.86,0.33,0.61,0.04
4256,-28.69,1.57,22.37,0.33,0.61,0.04
4261,-28.69,1.57,22.37,0.29,0.94,-0.02
4266,-28.69,1.57,22.37,0.30,1.08,-0.01
4270,-28.69,1.57,22.37,0.26,0.85,0.12
4276,2.07,-0.69,6.74,0.26,0.85,0.12
4281,2.07,-0.69,6.74,0.30,0.43,0.31
4285,2.07,-0.69,6.74,0.31,0.30,0.31
4291,-3.60,-0.19,-7.27,0.31,0.30,0.31
4296,-3.60,-0.19,-7.27,0.20,0.38,0.11
4301,-3.60,-0.19,-7.27,0.08,0.64,0.03
4305,-3.60,-0.19,-7.27,0.08,0.77,0.01
4311,6.93,-1.84,11.26,0.08,0.77,0.01
4316,6.93,-1.84,11.26,0.02,-0.21,0.04
4320,6.93,-1.84,11.26,-0.05,-0.70,-0.04
4326,-8.89,-0.27,-0.08,-0.05,-0.70,-0.04
4331,-8.89,-0.27,-0.08,0.02,-0.76,-0.38
4336,-8.89,-0.27,-0.08,-0.07,-0.52,-0.44
4340,-8.89,-0.27,-0.08,0.01,-0.29,-0.39
4346,-2.18,0.77,13.29,0.01,-0.29,-0.39
4351,-2.18,0.77,13.29,-0.10,-0.21,-0.21
4355,-2.18,0.77,13.29,-0.12,-0.56,-0.12
4361,8.81,-1.80,16.25,-0.12,-0.56,-0.12
4366,8.81,-1.80,16.25,0.01,-0.87,-0.03
4371,8.81,-1.80,16.25,0.28,-0.57,-0.01
4376,8.81,-1.80,16.25,0.18,-0.08,0.04
4381,17.35,-1.76,18.80,0.18,-0.08,0.04
4386,17.35,-1.76,18.80,0.16,0.24,0.04
4390,17.35,-1.76,18.80,0.15,0.33,0.07
4396,3.60,-3.07,19.84,0.15,0.33,0.07
4401,3.60,-3.07,19.84,0.21,0.83,0.13
4406,3.60,-3.07,19.84,0.29,1.10,0.06
4411,3.60,-3.07,19.84,0.35,1.33,0.03
4416,-1.00,1.61,5.70,0.35,1.33,0.03
4421,-1.00,1.61,5.70,0.33,1.34,0.15
4425,-1.00,1.61,5.70,0.29,1.23,0.22
4431,-16.13,2.95,0.80,0.29,1.23,0.22
4436,-16.13,2.95,0.80,0.17,0.87,0.18
4441,-16.13,2.95,0.80,0.14,0.66,0.05
4446,-16.13,2.95,0.80,0.08,0.34,-0.06
4451,-16.13,2.95,0.80,0.03,-0.10,-0.09
4456,-16.13,2.95,0.80,-0.04,-0.63,-0.05
4460,-16.13,2.95,0.80,-0.14,-1.17,0.02
4466,11.95,-2.07,5.67,-0.14,-1.17,0.02
4471,11.95,-2.07,5.67,-0.28,-1.83,0.02
4475,11.95,-2.07,5.67,-0.26,-1.82,-0.03
4481,11.95,-2.07,5.67,-0.22,-1.67,-0.05
4486,11.95,-2.07,5.67,0.06,-1.32,-0.02
4491,11.95,-2.07,5.67,0.26,-0.26,0.12
4495,11.95,-2.07,5.67,0.03,0.68,0.19
4501,1.80,-3.26,16.89,0.03,0.68,0.19
4506,1.80,-3.26,16.89,0.23,0.57,0.18
4510,1.80,-3.26,16.89,0.21,0.27,0.21
4516,4.37,-2.84,5.17,0.21,0.27,0.21
4521,4.37,-2.84,5.17,0.11,-0.21,0.18
4526,4.37,-2.84,5.17,0.11,-0.28,0.14
4531,4.37,-2.84,5.17,0.14,-0.21,0.14
4536,-2.22,0.08,7.21,0.14,-0.21,0.14
4541,-2.22,0.08,7.21,0.26,0.13,0.30
4545,-2.22,0.08,7.21,0.24,0.27,0.40
4551,-1.04,0.80,9.34,0.24,0.27,0.40
4556,-1.04,0.80,9.34,0.19,0.32,0.40
4561,-1.04,0.80,9.34,0.14,0.24,0.33
4566,-1.04,0.80,9.34,0.12,0.14,0.27
4571,-6.74,1.19,7.35,0.12,0.14,0.27
4576,-6.74,1.19,7.35,0.12,0.16,0.26
4580,-6.74,1.19,7.35,0.09,0.28,0.25
4586,-11.80,2.45,14.14,0.09,0.28,0.25
4591,-11.80,2.45,14.14,0.02,0.30,0.18
4596,-11.80,2.45,14.14,-0.02,0.09,0.16
4601,-11.80,2.45,14.14,-0.06,-0.22,0.14
4606,10.92,-3.56,7.93,-0.06,-0.22,0.14
4611,10.92,-3.56,7.93,-0.14,-0.82,0.07
4615,10.92,-3.56,7.93,-0.15,-0.97,0.07
4621,9.61,-2.91,3.18,-0.15,-0.97,0.07
4626,9.61,-2.91,3.18,-0.07,-0.84,0.12
4630,9.61,-2.91,3.18,-0.01,-0.53,0.14
4636,9.61,-2.91,3.18,0.05,-0.04,0.14
4641,-0.96,-1.11,15.86,0.05,-0.04,0.14
4646,-0.96,-1.11,15.86,0.10,0.47,0.11
4650,-0.96,-1.11,15.86,0.09,0.45,0.09
4656,0.57,-1.61,6.86,0.09,0.45,0.09
4661,0.57,-1.61,6.86,0.07,0.23,-0.04
4665,0.57,-1.61,6.86,0.05,0.08,-0.08
4671,0.57,-1.61,6.86,0.03,-0.05,-0.06
4676,-0.15,-0.84,9.04,0.03,-0.05,-0.06
4681,-0.15,-0.84,9.04,-0.03,-0.17,0.04
4685,-0.15,-0.84,9.04,-0.02,-0.16,0.04
4691,-0.69,-1.04,14.75,-0.02,-0.16,0.04
4695,-0.69,-1.04,14.75,0.00,-0.10,-0.05
4700,-0.69,-1.04,14.75,0.02,-0.09,-0.05
4706,-0.69,-1.04,14.75,0.04,-0.08,-0.01
4711,-0.69,-1.04,14.75,0.02,-0.09,0.03
4716,-0.69,-1.04,14.75,0.00,-0.08,0.02
4720,-0.69,-1.04,14.75,-0.01,-0.05,0.01
4726,-0.34,0.80,9.77,-0.01,-0.05,0.01
4731,-0.34,0.80,9.77,0.01,0.08,0.01
4735,-0.34,0.80,9.77,0.01,0.15,0.01
4741,-0.34,0.80,9.77,0.01,0.21,-0.02
4746,-3.33,1.38,8.12,0.01,0.21,-0.02
4751,-3.33,1.38,8.12,-0.04,0.13,-0.09
4755,-3.33,1.38,8.12,-0.06,0.04,-0.10
4761,-0.92,0.04,5.67,-0.06,0.04,-0.10
4766,-0.92,0.04,5.67,-0.10,-0.21,-0.08
4770,-0.92,0.04,5.67,-0.10,-0.31,-0.06
4776,0.38,-0.23,9.81,-0.10,-0.31,-0.06
4781,0.38,-0.23,9.81,-0.08,-0.29,-0.06
4786,0.38,-0.23,9.81,-0.06,-0.19,-0.04
4791,0.38,-0.23,9.81,-0.04,-0.08,-0.02
4796,-1.15,-0.23,9.77,-0.04,-0.08,-0.02
4801,-1.15,-0.23,9.77,0.00,0.10,0.00
4805,-1.15,-0.23,9.77,0.01,0.13,0.00
4811,0.08,0.30,10.27,0.01,0.13,0.00
4815,0.08,0.30,10.27,0.02,0.12,-0.01
4820,0.08,0.30,10.27,0.01,0.09,-0.01
4826,0.08,0.30,10.27,0.01,0.09,-0.02
4831,-2.14,-0.04,8.27,0.01,0.09,-0.02
4836,-2.14,-0.04,8.27,-0.02,0.07,-0.02
4840,-2.14,-0.04,8.27,-0.03,0.02,-0.03
4846,-2.14,-0.04,8.27,-0.04,-0.04,-0.04
4851,-2.14,-0.04,8.27,-0.05,-0.10,-0.05
4856,-2.14,-0.04,8.27,-0.05,-0.15,-0.05
4861,-2.14,-0.04,8.27,-0.07,-0.14,-0.06
4866,-0.15,0.34,11.34,-0.07,-0.14,-0.06
4871,-0.15,0.34,11.34,-0.06,-0.07,-0.08
4875,-0.15,0.34,11.34,-0.06,-0.02,-0.10
4881,-1.38,-0.11,11.53,-0.06,-0.02,-0.10
4886,-1.38,-0.11,11.53,-0.04,0.07,-0.10
4890,-1.38,-0.11,11.53,-0.04,0.09,-0.10
4896,-1.38,-0.11,11.53,-0.04,0.07,-0.10
4901,1.15,-0.15,10.46,-0.04,0.07,-0.10
4906,1.15,-0.15,10.46,-0.08,-0.01,-0.13
4911,1.15,-0.15,10.46,-0.09,-0.04,-0.14
4916,-0.38,-0.57,8.96,-0.09,-0.04,-0.14
4921,-0.38,-0.57,8.96,-0.09,0.00,-0.16
4826,0.08,0.30,10.27,0.01,0.09,-0.02
4831,-2.14,-0.04,8.27,0.01,0.09,-0.02
4836,-2.14,-0.04,8.27,-0.02,0.07,-0.02
4840,-2.14,-0.04,8.27,-0.03,0.02,-0.03
4846,-2.14,-0.04,8.27,-0.04,-0.04,-0.04
4851,-2.14,-0.04,8.27,-0.05,-0.10,-0.05
4856,-2.14,-0.04,8.27,-0.05,-0.15,-0.05
4861,-2.14,-0.04,8.27,-0.07,-0.14,-0.06
4866,-0.15,0.34,11.34,-0.07,-0.14,-0.06
4871,-0.15,0.34,11.34,-0.06,-0.07,-0.08
4875,-0.15,0.34,11.34,-0.06,-0.02,-0.10
4881,-1.38,-0.11,11.53,-0.06,-0.02,-0.10
4886,-1.38,-0.11,11.53,-0.04,0.07,-0.10
4890,-1.38,-0.11,11.53,-0.04,0.09,-0.10
4896,-1.38,-0.11,11.53,-0.04,0.07,-0.10
4901,1.15,-0.15,10.46,-0.04,0.07,-0.10
