timestamp,accX,accY,accZ,gyroX,gyroY,gyroZ
Right
8,4.18,-0.92,9.50,-0.00,-0.03,0.11
19,4.18,-0.92,9.50,0.00,-0.11,0.07
21,4.18,-0.92,9.50,-0.37,-0.03,-0.09
23,4.18,-0.92,9.50,-0.39,0.02,-0.14
26,-0.46,-1.11,8.01,-0.39,0.02,-0.14
31,-0.46,-1.11,8.01,-0.37,0.07,-0.16
38,-2.30,0.38,6.55,-0.37,0.07,-0.16
41,-2.30,0.38,6.55,-0.33,0.20,-0.10
46,1.23,0.80,8.23,-0.33,0.20,-0.10
52,0.80,1.15,7.59,-0.33,0.20,-0.10
56,0.80,1.15,7.59,-0.30,0.19,-0.06
61,0.80,1.15,7.59,-0.31,0.15,-0.05
67,-1.49,3.33,7.82,-0.31,0.15,-0.05
71,-1.49,3.33,7.82,-0.32,0.20,-0.04
76,-1.49,3.33,7.82,-0.32,0.32,-0.03
81,-1.49,3.33,7.82,-0.33,0.43,-0.02
87,-7.05,0.11,9.58,-0.33,0.43,-0.02
91,-7.05,0.11,9.58,-0.33,0.43,0.04
96,-7.05,0.11,9.58,-0.35,0.30,0.06
102,2.57,0.96,8.28,-0.35,0.30,0.06
106,2.57,0.96,8.28,-0.43,-0.24,0.02
112,2.57,0.96,8.28,-0.47,-0.50,-0.02
116,4.06,0.69,5.86,-0.47,-0.50,-0.02
122,3.79,-0.38,8.27,-0.47,-0.50,-0.02
126,3.79,-0.38,8.27,-0.41,-0.41,0.01
132,3.79,-0.38,8.27,-0.43,-0.18,0.06
137,-2.34,-0.73,17.32,-0.43,-0.18,0.06
141,-2.34,-0.73,17.32,-0.38,0.23,-0.01
146,-2.34,-0.73,17.32,-0.34,0.26,-0.11
152,4.86,-2.22,16.55,-0.34,0.26,-0.11
156,4.86,-2.22,16.55,-0.27,0.14,-0.21
162,4.86,-2.22,16.55,-0.28,0.06,-0.21
166,4.86,-2.22,16.55,-0.34,-0.05,-0.22
172,9.16,-6.70,11.26,-0.34,-0.05,-0.22
176,9.16,-6.70,11.26,-0.35,-0.12,-0.31
181,9.16,-6.70,11.26,-0.36,-0.02,-0.34
187,1.19,-0.27,15.55,-0.36,-0.02,-0.34
192,1.19,-0.27,15.55,-0.32,0.39,-0.40
196,1.19,-0.27,15.55,-0.32,0.57,-0.45
201,1.19,-0.27,15.55,-0.32,0.65,-0.48
208,-1.68,-1.88,7.12,-0.32,0.65,-0.48
211,-1.68,-1.88,7.12,-0.32,0.47,-0.46
216,-1.68,-1.88,7.12,-0.35,0.31,-0.43
221,-1.68,-1.88,7.12,-0.38,0.10,-0.41
227,0.00,0.92,5.52,-0.38,0.10,-0.41
231,0.00,0.92,5.52,-0.41,-0.35,-0.39
236,0.00,0.92,5.52,-0.36,-0.51,-0.37
243,-0.84,-1.76,12.30,-0.36,-0.51,-0.37
246,-0.84,-1.76,12.30,-0.25,-0.41,-0.29
251,-0.84,-1.76,12.30,-0.21,-0.24,-0.20
257,-3.71,-1.61,13.41,-0.21,-0.24,-0.20
261,-3.71,-1.61,13.41,-0.15,0.05,-0.04
266,-3.71,-1.61,13.41,-0.16,0.09,-0.01
271,-2.72,-0.69,7.73,-0.16,0.09,-0.01
277,0.38,-1.42,8.42,-0.16,0.09,-0.01
281,0.38,-1.42,8.42,-0.23,0.07,-0.06
286,0.38,-1.42,8.42,-0.25,0.05,0.02
292,-3.87,-0.92,7.51,-0.25,0.05,0.02
297,-3.87,-0.92,7.51,-0.20,0.21,0.17
302,-3.87,-0.92,7.51,-0.17,0.27,0.21
307,-3.95,1.72,8.70,-0.17,0.27,0.21
312,-3.95,1.72,8.70,-0.19,0.29,0.21
316,-3.95,1.72,8.70,-0.17,0.21,0.21
321,-3.95,1.72,8.70,-0.19,0.09,0.22
326,-1.11,-2.91,8.74,-0.19,0.09,0.22
331,-1.11,-2.91,8.74,-0.17,0.02,0.21
338,-1.11,-2.91,8.74,-0.09,0.08,0.25
342,-1.11,-2.91,8.74,-0.08,0.18,0.30
347,-1.11,-2.91,8.74,-0.10,0.26,0.30
351,-1.11,-2.91,8.74,-0.16,0.30,0.22
356,-1.11,-2.91,8.74,-0.29,0.30,0.11
362,3.14,-6.17,7.27,-0.29,0.30,0.11
366,3.14,-6.17,7.27,-0.29,-0.06,0.03
371,3.14,-6.17,7.27,-0.31,-0.29,0.03
377,7.39,-0.27,19.12,-0.31,-0.29,0.03
381,7.39,-0.27,19.12,-0.24,-0.31,-0.07
386,7.39,-0.27,19.12,-0.25,-0.07,-0.17
392,-8.01,-2.87,9.27,-0.25,-0.07,-0.17
397,-6.51,-3.07,9.42,-0.25,-0.07,-0.17
401,-6.51,-3.07,9.42,-0.16,0.68,-0.26
406,-6.51,-3.07,9.42,-0.17,0.64,-0.22
412,2.64,6.82,6.93,-0.17,0.64,-0.22
416,2.64,6.82,6.93,-0.37,0.22,-0.30
421,2.64,6.82,6.93,-0.49,0.05,-0.47
426,2.64,6.82,6.93,-0.57,-0.09,-0.65
432,5.59,0.73,10.84,-0.57,-0.09,-0.65
436,5.59,0.73,10.84,-0.57,-0.13,-0.79
441,5.59,0.73,10.84,-0.50,-0.06,-0.75
447,-0.46,2.61,12.03,-0.50,-0.06,-0.75
451,-0.46,2.61,12.03,-0.43,0.13,-0.59
456,-0.46,2.61,12.03,-0.52,0.13,-0.60
461,-0.46,2.61,12.03,-0.62,0.02,-0.70
468,1.27,5.64,4.86,-0.62,0.02,-0.70
472,1.27,5.64,4.86,-0.74,-0.14,-1.04
476,1.27,5.64,4.86,-0.73,-0.21,-1.05
482,2.03,1.88,14.40,-0.73,-0.21,-1.05
486,2.03,1.88,14.40,-0.62,-0.19,-0.90
491,2.03,1.88,14.40,-0.62,-0.11,-0.96
497,4.41,3.87,14.02,-0.62,-0.11,-0.96
503,0.57,2.84,10.77,-0.62,-0.11,-0.96
507,0.57,2.84,10.77,-0.67,0.09,-1.48
511,0.57,2.84,10.77,-0.67,0.10,-1.52
517,0.42,1.88,6.28,-0.67,0.10,-1.52
521,0.42,1.88,6.28,-0.75,0.11,-1.58
526,0.42,1.88,6.28,-0.76,0.13,-1.68
532,-0.73,-1.11,8.62,-0.76,0.13,-1.68
536,-0.73,-1.11,8.62,-0.67,0.23,-1.84
541,-0.73,-1.11,8.62,-0.68,0.34,-1.91
546,-0.73,-1.11,8.62,-0.62,0.38,-1.90
552,-3.45,-1.04,8.24,-0.62,0.38,-1.90
556,-3.45,-1.04,8.24,-0.50,0.31,-1.80
561,-3.45,-1.04,8.24,-0.45,0.21,-1.78
566,-3.45,-1.04,8.24,-0.40,0.12,-1.73
571,-3.41,-0.23,9.27,-0.40,0.12,-1.73
577,-3.41,-0.23,9.27,-0.35,0.07,-1.65
582,-3.41,-0.23,9.27,-0.27,-0.05,-1.42
586,-3.41,-0.23,9.27,-0.25,-0.09,-1.35
591,-3.41,-0.23,9.27,-0.28,-0.13,-1.31
596,-3.41,-0.23,9.27,-0.31,-0.25,-1.27
602,-3.41,-0.23,9.27,-0.32,-0.35,-1.29
606,-3.41,-0.23,9.27,-0.28,-0.25,-1.38
611,-3.41,-0.23,9.27,-0.20,0.15,-1.43
617,-3.41,-0.23,9.27,-0.08,0.60,-1.29
622,-14.52,0.00,13.83,-0.08,0.60,-1.29
626,-14.52,0.00,13.83,0.11,1.08,-0.84
631,-14.52,0.00,13.83,0.06,1.01,-0.66
637,2.99,8.39,11.88,0.06,1.01,-0.66
641,2.99,8.39,11.88,-0.14,0.60,-0.84
646,2.99,8.39,11.88,-0.16,0.33,-1.02
651,2.99,8.39,11.88,-0.10,0.11,-1.10
657,-3.33,-11.84,6.24,-0.10,0.11,-1.10
661,-3.33,-11.84,6.24,0.05,-0.03,-0.68
666,-3.33,-11.84,6.24,0.14,-0.03,-0.33
672,-8.70,-3.26,13.79,0.14,-0.03,-0.33
676,-8.70,-3.26,13.79,0.15,0.05,-0.08
681,-8.70,-3.26,13.79,0.18,-0.01,-0.17
687,-8.70,-3.26,13.79,0.09,-0.06,-0.31
692,-8.70,-3.26,13.79,0.11,-0.10,-0.39
696,-8.70,-3.26,13.79,0.12,-0.12,-0.36
701,-8.70,-3.26,13.79,0.14,-0.12,-0.19
707,-1.76,-11.68,0.15,0.14,-0.12,-0.19
711,-1.76,-11.68,0.15,0.26,-0.09,0.34
716,-1.76,-11.68,0.15,0.30,0.01,0.55
722,-1.76,-11.68,0.15,0.40,0.14,0.69
726,-1.76,-11.68,0.15,0.37,0.24,0.73
731,-1.76,-11.68,0.15,0.27,0.28,0.69
736,-1.76,-11.68,0.15,0.33,0.22,0.60
742,3.07,-4.29,11.57,0.33,0.22,0.60
746,3.07,-4.29,11.57,0.49,-0.07,0.53
752,3.07,-4.29,11.57,0.54,-0.21,0.69
757,3.07,-4.29,11.57,0.52,-0.29,0.90
761,3.07,-4.29,11.57,0.49,-0.28,1.00
766,3.07,-4.29,11.57,0.39,-0.22,0.96
771,3.07,-4.29,11.57,0.37,-0.08,0.80
777,-4.67,2.18,9.00,0.37,-0.08,0.80
781,-4.67,2.18,9.00,0.27,0.19,0.51
786,-4.67,2.18,9.00,0.23,0.24,0.45
792,-4.67,2.18,9.00,0.15,0.21,0.37
796,-4.67,2.18,9.00,0.18,0.09,0.31
801,-4.67,2.18,9.00,0.28,-0.06,0.26
806,-4.67,2.18,9.00,0.29,-0.09,0.20
812,0.00,-2.84,8.20,0.29,-0.09,0.20
816,0.00,-2.84,8.20,0.22,0.06,0.25
821,0.00,-2.84,8.20,0.19,0.11,0.26
827,0.00,-2.84,8.20,0.10,0.15,0.17
832,0.00,-2.84,8.20,0.09,0.09,0.02
836,0.00,-2.84,8.20,0.04,-0.04,-0.10
841,0.00,-2.84,8.20,0.04,-0.18,-0.19
847,5.44,0.46,15.13,0.04,-0.18,-0.19
851,5.44,0.46,15.13,0.03,-0.13,-0.38
856,5.44,0.46,15.13,0.01,0.09,-0.44
862,5.44,0.46,15.13,0.04,0.28,-0.37
866,5.44,0.46,15.13,0.01,0.44,-0.28
871,5.44,0.46,15.13,-0.01,0.58,-0.27
876,5.44,0.46,15.13,-0.04,0.58,-0.36
882,0.27,4.71,9.58,-0.04,0.58,-0.36
886,0.27,4.71,9.58,-0.18,0.26,-0.63
891,0.27,4.71,9.58,-0.15,0.05,-0.70
897,-1.88,-3.75,6.47,-0.15,0.05,-0.70
901,-1.88,-3.75,6.47,-0.14,-0.17,-0.63
906,-1.88,-3.75,6.47,-0.14,-0.23,-0.51
912,-1.88,-3.75,6.47,-0.14,-0.22,-0.42
916,-1.88,-3.75,6.47,-0.15,-0.14,-0.43
921,-1.88,-3.75,6.47,-0.13,-0.07,-0.48
926,-1.88,-3.75,6.47,-0.11,-0.06,-0.54
932,2.76,-0.73,10.69,-0.11,-0.06,-0.54
936,2.76,-0.73,10.69,-0.10,-0.08,-0.58
941,2.76,-0.73,10.69,-0.03,-0.13,-0.51
947,2.76,-0.73,10.69,-0.02,-0.09,-0.46
951,2.76,-0.73,10.69,-0.04,0.03,-0.43
956,2.76,-0.73,10.69,-0.03,0.12,-0.41
961,2.76,-0.73,10.69,-0.04,0.23,-0.46
967,-3.03,1.38,11.00,-0.04,0.23,-0.46
971,-3.03,1.38,11.00,-0.05,0.45,-0.58
976,-3.03,1.38,11.00,-0.03,0.44,-0.52
982,-3.03,1.38,11.00,-0.08,0.46,-0.51
986,-3.03,1.38,11.00,-0.13,0.46,-0.53
991,-3.03,1.38,11.00,-0.10,0.38,-0.51
996,-3.03,1.38,11.00,-0.04,0.32,-0.46
1002,-6.40,-0.46,5.63,-0.04,0.32,-0.46
1006,-6.40,-0.46,5.63,0.01,0.22,-0.20
1011,-6.40,-0.46,5.63,0.03,0.12,-0.01
1017,-6.40,-0.46,5.63,0.04,-0.00,0.09
1021,-6.40,-0.46,5.63,-0.00,-0.09,0.06
1026,-1.23,-1.46,10.23,-0.00,-0.09,0.06
1031,-1.23,-1.46,10.23,0.04,-0.02,-0.10
1037,-9.54,-0.65,5.29,0.04,-0.02,-0.10
1041,-9.54,-0.65,5.29,0.03,0.24,0.10
1046,-9.54,-0.65,5.29,0.02,0.28,0.30
1052,-9.54,-0.65,5.29,0.01,0.16,0.45
1056,-9.54,-0.65,5.29,-0.10,0.02,0.40
1061,-9.54,-0.65,5.29,-0.10,-0.13,0.23
1066,-9.54,-0.65,5.29,-0.05,-0.24,0.04
1072,-2.99,-7.12,11.38,-0.05,-0.24,0.04
1076,-2.99,-7.12,11.38,0.01,-0.06,-0.14
1081,-2.99,-7.12,11.38,0.09,0.11,-0.04
1087,-2.99,-7.12,11.38,0.08,0.29,0.11
1091,-2.99,-7.12,11.38,0.05,0.39,0.24
1096,-2.99,-7.12,11.38,0.04,0.36,0.25
1101,-2.99,-7.12,11.38,-0.09,0.26,0.13
1107,2.41,0.15,3.22,-0.09,0.26,0.13
1111,2.41,0.15,3.22,-0.20,-0.09,-0.24
1116,2.41,0.15,3.22,-0.16,-0.18,-0.31
1123,2.41,0.15,3.22,-0.08,-0.23,-0.21
1126,2.41,0.15,3.22,-0.00,-0.29,0.02
1131,2.41,0.15,3.22,-0.03,-0.25,0.17
1136,2.41,0.15,3.22,-0.07,-0.15,0.16
1142,2.30,3.45,11.38,-0.07,-0.15,0.16
1146,2.30,3.45,11.38,-0.14,-0.07,-0.11
1152,2.30,3.45,11.38,-0.26,-0.08,-0.26
1157,6.51,1.00,7.47,-0.26,-0.08,-0.26
1161,6.51,1.00,7.47,-0.26,-0.20,-0.32
1166,6.51,1.00,7.47,-0.33,-0.14,-0.30
1172,6.51,1.00,7.47,-0.30,-0.11,-0.23
1176,6.51,1.00,7.47,-0.23,-0.12,-0.17
1181,6.51,1.00,7.47,-0.28,-0.04,-0.29
1186,6.51,1.00,7.47,-0.32,0.11,-0.53
1192,-2.91,1.27,5.67,-0.32,0.11,-0.53
1196,-2.91,1.27,5.67,-0.30,0.23,-0.79
1201,-2.91,1.27,5.67,-0.38,0.29,-0.75
1207,-2.91,1.27,5.67,-0.38,0.15,-0.57
1211,-2.91,1.27,5.67,-0.39,-0.05,-0.45
1216,-2.91,1.27,5.67,-0.49,-0.22,-0.53
1221,-2.91,1.27,5.67,-0.46,-0.41,-0.70
1227,7.85,0.11,17.89,-0.46,-0.41,-0.70
1232,7.85,0.11,17.89,-0.37,-0.38,-1.11
1236,7.85,0.11,17.89,-0.30,-0.12,-1.21
1242,7.85,0.11,17.89,-0.26,0.14,-1.14
1246,7.85,0.11,17.89,-0.31,0.42,-1.02
1251,7.85,0.11,17.89,-0.39,0.64,-0.95
1256,7.85,0.11,17.89,-0.45,0.66,-0.95
1262,-1.72,5.48,7.63,-0.45,0.66,-0.95
1266,-1.72,5.48,7.63,-0.53,0.42,-1.17
1272,-1.72,5.48,7.63,-0.48,0.22,-1.25
1277,-1.72,5.48,7.63,-0.43,0.01,-1.24
1281,-1.72,5.48,7.63,-0.35,-0.12,-1.17
1286,-1.72,5.48,7.63,-0.33,-0.18,-1.07
1291,-1.72,5.48,7.63,-0.32,-0.16,-0.99
1297,-1.19,-0.88,7.70,-0.32,-0.16,-0.99
1301,-1.19,-0.88,7.70,-0.30,-0.07,-0.90
1306,-1.19,-0.88,7.70,-0.35,-0.05,-0.90
1312,-1.19,-0.88,7.70,-0.37,0.01,-0.99
1316,-1.19,-0.88,7.70,-0.36,0.10,-1.10
1321,-1.19,-0.88,7.70,-0.33,0.17,-1.13
1326,-1.19,-0.88,7.70,-0.31,0.26,-1.09
1332,-3.26,-0.04,9.38,-0.31,0.26,-1.09
1336,-3.26,-0.04,9.38,-0.24,0.31,-0.88
1341,-3.26,-0.04,9.38,-0.21,0.19,-0.75
1347,-3.26,-0.04,9.38,-0.20,0.04,-0.71
1351,-3.26,-0.04,9.38,-0.20,-0.11,-0.74
1356,-3.26,-0.04,9.38,-0.22,-0.19,-0.81
1362,-3.26,-0.04,9.38,-0.20,-0.18,-0.86
1366,-3.26,-0.04,9.38,-0.15,-0.04,-0.88
1371,-3.26,-0.04,9.38,-0.17,0.16,-0.83
1376,-3.26,-0.04,9.38,-0.15,0.34,-0.74
1381,-3.26,-0.04,9.38,-0.19,0.50,-0.67
1386,-1.42,-1.91,11.84,-0.19,0.50,-0.67
1392,-1.42,-1.91,11.84,-0.12,0.61,-0.62
1397,-1.42,-1.91,11.84,-0.09,0.59,-0.57
1402,2.45,-2.64,12.79,-0.09,0.59,-0.57
1406,2.45,-2.64,12.79,0.03,0.45,-0.61
1411,2.45,-2.64,12.79,0.08,0.42,-0.60
1417,-3.95,-5.82,9.85,0.08,0.42,-0.60
1421,-3.95,-5.82,9.85,0.13,0.39,-0.33
1426,-3.95,-5.82,9.85,0.12,0.29,-0.13
1431,-3.95,-5.82,9.85,0.04,0.22,-0.08
1437,1.57,2.87,6.24,0.04,0.22,-0.08
1441,1.57,2.87,6.24,-0.12,-0.10,-0.18
1446,1.57,2.87,6.24,-0.11,-0.26,-0.27
1452,-6.05,-3.95,9.42,-0.11,-0.26,-0.27
1456,-6.05,-3.95,9.42,-0.07,-0.03,-0.38
1461,-6.05,-3.95,9.42,0.09,0.16,-0.20
1466,-6.05,-3.95,9.42,0.12,0.35,0.01
1472,-4.67,-2.80,13.87,0.12,0.35,0.01
1476,-4.67,-2.80,13.87,0.18,0.48,0.14
1481,-4.67,-2.80,13.87,0.16,0.36,0.07
1487,7.97,-0.57,10.73,0.16,0.36,0.07
1491,7.97,-0.57,10.73,0.05,-0.14,-0.16
1496,7.97,-0.57,10.73,0.02,-0.23,-0.28
1502,7.97,-0.57,10.73,-0.06,-0.15,-0.37
1507,1.80,-4.60,10.57,-0.06,-0.15,-0.37
1511,1.80,-4.60,10.57,-0.02,0.02,-0.17
1516,1.80,-4.60,10.57,-0.09,0.12,-0.17
1522,-0.80,-0.15,12.11,-0.09,0.12,-0.17
1526,-0.80,-0.15,12.11,-0.11,0.36,-0.54
1532,-0.80,-0.15,12.11,-0.11,0.47,-0.70
1536,-0.80,-0.15,12.11,-0.09,0.46,-0.69
1542,-2.11,0.04,2.72,-0.09,0.46,-0.69
1546,-2.11,0.04,2.72,-0.15,0.34,-0.51
1551,-2.11,0.04,2.72,-0.13,0.26,-0.42
1557,2.76,1.99,8.46,-0.13,0.26,-0.42
1561,2.76,1.99,8.46,-0.17,-0.02,-0.39
1566,2.76,1.99,8.46,-0.21,0.04,-0.57
1572,2.76,1.99,8.46,-0.18,0.08,-0.67
1576,2.76,1.99,8.46,-0.10,0.06,-0.60
1581,2.76,1.99,8.46,-0.11,0.07,-0.49
1586,2.76,1.99,8.46,-0.12,0.07,-0.37
1592,4.06,1.84,9.96,-0.12,0.07,-0.37
1596,4.06,1.84,9.96,-0.15,-0.14,-0.38
1601,4.06,1.84,9.96,-0.20,-0.20,-0.53
1607,4.06,1.84,9.96,-0.20,-0.17,-0.67
1611,4.06,1.84,9.96,-0.26,0.01,-0.76
1616,4.06,1.84,9.96,-0.19,0.17,-0.68
1621,4.06,1.84,9.96,-0.16,0.20,-0.50
1627,-5.82,2.68,9.58,-0.16,0.20,-0.50
1631,-5.82,2.68,9.58,-0.21,0.35,-0.44
1636,-5.82,2.68,9.58,-0.21,0.31,-0.48
1642,-5.82,2.68,9.58,-0.23,0.22,-0.53
1646,-5.82,2.68,9.58,-0.23,0.17,-0.55
1652,-5.82,2.68,9.58,-0.20,0.05,-0.49
1656,-5.82,2.68,9.58,-0.12,-0.16,-0.32
1662,8.77,-2.61,10.54,-0.12,-0.16,-0.32
1666,8.77,-2.61,10.54,-0.12,-0.50,-0.21
1671,8.77,-2.61,10.54,-0.10,-0.50,-0.33
1677,2.61,-1.30,11.34,-0.10,-0.50,-0.33
1681,2.61,-1.30,11.34,-0.09,-0.07,-0.54
1686,2.61,-1.30,11.34,-0.19,0.32,-0.50
1692,2.61,-1.30,11.34,-0.16,0.50,-0.46
1697,-0.69,0.11,11.42,-0.16,0.50,-0.46
1702,-0.69,0.11,11.42,-0.20,0.51,-0.50
1706,-0.69,0.11,11.42,-0.18,0.45,-0.54
1712,0.96,-1.65,9.54,-0.18,0.45,-0.54
1716,0.96,-1.65,9.54,-0.13,0.28,-0.59
1721,0.96,-1.65,9.54,-0.13,0.23,-0.57
1727,0.96,-1.65,9.54,-0.12,0.14,-0.50
1732,-4.21,-1.30,7.01,-0.12,0.14,-0.50
1736,-4.21,-1.30,7.01,-0.13,-0.02,-0.41
1741,-4.21,-1.30,7.01,-0.18,-0.06,-0.42
1747,4.29,1.19,10.49,-0.18,-0.06,-0.42
1751,4.29,1.19,10.49,-0.22,-0.30,-0.46
1756,4.29,1.19,10.49,-0.28,-0.33,-0.60
1761,4.29,1.19,10.49,-0.27,-0.33,-0.71
1767,4.06,-1.30,9.16,-0.27,-0.33,-0.71
1772,4.06,-1.30,9.16,-0.25,-0.25,-0.69
1776,4.06,-1.30,9.16,-0.25,-0.05,-0.67
1781,0.08,0.77,12.68,-0.25,-0.05,-0.67
1786,0.08,0.77,12.68,-0.23,0.13,-0.65
1792,0.08,0.77,12.68,-0.22,0.29,-0.68
1797,0.08,0.77,12.68,-0.24,0.50,-0.77
1802,-2.22,2.45,9.08,-0.24,0.50,-0.77
1806,-2.22,2.45,9.08,-0.26,0.31,-0.67
1811,-2.22,2.45,9.08,-0.26,0.12,-0.64
1817,-1.80,0.50,6.51,-0.26,0.12,-0.64
1821,-1.80,0.50,6.51,-0.28,-0.17,-0.67
1826,-1.80,0.50,6.51,-0.28,-0.26,-0.62
1831,-1.80,0.50,6.51,-0.28,-0.29,-0.58
1837,-1.49,-0.19,9.54,-0.28,-0.29,-0.58
1842,-1.49,-0.19,9.54,-0.28,-0.20,-0.63
1847,-1.49,-0.19,9.54,-0.33,-0.12,-0.70
1852,-0.77,1.88,9.96,-0.33,-0.12,-0.70
1856,-0.77,1.88,9.96,-0.38,0.07,-0.86
1861,-0.77,1.88,9.96,-0.37,0.16,-0.87
1867,-0.77,1.88,9.96,-0.37,0.20,-0.81
1871,-0.77,1.88,9.96,-0.36,0.24,-0.76
1876,-0.77,1.88,9.96,-0.36,0.23,-0.74
1882,-0.77,1.88,9.96,-0.36,0.17,-0.75
1887,0.04,-0.38,10.07,-0.36,0.17,-0.75
1891,0.04,-0.38,10.07,-0.32,0.01,-0.80
1896,0.04,-0.38,10.07,-0.27,-0.05,-0.85
1901,0.04,-0.38,10.07,-0.22,-0.09,-0.90
1907,4.98,-2.76,17.35,-0.22,-0.09,-0.90
1912,4.98,-2.76,17.35,-0.15,0.12,-1.13
1917,4.98,-2.76,17.35,-0.17,0.38,-1.22
1922,-0.19,-0.46,13.79,-0.17,0.38,-1.22
1926,-0.19,-0.46,13.79,-0.23,0.73,-1.32
1931,-0.19,-0.46,13.79,-0.29,0.79,-1.37
1937,2.53,2.95,10.80,-0.29,0.79,-1.37
1941,2.53,2.95,10.80,-0.40,0.74,-1.57
1946,2.53,2.95,10.80,-0.41,0.69,-1.68
1951,2.53,2.95,10.80,-0.38,0.65,-1.71
1957,-0.77,-0.69,6.05,-0.38,0.65,-1.71
1961,-0.77,-0.69,6.05,-0.31,0.56,-1.51
1966,-0.77,-0.69,6.05,-0.28,0.48,-1.39
1971,-0.46,2.03,11.19,-0.28,0.48,-1.39
1977,-0.46,2.03,11.19,-0.24,0.36,-1.33
1981,-0.46,2.03,11.19,-0.21,0.13,-1.36
1986,-0.46,2.03,11.19,-0.21,0.08,-1.41
1992,1.42,1.00,14.02,-0.21,0.08,-1.41
1996,1.42,1.00,14.02,-0.25,0.20,-1.52
2001,1.42,1.00,14.02,-0.30,0.27,-1.50
2007,0.00,1.53,9.61,-0.30,0.27,-1.50
2011,0.00,1.53,9.61,-0.41,0.38,-1.42
2016,0.00,1.53,9.61,-0.44,0.42,-1.44
2021,0.00,1.53,9.61,-0.48,0.47,-1.48
2027,1.15,0.34,14.02,-0.48,0.47,-1.48
2031,1.15,0.34,14.02,-0.44,0.55,-1.53
2037,1.15,0.34,14.02,-0.33,0.56,-1.51
2042,1.15,0.34,14.02,-0.18,0.55,-1.40
2046,1.15,0.34,14.02,-0.07,0.53,-1.25
2051,1.15,0.34,14.02,0.01,0.51,-1.11
2056,1.15,0.34,14.02,0.02,0.50,-1.04
2062,-1.07,-1.91,9.69,0.02,0.50,-1.04
2066,-1.07,-1.91,9.69,0.01,0.52,-1.04
2071,-1.07,-1.91,9.69,0.00,0.54,-1.04
2077,0.19,-2.03,10.07,0.00,0.54,-1.04
2081,0.19,-2.03,10.07,-0.01,0.56,-0.93
2086,0.19,-2.03,10.07,-0.02,0.55,-0.92
2092,0.19,-2.03,10.07,-0.03,0.54,-0.94
2096,0.19,-2.03,10.07,0.00,0.57,-0.95
2101,0.19,-2.03,10.07,0.05,0.65,-0.92
2107,0.19,-2.03,10.07,0.10,0.75,-0.85
2112,-5.71,-4.64,12.14,0.10,0.75,-0.85
2116,-5.71,-4.64,12.14,0.29,0.82,-0.55
2121,-5.71,-4.64,12.14,0.33,0.79,-0.45
2127,-0.23,-0.30,8.58,0.33,0.79,-0.45
2131,-0.23,-0.30,8.58,0.35,0.52,-0.33
2136,-0.23,-0.30,8.58,0.31,0.35,-0.32
2141,-0.23,-0.30,8.58,0.28,0.19,-0.27
2147,-0.15,-4.18,6.05,0.28,0.19,-0.27
2152,-0.15,-4.18,6.05,0.30,0.04,-0.08
2156,-0.15,-4.18,6.05,0.30,0.07,0.02
2162,-0.15,-4.18,6.05,0.31,0.11,0.08
2166,-0.15,-4.18,6.05,0.33,0.19,0.07
2171,-0.15,-4.18,6.05,0.32,0.26,0.02
2177,-0.15,-4.18,6.05,0.33,0.30,-0.07
2182,2.61,-2.45,11.19,0.33,0.30,-0.07
2186,2.61,-2.45,11.19,0.33,0.36,-0.20
2191,2.61,-2.45,11.19,0.33,0.37,-0.21
2197,0.11,-4.56,7.59,0.33,0.37,-0.21
2201,0.11,-4.56,7.59,0.30,0.34,-0.16
2206,0.11,-4.56,7.59,0.29,0.32,-0.20
2211,0.11,-4.56,7.59,0.25,0.32,-0.28
2217,1.19,-0.27,13.14,0.25,0.32,-0.28
2221,1.19,-0.27,13.14,0.18,0.42,-0.59
2227,1.19,-0.27,13.14,0.16,0.48,-0.69
2232,-2.72,-1.76,7.39,0.16,0.48,-0.69
2236,-2.72,-1.76,7.39,0.13,0.52,-0.67
2241,-2.72,-1.76,7.39,0.13,0.47,-0.58
2246,-2.72,-1.76,7.39,0.12,0.40,-0.52
2252,-3.22,2.11,4.83,0.12,0.40,-0.52
2256,-3.22,2.11,4.83,0.10,0.23,-0.52
2262,-3.22,2.11,4.83,0.10,0.14,-0.51
2267,-0.54,2.61,10.03,0.10,0.14,-0.51
2271,-0.54,2.61,10.03,0.10,0.03,-0.49
2276,-0.54,2.61,10.03,0.10,0.04,-0.50
2282,-0.54,2.61,10.03,0.10,0.07,-0.48
2286,-0.54,2.61,10.03,0.10,0.08,-0.44
2291,-0.54,2.61,10.03,0.10,0.10,-0.40
2296,-0.54,2.61,10.03,0.07,0.12,-0.40
2302,-0.54,2.61,10.03,0.07,0.12,-0.38
2306,-0.54,2.61,10.03,0.07,0.06,-0.38
2311,-0.54,2.61,10.03,0.05,0.03,-0.45
2316,2.80,-1.53,11.00,0.05,0.03,-0.45
2322,1.80,-2.95,10.57,0.05,0.03,-0.45
2326,1.80,-2.95,10.57,0.06,0.12,-0.71
2331,1.80,-2.95,10.57,0.08,0.17,-0.68
2337,2.61,-3.52,12.10,0.08,0.17,-0.68
2341,2.61,-3.52,12.10,0.11,0.22,-0.65
2346,2.61,-3.52,12.10,0.06,0.25,-0.76
2352,5.13,-1.76,13.75,0.06,0.25,-0.76
2356,5.13,-1.76,13.75,0.04,0.31,-1.04
2361,5.13,-1.76,13.75,0.03,0.38,-1.13
2366,5.13,-1.76,13.75,0.01,0.45,-1.16
2372,0.19,-2.26,10.07,0.01,0.45,-1.16
2376,0.19,-2.26,10.07,0.03,0.58,-1.11
2381,0.19,-2.26,10.07,0.04,0.61,-1.07
2387,-2.72,0.50,7.20,0.04,0.61,-1.07
2391,-2.72,0.50,7.20,0.04,0.56,-1.01
2396,-2.72,0.50,7.20,0.04,0.46,-0.96
2401,-2.72,0.50,7.20,0.06,0.32,-0.91
2406,-0.08,0.11,9.92,0.06,0.32,-0.91
2411,-0.08,0.11,9.92,0.10,0.21,-0.87
2417,-0.08,0.11,9.92,0.19,0.03,-0.71
2422,-0.08,0.11,9.92,0.21,-0.00,-0.66
2426,-0.08,0.11,9.92,0.22,0.02,-0.62
2431,-0.08,0.11,9.92,0.21,0.07,-0.58
2436,-0.08,0.11,9.92,0.18,0.14,-0.54
2442,-1.99,1.61,8.46,0.18,0.14,-0.54
2446,-1.99,1.61,8.46,0.09,0.21,-0.49
2451,-1.99,1.61,8.46,0.07,0.17,-0.51
2457,1.11,-1.61,12.14,0.07,0.17,-0.51
2461,1.11,-1.61,12.14,0.10,0.09,-0.55
2466,1.11,-1.61,12.14,0.17,0.06,-0.52
2472,1.11,-1.61,12.14,0.21,0.08,-0.50
2476,1.11,-1.61,12.14,0.22,0.13,-0.49
2481,1.11,-1.61,12.14,0.26,0.18,-0.45
2486,1.11,-1.61,12.14,0.26,0.23,-0.42
2492,1.07,-2.64,10.45,0.26,0.23,-0.42
2496,1.07,-2.64,10.45,0.23,0.32,-0.43
2501,1.07,-2.64,10.45,0.20,0.36,-0.48
2507,1.07,-2.64,10.45,0.15,0.41,-0.52
2511,1.07,-2.64,10.45,0.16,0.44,-0.51
2516,1.07,-2.64,10.45,0.16,0.44,-0.46
2521,1.07,-2.64,10.45,0.16,0.40,-0.38
2527,-1.95,-1.27,7.23,0.16,0.40,-0.38
2531,-1.95,-1.27,7.23,0.17,0.24,-0.31
2536,-1.95,-1.27,7.23,0.19,0.20,-0.34
2542,-1.95,-1.27,7.23,0.21,0.19,-0.32
2546,-1.95,-1.27,7.23,0.22,0.21,-0.24
2551,-1.95,-1.27,7.23,0.24,0.27,-0.14
2556,-1.95,-1.27,7.23,0.26,0.29,-0.04
2562,-1.95,-1.27,7.23,0.24,0.26,0.04
2566,-1.95,-1.27,7.23,0.21,0.18,0.07
2571,-1.95,-1.27,7.23,0.17,0.04,0.07
2577,2.34,-1.34,11.07,0.17,0.04,0.07
2581,2.34,-1.34,11.07,0.20,-0.31,0.03
2586,2.34,-1.34,11.07,0.20,-0.35,-0.03
2591,2.34,-1.34,11.07,0.23,-0.31,-0.08
2597,-0.08,-3.71,10.96,0.23,-0.31,-0.08
2601,-0.08,-3.71,10.96,0.18,-0.01,-0.14
2606,-0.08,-3.71,10.96,0.14,0.17,-0.15
2612,0.08,-1.65,10.77,0.14,0.17,-0.15
2616,0.08,-1.65,10.77,0.11,0.36,-0.29
2621,0.08,-1.65,10.77,0.06,0.37,-0.41
2626,0.08,-1.65,10.77,0.08,0.34,-0.51
2632,1.76,-3.48,9.23,0.08,0.34,-0.51
2637,1.76,-3.48,9.23,0.09,0.23,-0.61
2641,2.22,-5.13,11.60,0.09,0.23,-0.61
2646,2.22,-5.13,11.60,0.15,0.18,-0.62
2651,2.22,-5.13,11.60,0.13,0.13,-0.62
2656,2.22,-5.13,11.60,0.13,0.09,-0.66
2662,2.22,-5.13,11.60,0.12,0.10,-0.76
2666,2.22,-5.13,11.60,0.09,0.17,-0.87
2671,2.22,-5.13,11.60,0.08,0.26,-0.95
2676,2.22,-5.13,11.60,0.05,0.33,-0.96
2682,2.22,-5.13,11.60,0.02,0.39,-1.01
2686,2.22,-5.13,11.60,0.01,0.46,-1.06
2691,2.22,-5.13,11.60,-0.01,0.49,-1.07
2696,2.22,-5.13,11.60,-0.00,0.49,-1.05
2702,2.87,3.87,14.06,-0.00,0.49,-1.05
2706,2.87,3.87,14.06,0.00,0.36,-1.02
2712,2.87,3.87,14.06,0.00,0.31,-1.09
2716,2.87,3.87,14.06,-0.02,0.28,-1.17
2721,2.87,3.87,14.06,0.00,0.29,-1.20
2726,-2.99,0.77,5.98,0.00,0.29,-1.20
2731,-2.99,0.77,5.98,-0.02,0.36,-1.07
2737,-4.75,3.79,2.45,-0.02,0.36,-1.07
2741,-4.75,3.79,2.45,-0.05,0.30,-0.83
2746,-4.75,3.79,2.45,-0.10,0.22,-0.79
2752,-3.87,4.55,3.60,-0.10,0.22,-0.79
2756,-3.87,4.55,3.60,-0.14,0.10,-0.90
2761,-3.87,4.55,3.60,-0.10,0.05,-0.88
2767,-3.87,4.55,3.60,-0.07,0.03,-0.77
2771,-3.87,4.55,3.60,-0.10,-0.04,-0.59
2776,-3.87,4.55,3.60,0.03,-0.23,-0.38
2782,-3.87,4.55,3.60,0.06,-0.52,-0.27
2786,-3.87,4.55,3.60,0.07,-0.75,-0.35
2791,-3.87,4.55,3.60,0.57,-0.48,-0.64
2796,-3.87,4.55,3.60,0.46,0.61,-0.87
2802,-3.87,4.55,3.60,0.05,1.36,-1.03
2806,-3.87,4.55,3.60,0.35,1.51,-1.20
2811,-3.87,4.55,3.60,0.36,1.45,-1.28
2816,-3.87,4.55,3.60,0.24,1.35,-1.24
2822,-3.87,4.55,3.60,-0.06,1.20,-1.14
2826,-3.87,4.55,3.60,-0.20,0.96,-1.07
2831,-3.87,4.55,3.60,-0.23,0.65,-1.12
2837,-3.87,4.55,3.60,-0.14,0.34,-1.23
2841,-3.87,4.55,3.60,0.06,0.05,-1.29
2846,-3.87,4.55,3.60,0.27,-0.09,-1.20
2852,-3.87,4.55,3.60,0.46,-0.07,-0.96
2856,-3.87,4.55,3.60,0.57,0.04,-0.68
2861,-3.87,4.55,3.60,0.56,0.19,-0.44
2866,-3.87,4.55,3.60,0.52,0.35,-0.29
2872,-0.73,5.44,8.12,0.52,0.35,-0.29
2877,-0.73,5.44,8.12,0.35,0.45,-0.31
2881,-0.77,4.33,10.23,0.35,0.45,-0.31
2887,-0.77,4.33,10.23,0.26,0.38,-0.41
2892,-0.77,4.33,10.23,0.24,0.39,-0.34
2896,-4.14,-3.95,8.39,0.24,0.39,-0.34
2901,-4.14,-3.95,8.39,0.35,0.40,-0.07
2907,-3.37,-3.29,8.16,0.35,0.40,-0.07
2911,-3.37,-3.29,8.16,0.42,0.29,0.16
2916,-3.37,-3.29,8.16,0.43,0.21,0.25
2921,-3.37,-3.29,8.16,0.41,0.14,0.27
2926,-3.37,-3.29,8.16,0.39,0.07,0.25
2931,-3.37,-3.29,8.16,0.36,0.01,0.21
2936,-3.37,-3.29,8.16,0.36,0.03,0.18
2942,-3.37,-3.29,8.16,0.31,0.05,0.23
2946,-1.04,-3.98,4.56,0.31,0.05,0.23
2951,-0.69,-4.60,5.29,0.31,0.05,0.23
2956,-0.69,-4.60,5.29,0.27,-0.18,0.51
2962,-0.69,-4.60,5.29,0.26,-0.26,0.40
2967,-0.69,-4.60,5.29,0.31,-0.34,0.28
2971,1.34,-4.60,11.38,0.31,-0.34,0.28
2976,1.34,-4.60,11.38,0.38,-0.21,0.07
2981,1.34,-4.60,11.38,0.47,0.12,0.10
2986,1.34,-4.60,11.38,0.40,0.52,0.18
2992,1.34,-4.60,11.38,0.38,0.80,0.13
2997,1.34,-4.60,11.38,0.39,0.98,0.08
3001,-9.73,2.38,13.11,0.39,0.98,0.08
3006,-4.60,1.76,13.52,0.39,0.98,0.08
3012,-4.60,1.76,13.52,0.34,0.75,0.27
3016,5.02,-1.88,10.15,0.34,0.75,0.27
3021,5.02,-1.88,10.15,0.30,-0.33,0.11
3026,5.94,-2.11,8.70,0.30,-0.33,0.11
3031,0.50,-2.34,5.94,0.30,-0.33,0.11
3037,0.50,-2.34,5.94,0.25,-0.44,-0.01
3042,0.50,-2.34,5.94,0.17,-0.16,-0.04
3046,3.68,2.95,6.97,0.17,-0.16,-0.04
3051,6.21,2.84,9.23,0.17,-0.16,-0.04
3056,6.21,2.84,9.23,-0.06,0.12,0.00
3062,6.21,2.84,9.23,-0.05,0.11,-0.17
3067,6.21,2.84,9.23,-0.03,0.16,-0.39
3071,3.83,-7.20,14.48,-0.03,0.16,-0.39
3076,-3.68,-5.90,15.75,-0.03,0.16,-0.39
3082,-3.68,-5.90,15.75,0.24,0.27,-0.31
3087,-3.68,-5.90,15.75,0.26,0.38,-0.31
3091,6.21,2.99,8.62,0.26,0.38,-0.31
3096,3.48,5.25,8.20,0.26,0.38,-0.31
3101,3.48,5.25,8.20,0.02,0.11,-0.37
3106,3.48,5.25,8.20,-0.09,0.03,-0.56
3111,3.48,5.25,8.20,-0.12,-0.03,-0.70
3117,3.48,5.25,8.20,-0.16,-0.02,-0.76
3121,6.28,-2.53,10.69,-0.16,-0.02,-0.76
3126,3.60,-2.64,13.17,-0.16,-0.02,-0.76
3132,3.60,-2.64,13.17,-0.08,-0.16,-0.57
3136,4.21,-1.53,13.95,-0.08,-0.16,-0.57
3141,0.88,-0.88,12.68,-0.08,-0.16,-0.57
3147,0.88,-0.88,12.68,0.08,0.16,-0.80
3152,0.88,-0.88,12.68,0.09,0.31,-0.78
3156,3.07,-2.03,5.44,0.09,0.31,-0.78
3161,1.99,-1.30,6.09,0.09,0.31,-0.78
3167,1.99,-1.30,6.09,0.04,0.20,-0.58
3171,1.15,0.61,9.20,0.04,0.20,-0.58
3176,-2.72,0.92,7.81,0.04,0.20,-0.58
3182,-2.72,0.92,7.81,0.04,0.09,-0.71
3187,-2.72,0.92,7.81,0.04,0.17,-0.68
3191,-2.76,1.04,10.42,0.04,0.17,-0.68
3196,-0.19,1.53,10.77,0.04,0.17,-0.68
3202,-0.19,1.53,10.77,0.11,0.19,-0.47
3207,-0.19,1.53,10.77,0.09,0.08,-0.49
3211,1.19,0.92,9.69,0.09,0.08,-0.49
3216,1.11,-0.38,9.73,0.09,0.08,-0.49
3222,1.11,-0.38,9.73,0.04,-0.01,-0.66
3227,1.11,-0.38,9.73,0.06,0.10,-0.62
3232,-6.70,2.68,10.69,0.06,0.10,-0.62
3236,-2.03,3.95,13.49,0.06,0.10,-0.62
3241,1.57,4.25,13.11,0.06,0.10,-0.62
3246,1.57,4.25,13.11,0.04,0.35,-0.42
3252,1.57,4.25,13.11,-0.02,0.22,-0.51
3257,1.57,4.25,13.11,-0.06,0.08,-0.67
3261,2.41,-3.10,7.73,-0.06,0.08,-0.67
3266,-3.29,-3.79,7.82,-0.06,0.08,-0.67
3272,-3.29,-3.79,7.82,0.07,0.04,-0.68
3276,-4.29,-0.19,9.38,0.07,0.04,-0.68
3281,-5.86,1.11,10.35,0.07,0.04,-0.68
3286,-5.86,1.11,10.35,0.09,0.33,-0.33
3292,-5.86,1.11,10.35,0.06,0.38,-0.42
3296,-0.92,0.80,8.96,0.06,0.38,-0.42
3301,-6.05,-0.57,5.40,0.06,0.38,-0.42
3307,-6.05,-0.57,5.40,0.03,0.20,-0.62
3311,2.45,-4.60,6.75,0.03,0.20,-0.62
3316,-2.41,-4.79,7.20,0.03,0.20,-0.62
3322,-0.38,-4.52,10.11,0.03,0.20,-0.62
3326,2.53,-3.56,12.87,0.03,0.20,-0.62
3331,0.38,-3.41,13.57,0.03,0.20,-0.62
3336,0.38,-3.41,13.57,0.12,-0.20,-0.35
3342,0.38,-3.41,13.57,0.12,-0.06,-0.47
3347,0.38,-3.41,13.57,0.16,0.10,-0.55
3351,-1.95,-2.34,10.77,0.16,0.10,-0.55
3356,-0.80,-1.99,9.58,0.16,0.10,-0.55
3361,-0.80,-1.99,9.58,0.20,0.43,-0.44
3366,-0.80,-1.99,9.58,0.17,0.51,-0.42
3371,-0.80,-1.99,9.58,0.15,0.52,-0.41
3377,-0.80,-1.99,9.58,0.18,0.39,-0.35
3381,0.61,-2.14,12.11,0.18,0.39,-0.35
3386,2.72,-2.03,12.49,0.18,0.39,-0.35
3392,2.72,-2.03,12.49,0.19,-0.02,-0.41
3397,2.72,-2.03,12.49,0.21,-0.06,-0.44
3401,2.72,-2.03,12.49,0.25,0.05,-0.35
3406,0.54,-2.07,9.04,0.25,0.05,-0.35
3411,-1.84,0.84,8.20,0.25,0.05,-0.35
3417,-1.84,0.84,8.20,0.26,0.10,-0.25
3422,2.18,2.26,13.52,0.26,0.10,-0.25
3426,0.80,2.03,12.38,0.26,0.10,-0.25
3431,-1.19,0.50,11.60,0.26,0.10,-0.25
3436,-1.19,0.50,11.60,0.11,0.16,-0.54
3442,-1.19,0.50,11.60,0.14,0.16,-0.58
3446,-1.19,0.50,11.60,0.20,0.17,-0.55
3451,-4.29,0.80,3.79,0.20,0.17,-0.55
3456,-4.60,2.61,3.03,0.20,0.17,-0.55
3462,-4.60,2.61,3.03,0.10,0.24,-0.35
3466,-4.21,2.45,6.75,0.10,0.24,-0.35
3471,-0.92,2.14,7.66,0.10,0.24,-0.35
3476,0.73,0.77,8.84,0.10,0.24,-0.35
3481,-1.65,-0.15,9.96,0.10,0.24,-0.35
3486,-1.65,-0.15,9.96,0.04,-0.26,-0.51
3492,-1.65,-0.15,9.96,0.07,-0.33,-0.48
3497,-1.65,-0.15,9.96,0.14,-0.42,-0.38
3501,8.54,-3.07,17.16,0.14,-0.42,-0.38
3506,10.00,-3.48,17.39,0.14,-0.42,-0.38
3512,8.58,-2.11,17.89,0.14,-0.42,-0.38
3516,1.11,-2.38,13.67,0.14,-0.42,-0.38
3521,1.65,-1.76,12.02,0.14,-0.42,-0.38
3527,1.65,-1.76,12.02,0.12,0.63,-0.94
3532,1.65,-1.76,12.02,0.15,0.73,-0.96
3536,-4.14,1.61,7.51,0.15,0.73,-0.96
3541,-2.91,1.34,5.36,0.15,0.73,-0.96
3547,-6.62,2.14,4.75,0.15,0.73,-0.96
3551,-0.57,0.38,7.89,0.15,0.73,-0.96
3556,2.68,0.69,8.82,0.15,0.73,-0.96
3561,2.76,-0.30,9.80,0.15,0.73,-0.96
3567,2.76,-0.30,9.80,0.14,0.02,-0.69
3571,3.56,-2.53,12.41,0.14,0.02,-0.69
3576,1.68,-2.95,12.18,0.14,0.02,-0.69
3582,-0.84,-3.60,10.07,0.14,0.02,-0.69
3586,-1.72,0.00,7.86,0.14,0.02,-0.69
3591,-3.68,0.88,8.01,0.14,0.02,-0.69
3596,-4.52,2.53,8.39,0.14,0.02,-0.69
3601,-2.45,2.95,9.08,0.14,0.02,-0.69
3606,-4.56,3.18,9.69,0.14,0.02,-0.69
3611,-3.26,0.84,10.19,0.14,0.02,-0.69
3616,0.61,0.15,9.61,0.14,0.02,-0.69
3622,0.61,0.15,9.61,0.18,0.20,-0.59
3626,-0.54,-2.87,9.08,0.18,0.20,-0.59
3631,1.46,-3.10,8.58,0.18,0.20,-0.59
3637,1.46,-3.10,8.58,0.27,-0.04,-0.45
3641,-2.49,-2.61,8.84,0.27,-0.04,-0.45
3646,-3.95,-2.22,9.38,0.27,-0.04,-0.45
3652,-3.71,-2.18,9.61,0.27,-0.04,-0.45
3656,-0.34,-1.57,10.49,0.27,-0.04,-0.45
3661,-0.61,-1.57,11.11,0.27,-0.04,-0.45
3666,-1.88,-1.49,9.43,0.27,-0.04,-0.45
3671,2.14,-3.22,7.70,0.27,-0.04,-0.45
3676,2.38,-3.83,6.29,0.27,-0.04,-0.45
3681,-0.34,-2.22,5.79,0.27,-0.04,-0.45
3686,-2.45,-3.07,7.01,0.27,-0.04,-0.45
3692,0.50,-2.68,9.85,0.27,-0.04,-0.45
3696,0.50,-2.68,9.85,0.38,0.00,-0.06
3701,-1.53,-1.88,10.96,0.38,0.00,-0.06
3706,-1.72,-2.26,8.01,0.38,0.00,-0.06
3711,-7.93,-1.30,5.40,0.38,0.00,-0.06
3716,-6.24,-0.80,11.07,0.38,0.00,-0.06
3722,-2.49,-0.30,11.30,0.38,0.00,-0.06
3726,-4.94,1.99,12.03,0.38,0.00,-0.06
3731,-0.57,-2.38,16.28,0.38,0.00,-0.06
3737,3.68,-2.18,15.13,0.38,0.00,-0.06
3741,-0.92,-2.18,13.41,0.38,0.00,-0.06
3746,-1.34,-4.94,14.68,0.38,0.00,-0.06
3752,0.19,-2.87,10.88,0.38,0.00,-0.06
3756,-6.13,-3.68,7.47,0.38,0.00,-0.06
3761,-6.28,-1.88,5.90,0.38,0.00,-0.06
3766,-6.28,-1.88,5.90,0.45,0.20,0.36
3771,-0.96,0.42,5.48,0.45,0.20,0.36
3777,-0.96,0.42,5.48,0.33,0.13,0.27
3782,0.73,-0.50,7.89,0.33,0.13,0.27
3786,-3.14,-3.07,8.96,0.33,0.13,0.27
3791,-7.23,-5.32,6.40,0.33,0.13,0.27
3796,-3.18,-5.86,9.23,0.33,0.13,0.27
3801,-0.19,-5.48,8.88,0.33,0.13,0.27
3807,0.11,-3.22,8.62,0.33,0.13,0.27
3812,2.49,-2.03,9.46,0.33,0.13,0.27
3816,2.49,-2.03,9.46,0.38,-0.32,0.23
3821,2.22,-1.76,7.97,0.38,-0.32,0.23
3826,3.33,-2.49,7.93,0.38,-0.32,0.23
3831,3.48,-2.61,9.20,0.38,-0.32,0.23
3836,1.72,-3.52,9.16,0.38,-0.32,0.23
3842,-0.69,-3.29,9.96,0.38,-0.32,0.23
3847,0.57,-1.53,10.03,0.38,-0.32,0.23
3851,0.57,-1.53,10.03,0.25,0.15,-0.15
3856,0.57,-1.53,10.03,0.25,0.29,-0.25
3862,-7.43,3.03,2.95,0.25,0.29,-0.25
3867,-1.80,1.23,4.90,0.25,0.29,-0.25
3871,-1.80,1.23,4.90,0.21,0.19,-0.12
3876,3.26,0.19,10.80,0.21,0.19,-0.12
3882,3.26,0.19,10.80,0.20,-0.00,-0.03
3887,5.94,-0.30,15.06,0.20,-0.00,-0.03
3891,5.25,-3.33,15.06,0.20,-0.00,-0.03
3896,4.29,-1.80,13.59,0.20,-0.00,-0.03
3901,2.45,-1.23,11.92,0.20,-0.00,-0.03
3906,1.91,-1.80,9.85,0.20,-0.00,-0.03
3912,-2.76,0.38,8.12,0.20,-0.00,-0.03
3917,-11.60,4.10,3.83,0.20,-0.00,-0.03
3921,-11.60,4.10,3.83,0.21,0.61,-0.03
3926,-8.01,5.32,7.20,0.21,0.61,-0.03
3931,-6.74,4.25,10.39,0.21,0.61,-0.03
3936,3.83,-0.08,13.41,0.21,0.61,-0.03
3941,10.15,-2.38,16.32,0.21,0.61,-0.03
3947,11.99,-3.87,17.20,0.21,0.61,-0.03
3952,7.97,-5.09,14.94,0.21,0.61,-0.03
3956,7.97,-5.09,14.94,0.28,-0.40,-0.29
3961,-5.55,-2.53,7.43,0.28,-0.40,-0.29
3966,-6.62,-1.38,6.02,0.28,-0.40,-0.29
3971,-7.55,0.50,5.52,0.28,-0.40,-0.29
3976,-7.77,2.68,5.36,0.28,-0.40,-0.29
3982,-5.63,3.91,5.71,0.28,-0.40,-0.29
3987,3.56,2.07,9.08,0.28,-0.40,-0.29
3991,3.56,2.07,9.08,0.02,-0.13,-0.43
3996,3.56,2.07,9.08,0.04,-0.31,-0.55
4001,3.68,-5.55,13.18,0.04,-0.31,-0.55
4006,7.78,-7.85,14.75,0.04,-0.31,-0.55
4012,7.12,-4.29,14.18,0.04,-0.31,-0.55
4016,1.00,-5.82,16.97,0.04,-0.31,-0.55
4021,0.54,-3.79,14.90,0.04,-0.31,-0.55
4026,2.64,-1.68,14.48,0.04,-0.31,-0.55
4032,-4.98,0.50,11.61,0.04,-0.31,-0.55
4037,-7.36,1.11,8.32,0.04,-0.31,-0.55
4041,-7.36,1.11,8.32,0.26,0.45,-0.36
4046,-7.01,1.19,0.15,0.26,0.45,-0.36
4051,-4.18,-0.92,1.72,0.26,0.45,-0.36
4056,-0.80,-1.57,3.67,0.26,0.45,-0.36
4062,-1.11,0.04,5.64,0.26,0.45,-0.36
4066,1.42,-3.22,12.14,0.26,0.45,-0.36
4071,4.67,-3.83,14.82,0.26,0.45,-0.36
4076,3.07,-3.48,16.05,0.26,0.45,-0.36
4082,3.07,-4.52,16.39,0.26,0.45,-0.36
4087,5.67,-3.79,13.68,0.26,0.45,-0.36
4091,5.67,-3.79,13.68,0.48,-0.03,0.05
4096,5.67,-3.79,13.68,0.48,0.22,0.00
4102,-5.09,-0.42,6.62,0.48,0.22,0.00
4107,-11.07,1.04,2.72,0.48,0.22,0.00
4111,-11.07,1.04,2.72,0.34,0.69,0.10
4116,-11.07,1.04,2.72,0.28,0.63,0.13
4122,-5.52,0.11,5.40,0.28,0.63,0.13
4127,0.30,-0.50,9.27,0.28,0.63,0.13
4131,0.30,-0.50,9.27,0.30,-0.24,0.05
4136,0.30,-0.50,9.27,0.34,-0.47,0.02
4142,5.02,-5.25,12.26,0.34,-0.47,0.02
4146,5.02,-5.25,12.26,0.42,-0.51,0.09
4151,-3.41,-3.29,9.54,0.42,-0.51,0.09
4156,-4.45,-2.11,8.32,0.42,-0.51,0.09
4161,-3.83,-0.73,7.62,0.42,-0.51,0.09
4167,-5.25,1.49,8.01,0.42,-0.51,0.09
4171,-2.80,3.52,8.89,0.42,-0.51,0.09
4177,0.88,3.41,7.66,0.42,-0.51,0.09
4181,0.88,3.41,7.66,0.23,0.02,-0.05
4186,2.45,-1.15,8.85,0.23,0.02,-0.05
4191,2.99,-2.41,9.00,0.23,0.02,-0.05
4196,3.18,-3.64,8.74,0.23,0.02,-0.05
4202,0.54,-3.03,8.84,0.23,0.02,-0.05
4206,3.33,-1.30,10.69,0.23,0.02,-0.05
4212,4.56,0.34,11.34,0.23,0.02,-0.05
4216,4.56,0.34,11.34,0.37,0.05,0.14
4221,-5.71,2.87,12.14,0.37,0.05,0.14
4226,-2.49,3.14,11.64,0.37,0.05,0.14
4232,0.04,2.07,8.42,0.37,0.05,0.14
4237,0.04,2.07,8.42,0.28,0.15,0.14
4242,-6.97,0.57,5.09,0.28,0.15,0.14
4246,-6.97,0.57,5.09,0.20,-0.00,0.26
4251,-6.97,0.57,5.09,0.13,-0.26,0.36
4256,-6.97,0.57,5.09,0.17,-0.50,0.38
4261,14.59,0.77,15.86,0.17,-0.50,0.38
4267,7.05,1.42,16.59,0.17,-0.50,0.38
4271,8.46,-7.39,19.12,0.17,-0.50,0.38
4276,7.59,-7.05,19.27,0.17,-0.50,0.38
4282,-1.76,-5.05,13.18,0.17,-0.50,0.38
4286,-1.76,-5.05,13.18,0.35,0.54,-0.09
4291,-9.00,3.75,3.64,0.35,0.54,-0.09
4296,-10.65,4.75,3.91,0.35,0.54,-0.09
4302,-9.12,5.09,3.60,0.35,0.54,-0.09
4307,0.46,3.52,3.87,0.35,0.54,-0.09
4312,0.54,3.14,4.45,0.35,0.54,-0.09
4316,0.54,3.14,4.45,0.07,-0.13,-0.14
4321,0.54,3.14,4.45,0.15,-0.44,-0.10
4326,0.65,-4.21,11.34,0.15,-0.44,-0.10
4332,0.27,-4.86,12.22,0.15,-0.44,-0.10
4336,0.27,-4.86,12.22,0.20,-0.43,0.35
4342,-4.37,-2.34,10.69,0.20,-0.43,0.35
4347,-3.56,1.61,9.35,0.20,-0.43,0.35
4351,-3.56,1.61,9.35,0.30,0.01,0.12
4356,-3.56,1.61,9.35,0.23,0.05,0.16
4361,0.27,2.07,5.13,0.23,0.05,0.16
4367,3.71,-1.88,7.59,0.23,0.05,0.16
4371,3.71,-1.88,7.59,0.16,-0.32,0.18
4376,3.71,-1.88,7.59,0.16,-0.33,0.11
4382,1.53,-2.45,12.18,0.16,-0.33,0.11
4386,1.53,-2.45,12.18,0.25,-0.12,0.16
4391,1.53,-2.45,12.18,0.27,0.09,0.23
4396,-3.18,-0.11,10.19,0.27,0.09,0.23
4402,-2.91,0.08,8.62,0.27,0.09,0.23
4406,-2.91,0.08,8.62,0.28,0.28,0.30
4411,1.42,-0.04,7.59,0.28,0.28,0.30
4416,1.38,-0.15,9.23,0.28,0.28,0.30
4421,2.18,-0.69,8.20,0.28,0.28,0.30
4427,2.18,-0.69,8.20,0.20,-0.11,0.21
4431,-3.60,-1.53,7.73,0.20,-0.11,0.21
4437,-3.68,-0.92,8.24,0.20,-0.11,0.21
4441,-3.68,-0.92,8.24,0.17,-0.04,0.27
4446,-2.68,-0.73,10.30,0.17,-0.04,0.27
4452,-0.46,-0.96,11.53,0.17,-0.04,0.27
4456,-0.46,-0.96,11.53,0.19,-0.08,0.22
4462,-0.46,-0.96,11.53,0.18,-0.17,0.18
4467,2.57,-1.27,12.72,0.18,-0.17,0.18
4471,2.57,-1.27,12.72,0.20,-0.12,0.05
4476,2.57,-1.27,12.72,0.17,0.03,0.01
4481,-1.91,-2.26,9.00,0.17,0.03,0.01
4486,-4.98,0.15,6.70,0.17,0.03,0.01
4492,-10.03,3.26,8.23,0.17,0.03,0.01
4497,-10.03,3.26,8.23,0.13,0.44,-0.03
4502,1.53,3.87,6.44,0.13,0.44,-0.03
4506,1.53,3.87,6.44,-0.00,0.07,0.04
4511,1.53,3.87,6.44,-0.01,-0.06,-0.07
4516,1.53,3.87,6.44,-0.06,-0.14,-0.16
4522,4.71,-2.87,10.57,-0.06,-0.14,-0.16
4526,4.71,-2.87,10.57,-0.02,-0.35,0.11
4531,-1.53,0.04,6.20,-0.02,-0.35,0.11
4536,-4.52,0.65,4.18,-0.02,-0.35,0.11
4542,-5.75,-0.38,7.55,-0.02,-0.35,0.11
4547,-5.75,-0.38,7.55,0.08,-0.07,0.46
4551,3.52,-0.46,12.99,0.08,-0.07,0.46
4556,-0.19,-2.68,11.76,0.08,-0.07,0.46
4562,0.73,-4.48,13.18,0.08,-0.07,0.46
4566,2.95,-5.67,14.40,0.08,-0.07,0.46
4572,1.38,-4.25,12.57,0.08,-0.07,0.46
4576,1.38,-4.25,12.57,0.24,0.02,0.47
4581,1.38,-4.25,12.57,0.25,0.12,0.55
4587,-5.02,-0.46,5.79,0.25,0.12,0.55
4592,-4.48,0.46,5.40,0.25,0.12,0.55
4596,-4.48,0.46,5.40,0.09,0.19,0.52
4601,-1.91,-0.11,8.08,0.09,0.19,0.52
4607,-1.07,0.27,7.01,0.09,0.19,0.52
4611,-1.07,0.27,7.01,0.01,-0.22,0.29
4617,-1.07,0.27,7.01,-0.00,-0.31,0.37
4623,0.23,-1.76,8.77,-0.00,-0.31,0.37
4626,0.23,-1.76,8.77,0.07,-0.25,0.51
4631,0.23,-1.76,8.77,0.08,-0.13,0.52
4636,0.23,-1.76,8.77,0.10,-0.04,0.53
4642,-1.68,1.15,10.19,0.10,-0.04,0.53
4646,-1.68,1.15,10.19,0.10,0.02,0.51
4651,2.87,0.54,9.73,0.10,0.02,0.51
4656,0.92,0.50,9.00,0.10,0.02,0.51
4662,-0.08,0.80,8.32,0.10,0.02,0.51
4666,-0.08,0.80,8.32,0.05,0.03,0.40
4671,-6.86,1.61,8.54,0.05,0.03,0.40
4677,-9.30,3.48,5.98,0.05,0.03,0.40
4681,-9.30,3.48,5.98,-0.02,0.28,0.41
4686,2.45,0.04,12.34,-0.02,0.28,0.41
4692,6.40,-0.46,13.63,-0.02,0.28,0.41
4696,6.40,-0.46,13.63,-0.16,-0.25,0.12
4701,6.40,-0.46,13.63,-0.17,-0.33,0.01
4706,5.32,-1.30,12.26,-0.17,-0.33,0.01
4711,2.76,-0.80,10.39,-0.17,-0.33,0.01
4716,2.76,-0.80,10.39,-0.13,-0.03,0.08
4721,2.76,-0.80,10.39,-0.12,0.18,0.12
4727,-2.22,1.19,10.91,-0.12,0.18,0.12
4732,-2.22,1.19,10.91,-0.10,0.41,0.06
4736,-2.22,1.19,10.91,-0.10,0.36,-0.01
4742,1.46,0.42,10.73,-0.10,0.36,-0.01
4747,1.61,0.15,9.00,-0.10,0.36,-0.01
4751,1.61,0.15,9.00,-0.11,0.07,-0.18
4756,1.61,0.15,9.00,-0.10,0.05,-0.16
4762,-2.07,0.69,5.66,-0.10,0.05,-0.16
4767,-2.07,0.69,5.66,-0.14,0.09,-0.13
4771,-2.07,0.69,5.66,-0.17,0.10,-0.18
4777,-2.07,0.69,5.66,-0.19,0.08,-0.28
4782,-2.91,1.65,7.63,-0.19,0.08,-0.28
4787,-2.91,1.65,7.63,-0.22,-0.05,-0.44
4792,-2.91,1.65,7.63,-0.23,-0.15,-0.45
4797,0.88,1.46,3.33,-0.23,-0.15,-0.45
4802,0.88,1.46,3.33,-0.28,-0.26,-0.49
4807,0.88,1.46,3.33,-0.27,-0.20,-0.53
4813,2.49,2.22,11.15,-0.27,-0.20,-0.53
4816,2.49,2.22,11.15,-0.25,-0.17,-0.44
4821,2.49,2.22,11.15,-0.25,-0.19,-0.42
4826,-1.46,1.11,16.77,-0.25,-0.19,-0.42
4832,1.46,-1.04,14.78,-0.25,-0.19,-0.42
4837,1.46,-1.04,14.78,-0.19,0.16,-0.54
4842,1.46,-1.04,14.78,-0.12,0.22,-0.46
4848,0.57,-2.72,7.93,-0.12,0.22,-0.46
4851,0.57,-2.72,7.93,0.01,0.24,-0.27
4856,0.57,-2.72,7.93,0.03,0.26,-0.21
4861,-1.99,0.11,8.36,0.03,0.26,-0.21
4867,-1.95,0.46,8.77,0.03,0.26,-0.21
4871,-1.95,0.46,8.77,-0.05,0.19,-0.30
4876,-1.95,0.46,8.77,-0.06,0.13,-0.33
4882,-2.07,-1.30,8.62,-0.06,0.13,-0.33
4887,-2.07,-1.30,8.62,-0.02,0.01,-0.21
4891,-2.07,-1.30,8.62,-0.02,-0.02,-0.15
4896,-2.07,-1.30,8.62,-0.01,-0.06,-0.14
4902,-1.11,0.38,8.73,-0.01,-0.06,-0.14
4906,-1.11,0.38,8.73,0.01,-0.06,-0.22
4911,-1.11,0.38,8.73,0.01,0.03,-0.25
4916,-1.11,0.38,8.73,0.02,0.17,-0.22
4922,-11.68,1.99,2.18,0.02,0.17,-0.22
4926,-11.68,1.99,2.18,0.00,0.22,-0.14
4832,1.46,-1.04,14.78,-0.25,-0.19,-0.42
4837,1.46,-1.04,14.78,-0.19,0.16,-0.54
4842,1.46,-1.04,14.78,-0.12,0.22,-0.46
4848,0.57,-2.72,7.93,-0.12,0.22,-0.46
4851,0.57,-2.72,7.93,0.01,0.24,-0.27
4856,0.57,-2.72,7.93,0.03,0.26,-0.21
4861,-1.99,0.11,8.36,0.03,0.26,-0.21
4867,-1.95,0.46,8.77,0.03,0.26,-0.21
4871,-1.95,0.46,8.77,-0.05,0.19,-0.30
4876,-1.95,0.46,8.77,-0.06,0.13,-0.33
4882,-2.07,-1.30,8.62,-0.06,0.13,-0.33
4887,-2.07,-1.30,8.62,-0.02,0.01,-0.21
4891,-2.07,-1.30,8.62,-0.02,-0.02,-0.15
4896,-2.07,-1.30,8.62,-0.01,-0.06,-0.14
4902,-1.11,0.38,8.73,-0.01,-0.06,-0.14
