timestamp,accX,accY,accZ,gyroX,gyroY,gyroZ
Left
6,-0.27,-1.04,9.00,0.10,-0.11,-0.03
19,-0.27,-1.04,9.00,0.11,-0.08,-0.03
21,-0.27,-1.04,9.00,0.01,0.34,-0.21
22,-0.27,-1.04,9.00,0.04,0.23,-0.24
26,-2.41,-1.11,8.42,0.04,0.23,-0.24
31,-2.41,-1.11,8.42,0.06,0.14,-0.26
37,-0.54,-0.08,9.50,0.06,0.14,-0.26
42,-0.92,0.19,9.54,0.06,0.14,-0.26
47,-0.92,0.19,9.54,0.02,-0.09,-0.22
52,-0.92,0.19,9.54,-0.02,-0.08,-0.26
57,-0.84,-0.69,10.04,-0.02,-0.08,-0.26
62,-0.84,-0.69,10.04,-0.04,-0.00,-0.32
66,-0.84,-0.69,10.04,-0.03,0.03,-0.33
71,-0.77,-1.30,7.66,-0.03,0.03,-0.33
77,-2.18,-1.04,6.85,-0.03,0.03,-0.33
81,-2.18,-1.04,6.85,0.03,0.10,-0.29
87,-2.18,-1.04,6.85,0.05,0.05,-0.32
92,-5.94,-0.69,6.66,0.05,0.05,-0.32
97,-5.94,-0.69,6.66,0.06,0.01,-0.32
101,-5.94,-0.69,6.66,0.07,-0.07,-0.35
106,-5.94,-0.69,6.66,0.03,-0.13,-0.35
112,2.07,-0.57,11.30,0.03,-0.13,-0.35
117,2.07,-0.57,11.30,0.04,-0.12,-0.23
121,2.07,-0.57,11.30,0.04,-0.06,-0.23
126,2.07,-0.57,11.30,0.05,0.02,-0.22
132,1.34,-0.61,9.30,0.05,0.02,-0.22
137,1.34,-0.61,9.30,0.09,0.08,-0.17
141,-0.46,-1.23,8.70,0.09,0.08,-0.17
147,0.54,-0.77,9.43,0.09,0.08,-0.17
151,0.54,-0.77,9.43,0.16,0.07,-0.04
156,0.54,-0.77,9.43,0.16,0.07,-0.05
162,-0.77,-0.84,9.08,0.16,0.07,-0.05
167,-0.77,-0.84,9.08,0.15,0.06,-0.05
172,-0.77,-0.84,9.08,0.15,0.04,-0.08
178,-0.80,-1.38,8.73,0.15,0.04,-0.08
181,-0.80,-1.38,8.73,0.14,-0.11,-0.12
187,-0.80,-1.38,8.73,0.16,-0.17,-0.13
191,-0.80,-1.38,8.73,0.16,-0.18,-0.13
197,1.95,-1.19,9.93,0.16,-0.18,-0.13
201,1.95,-1.19,9.93,0.15,-0.23,-0.17
207,1.95,-1.19,9.93,0.03,-0.23,-0.16
213,0.15,-3.26,14.82,0.03,-0.23,-0.16
217,0.15,-3.26,14.82,0.04,0.11,-0.10
222,0.15,-3.26,14.82,0.09,0.34,-0.11
227,0.15,-3.26,14.82,0.16,0.49,-0.09
232,-2.64,-4.14,7.97,0.16,0.49,-0.09
236,-2.64,-4.14,7.97,0.30,0.35,0.06
241,-2.64,-4.14,7.97,0.35,0.12,0.14
246,-2.64,-4.14,7.97,0.35,-0.09,0.17
252,-0.96,-0.57,6.62,0.35,-0.09,0.17
256,-0.96,-0.57,6.62,0.32,-0.21,0.08
261,-0.96,-0.57,6.62,0.25,-0.17,0.03
268,-2.68,1.53,9.43,0.25,-0.17,0.03
271,-2.68,1.53,9.43,0.20,-0.07,-0.02
276,-2.68,1.53,9.43,0.17,-0.08,-0.03
282,-0.80,-0.80,9.85,0.17,-0.08,-0.03
286,-0.80,-0.80,9.85,0.13,-0.14,-0.10
292,-0.80,-0.80,9.85,0.12,-0.18,-0.13
297,-0.15,-1.07,7.81,0.12,-0.18,-0.13
302,0.23,0.30,8.58,0.12,-0.18,-0.13
306,0.23,0.30,8.58,0.18,-0.09,-0.11
311,0.23,0.30,8.58,0.19,-0.03,-0.07
317,0.30,0.57,12.03,0.19,-0.03,-0.07
321,0.30,0.57,12.03,0.16,0.01,-0.05
327,0.30,0.57,12.03,0.14,-0.04,-0.02
331,3.48,-2.14,11.07,0.14,-0.04,-0.02
337,2.11,-1.19,10.03,0.14,-0.04,-0.02
341,2.11,-1.19,10.03,0.21,0.00,0.18
346,2.11,-1.19,10.03,0.24,0.05,0.18
353,-2.34,-1.27,8.04,0.24,0.05,0.18
356,-2.34,-1.27,8.04,0.27,0.13,0.19
361,-2.34,-1.27,8.04,0.25,0.10,0.18
366,-2.34,-1.27,8.04,0.27,0.04,0.17
373,-1.27,-0.77,8.54,0.27,0.04,0.17
376,-1.27,-0.77,8.54,0.26,-0.09,0.19
382,-0.69,0.50,8.39,0.26,-0.09,0.19
387,-0.69,0.50,8.27,0.26,-0.09,0.19
392,-0.69,0.50,8.27,0.21,-0.10,0.13
397,-0.69,0.50,8.27,0.19,-0.16,0.13
401,-3.07,-0.61,9.39,0.19,-0.16,0.13
408,-4.52,0.84,9.58,0.19,-0.16,0.13
411,-4.52,0.84,9.58,0.19,0.12,0.08
416,-6.44,-0.19,7.20,0.19,0.12,0.08
422,-1.38,0.04,7.59,0.19,0.12,0.08
426,-1.38,0.04,7.59,0.18,0.06,0.04
432,-1.38,0.04,7.59,0.17,-0.15,0.07
437,5.09,0.19,12.26,0.17,-0.15,0.07
441,5.09,0.19,12.26,0.12,-0.33,0.09
447,5.09,0.19,12.26,0.11,-0.20,0.06
451,5.09,0.19,12.26,0.11,-0.02,0.04
457,-2.18,-1.19,12.87,0.11,-0.02,0.04
461,-2.18,-1.19,12.87,0.15,0.26,0.02
467,-2.18,-1.19,12.87,0.22,0.28,0.06
472,1.34,-2.30,8.58,0.22,0.28,0.06
477,1.34,-2.30,8.58,0.26,0.07,0.16
482,1.34,-2.30,8.58,0.27,-0.03,0.20
486,1.34,-2.30,8.58,0.25,-0.12,0.20
492,1.00,0.08,7.21,0.25,-0.12,0.20
496,1.00,0.08,7.21,0.28,-0.01,0.21
502,1.00,0.08,7.21,0.26,0.12,0.19
507,-6.09,2.95,6.93,0.26,0.12,0.19
512,-6.09,2.95,6.93,0.19,0.19,0.01
517,-6.09,2.95,6.93,0.14,0.09,-0.07
521,-0.23,-0.50,8.93,0.14,0.09,-0.07
528,1.57,-0.04,9.00,0.14,0.09,-0.07
531,1.57,-0.04,9.00,0.04,-0.43,-0.18
537,1.57,-0.04,9.00,0.01,-0.48,-0.21
542,-0.23,-0.46,9.58,0.01,-0.48,-0.21
546,-0.23,-0.46,9.58,0.01,-0.21,-0.23
552,-0.23,-0.46,9.58,0.06,-0.04,-0.21
558,-2.45,-1.38,10.11,0.06,-0.04,-0.21
561,-2.45,-1.38,10.11,0.15,0.21,-0.13
566,-2.45,-1.38,10.11,0.18,0.23,-0.08
572,-2.45,-1.38,10.11,0.21,0.19,-0.04
577,-0.46,-1.07,9.34,0.21,0.19,-0.04
582,-0.46,-1.07,9.34,0.23,0.12,0.03
587,-0.46,-1.07,9.34,0.22,0.06,0.03
592,-1.80,-0.84,8.82,0.22,0.06,0.03
597,-1.80,-0.84,8.82,0.22,-0.00,-0.02
601,-1.80,-0.84,8.82,0.23,-0.06,-0.04
606,-1.80,-0.84,8.82,0.24,-0.07,-0.08
612,0.46,-1.57,8.42,0.24,-0.07,-0.08
616,0.46,-1.57,8.42,0.21,-0.16,-0.11
621,0.46,-1.57,8.42,0.18,-0.23,-0.12
626,0.46,-1.57,8.42,0.18,-0.21,-0.10
631,2.34,-0.30,11.11,0.18,-0.21,-0.10
637,2.34,-0.30,11.11,0.16,-0.05,-0.14
642,-0.42,-0.23,12.64,0.16,-0.05,-0.14
647,-1.11,-0.30,11.45,0.16,-0.05,-0.14
651,-1.11,-0.30,11.45,0.20,0.20,-0.16
656,-1.11,-0.30,11.45,0.22,0.17,-0.12
662,-1.80,-0.80,8.35,0.22,0.17,-0.12
666,-1.80,-0.80,8.35,0.29,0.14,-0.01
672,-1.80,-0.80,8.35,0.27,0.12,-0.01
676,-2.80,0.54,9.96,0.27,0.12,-0.01
682,-2.72,-0.27,10.69,0.27,0.12,-0.01
686,-2.72,-0.27,10.69,0.28,0.03,0.01
692,-2.72,-0.27,10.69,0.25,-0.04,0.03
697,0.34,-0.42,10.42,0.25,-0.04,0.03
701,0.34,-0.42,10.42,0.26,-0.09,0.09
706,0.34,-0.42,10.42,0.28,-0.02,0.13
711,0.34,-0.42,10.42,0.30,0.03,0.14
717,-2.49,0.04,7.97,0.30,0.03,0.14
721,-2.49,0.04,7.97,0.30,0.05,0.17
726,-2.49,0.04,7.97,0.29,-0.01,0.17
732,0.30,-1.11,10.11,0.29,-0.01,0.17
737,0.30,-1.11,10.11,0.30,-0.10,0.21
741,0.30,-1.11,10.11,0.33,-0.06,0.27
746,0.30,-1.11,10.11,0.34,-0.07,0.26
752,-1.27,-1.07,7.01,0.34,-0.07,0.26
756,-1.27,-1.07,7.01,0.36,0.01,0.35
761,-1.27,-1.07,7.01,0.35,0.03,0.34
767,-1.19,-0.46,11.49,0.35,0.03,0.34
772,-1.19,-0.46,11.49,0.29,-0.03,0.30
776,-1.19,-0.46,11.49,0.30,-0.07,0.38
782,-1.19,-0.46,11.49,0.31,-0.09,0.44
787,-1.19,-0.46,11.49,0.34,-0.03,0.50
791,-1.19,-0.46,11.49,0.38,0.06,0.57
797,-1.19,-0.46,11.49,0.41,0.10,0.62
802,2.11,-1.46,12.53,0.41,0.10,0.62
806,2.11,-1.46,12.53,0.39,0.11,0.70
812,2.11,-1.46,12.53,0.43,0.09,0.76
817,2.11,-1.46,12.53,0.46,0.08,0.81
821,2.11,-1.46,12.53,0.47,0.10,0.85
826,2.11,-1.46,12.53,0.49,0.15,0.88
832,2.11,-1.46,12.53,0.53,0.26,0.88
837,-4.94,0.34,5.86,0.53,0.26,0.88
842,-4.94,0.34,5.86,0.49,0.28,0.75
846,-4.94,0.34,5.86,0.41,0.15,0.67
852,-4.94,0.34,5.86,0.38,-0.03,0.62
857,-4.94,0.34,5.86,0.36,-0.19,0.58
861,-4.94,0.34,5.86,0.32,-0.28,0.53
867,-4.94,0.34,5.86,0.33,-0.27,0.44
872,-3.83,0.80,8.66,0.33,-0.27,0.44
877,-3.83,0.80,8.66,0.27,-0.18,0.32
881,-3.83,0.80,8.66,0.23,-0.18,0.33
887,-3.83,0.80,8.66,0.23,-0.22,0.37
892,-3.83,0.80,8.66,0.23,-0.25,0.40
897,-3.83,0.80,8.66,0.25,-0.25,0.43
901,-3.83,0.80,8.66,0.28,-0.18,0.50
907,0.80,0.46,13.14,0.28,-0.18,0.50
911,0.80,0.46,13.14,0.32,0.11,0.62
916,0.80,0.46,13.14,0.33,0.24,0.63
922,0.80,0.46,13.14,0.35,0.30,0.64
927,0.80,0.46,13.14,0.36,0.31,0.69
932,0.80,0.46,13.14,0.35,0.28,0.77
937,0.80,0.46,13.14,0.37,0.17,0.81
941,0.80,0.46,13.14,0.34,0.08,0.82
946,0.80,0.46,13.14,0.36,0.05,0.83
951,0.80,0.46,13.14,0.37,0.06,0.79
957,0.80,0.46,13.14,0.35,0.10,0.71
961,0.80,0.46,13.14,0.29,0.13,0.62
967,0.80,0.46,13.14,0.25,0.09,0.51
972,0.80,0.46,13.14,0.21,-0.04,0.45
977,0.80,0.46,13.14,0.20,-0.14,0.45
981,0.80,0.46,13.14,0.21,-0.21,0.44
986,0.80,0.46,13.14,0.19,-0.22,0.39
991,-3.52,-0.30,6.05,0.19,-0.22,0.39
997,-3.52,-0.30,6.05,0.18,-0.22,0.32
1001,-3.52,-0.30,6.05,0.17,-0.16,0.17
1007,-3.52,-0.30,6.05,0.16,-0.17,0.13
1011,-3.52,-0.30,6.05,0.14,-0.19,0.15
1016,-3.52,-0.30,6.05,0.13,-0.23,0.21
1022,-3.52,-0.30,6.05,0.14,-0.25,0.27
1027,1.80,-0.42,13.91,0.14,-0.25,0.27
1032,1.80,-0.42,13.91,0.17,-0.09,0.39
1037,1.80,-0.42,13.91,0.16,0.10,0.41
1042,1.80,-0.42,13.91,0.15,0.23,0.35
1047,1.80,-0.42,13.91,0.16,0.24,0.27
1051,1.80,-0.42,13.91,0.18,0.18,0.23
1056,1.80,-0.42,13.91,0.20,0.09,0.26
1062,7.12,-1.84,5.82,0.20,0.09,0.26
1066,7.12,-1.84,5.82,0.21,-0.39,0.36
1071,7.12,-1.84,5.82,0.18,-0.52,0.44
1077,7.12,-1.84,5.82,0.14,-0.50,0.46
1081,7.12,-1.84,5.82,0.12,-0.39,0.36
1086,7.12,-1.84,5.82,0.08,-0.21,0.22
1091,7.12,-1.84,5.82,0.06,-0.02,0.13
1097,0.27,-0.88,9.20,0.06,-0.02,0.13
1101,0.27,-0.88,9.20,0.10,0.12,0.14
1106,0.27,-0.88,9.20,0.12,0.11,0.15
1112,0.27,-0.88,9.20,0.14,0.04,0.13
1116,0.27,-0.88,9.20,0.14,-0.03,0.09
1122,0.27,-0.88,9.20,0.14,-0.10,0.08
1126,0.27,-0.88,9.20,0.12,-0.15,0.03
1132,-1.34,2.03,8.23,0.12,-0.15,0.03
1137,-1.34,2.03,8.23,0.06,-0.18,-0.01
1142,-1.34,2.03,8.23,0.04,-0.17,-0.01
1147,-1.34,2.03,8.23,0.03,-0.16,0.02
1151,-1.34,2.03,8.23,0.06,-0.15,0.10
1156,-1.34,2.03,8.23,0.09,-0.09,0.19
1161,-1.34,2.03,8.23,0.11,-0.01,0.24
1167,-2.22,0.00,10.73,0.11,-0.01,0.24
1171,-2.22,0.00,10.73,0.15,0.12,0.27
1177,-2.22,0.00,10.73,0.18,0.11,0.29
1182,-2.22,0.00,10.73,0.23,0.08,0.29
1186,-2.22,0.00,10.73,0.24,-0.00,0.31
1191,-2.22,0.00,10.73,0.24,-0.12,0.30
1196,-2.22,0.00,10.73,0.24,-0.26,0.29
1202,-2.30,-0.34,6.13,0.24,-0.26,0.29
1206,-2.30,-0.34,6.13,0.18,-0.36,0.24
1212,-2.30,-0.34,6.13,0.14,-0.39,0.17
1217,-2.30,-0.34,6.13,0.12,-0.41,0.11
1221,-2.30,-0.34,6.13,0.11,-0.39,0.12
1227,-2.30,-0.34,6.13,0.10,-0.40,0.13
1232,-2.30,-0.34,6.13,0.11,-0.38,0.16
1237,-2.30,-0.34,6.13,0.14,-0.29,0.25
1241,-2.30,-0.34,6.13,0.17,-0.16,0.34
1246,-2.30,-0.34,6.13,0.21,-0.01,0.45
1252,1.19,-0.46,11.60,0.21,-0.01,0.45
1256,1.19,-0.46,11.60,0.32,0.25,0.64
1261,1.19,-0.46,11.60,0.38,0.31,0.72
1267,1.19,-0.46,11.60,0.38,0.32,0.80
1271,1.19,-0.46,11.60,0.41,0.26,0.84
1276,1.19,-0.46,11.60,0.40,0.12,0.88
1281,1.19,-0.46,11.60,0.40,-0.04,0.93
1287,0.50,-1.42,9.16,0.40,-0.04,0.93
1291,0.50,-1.42,9.16,0.37,-0.24,0.97
1297,0.50,-1.42,9.16,0.33,-0.27,0.98
1302,0.50,-1.42,9.16,0.30,-0.23,0.99
1306,0.50,-1.42,9.16,0.28,-0.17,0.98
1311,0.50,-1.42,9.16,0.28,-0.11,0.96
1316,0.50,-1.42,9.16,0.29,-0.04,0.98
1322,-3.03,-2.61,7.66,0.29,-0.04,0.98
1326,-3.03,-2.61,7.66,0.36,0.05,1.06
1332,-3.03,-2.61,7.66,0.38,0.05,1.07
1337,-3.03,-2.61,7.66,0.38,-0.00,1.06
1342,-3.03,-2.61,7.66,0.37,-0.08,1.06
1347,-3.03,-2.61,7.66,0.35,-0.17,1.07
1351,-3.03,-2.61,7.66,0.35,-0.21,1.10
1357,3.64,-3.45,12.64,0.35,-0.21,1.10
1361,3.64,-3.45,12.64,0.30,-0.20,1.14
1366,3.64,-3.45,12.64,0.30,-0.10,1.18
1372,3.64,-3.45,12.64,0.29,0.06,1.23
1377,-1.34,-1.57,14.64,0.29,0.06,1.23
1382,-1.34,-1.57,14.64,0.30,0.38,1.20
1386,-1.34,-1.57,14.64,0.33,0.48,1.20
1392,-2.72,-3.79,10.11,0.33,0.48,1.20
1396,-2.72,-3.79,10.11,0.40,0.41,1.22
1402,-2.72,-3.79,10.11,0.42,0.29,1.24
1407,-2.72,-3.79,10.11,0.41,0.14,1.24
1411,-2.72,-3.79,10.11,0.39,-0.01,1.20
1416,-2.72,-3.79,10.11,0.34,-0.11,1.14
1421,-2.72,-3.79,10.11,0.28,-0.13,1.05
1427,1.07,1.65,9.65,0.28,-0.13,1.05
1432,1.07,1.65,9.65,0.14,-0.06,0.88
1437,1.07,1.65,9.65,0.11,0.01,0.80
1442,1.07,1.65,9.65,0.08,0.08,0.75
1447,-2.45,-0.61,9.20,0.08,0.08,0.75
1452,-2.45,-0.61,9.20,0.04,0.17,0.58
1456,-2.45,-0.61,9.20,0.04,0.15,0.51
1462,3.60,-1.46,15.09,0.04,0.15,0.51
1466,3.60,-1.46,15.09,0.03,0.07,0.58
1471,3.60,-1.46,15.09,0.01,0.06,0.64
1477,3.60,-1.46,15.09,0.04,0.15,0.72
1481,3.60,-1.46,15.09,0.04,0.30,0.81
1487,3.60,-1.46,15.09,0.05,0.48,0.89
1491,3.60,-1.46,15.09,0.08,0.67,0.94
1497,0.15,1.99,11.30,0.08,0.67,0.94
1501,0.15,1.99,11.30,0.25,0.95,1.03
1506,0.15,1.99,11.30,0.32,0.99,1.05
1512,0.15,1.99,11.30,0.32,0.94,1.04
1517,0.15,1.99,11.30,0.27,0.79,0.96
1521,0.15,1.99,11.30,0.17,0.57,0.83
1526,0.15,1.99,11.30,0.05,0.35,0.63
1532,-4.21,3.18,4.94,0.05,0.35,0.63
1537,-4.21,3.18,4.94,-0.19,-0.05,0.18
1541,-4.21,3.18,4.94,-0.28,-0.19,0.04
1547,-4.21,3.18,4.94,-0.33,-0.30,-0.08
1551,-4.21,3.18,4.94,-0.35,-0.37,-0.16
1557,-4.21,3.18,4.94,-0.36,-0.39,-0.20
1561,-4.21,3.18,4.94,-0.33,-0.38,-0.21
1567,2.30,1.57,10.30,-0.33,-0.38,-0.21
1571,2.30,1.57,10.30,-0.22,-0.13,-0.12
1576,2.30,1.57,10.30,-0.15,0.07,-0.06
1582,-3.07,2.72,9.69,-0.15,0.07,-0.06
1587,-3.07,2.72,9.69,-0.04,0.53,0.01
1592,-3.07,2.72,9.69,-0.04,0.66,0.01
1596,-3.07,2.72,9.69,-0.04,0.70,0.02
1602,-1.23,2.72,11.54,-0.04,0.70,0.02
1606,-1.23,2.72,11.54,-0.12,0.55,0.02
1611,-1.23,2.72,11.54,-0.18,0.43,-0.02
1617,2.53,2.84,9.73,-0.18,0.43,-0.02
1621,2.53,2.84,9.73,-0.22,0.19,-0.04
1627,2.53,2.84,9.73,-0.21,0.11,-0.01
1632,2.53,2.84,9.73,-0.15,0.11,0.04
1637,-1.61,1.76,5.02,-0.15,0.11,0.04
1641,-1.61,1.76,5.02,-0.10,0.25,0.10
1646,-1.61,1.76,5.02,-0.07,0.25,0.05
1651,-2.22,-0.08,5.25,-0.07,0.25,0.05
1657,-2.22,-0.08,5.25,-0.06,0.18,0.01
1661,-2.22,-0.08,5.25,-0.09,-0.03,0.05
1667,-2.22,-0.08,5.25,-0.14,-0.11,0.05
1672,3.52,-1.49,15.17,-0.14,-0.11,0.05
1677,3.52,-1.49,15.17,-0.16,-0.04,0.02
1681,3.52,-1.49,15.17,-0.14,0.13,0.02
1687,-1.23,-1.00,11.49,-0.14,0.13,0.02
1692,-1.23,-1.00,11.49,-0.04,0.44,0.07
1696,-1.23,-1.00,11.49,0.04,0.51,0.11
1702,-1.23,-1.00,11.49,0.09,0.51,0.15
1707,-7.23,-1.38,6.44,0.09,0.51,0.15
1712,-7.23,-1.38,6.44,0.13,0.36,0.14
1716,-7.23,-1.38,6.44,0.15,0.26,0.13
1722,-1.11,-3.03,8.70,0.15,0.26,0.13
1726,-1.11,-3.03,8.70,0.07,-0.16,0.11
1731,-1.11,-3.03,8.70,0.06,-0.38,0.13
1737,-1.11,-3.03,8.70,0.04,-0.55,0.16
1741,-1.11,-3.03,8.70,0.04,-0.63,0.19
1747,-1.11,-3.03,8.70,0.02,-0.60,0.24
1751,-1.11,-3.03,8.70,0.10,-0.45,0.31
1757,1.53,-0.11,11.57,0.10,-0.45,0.31
1761,1.53,-0.11,11.57,0.18,0.03,0.46
1766,1.53,-0.11,11.57,0.21,0.23,0.51
1772,1.53,-0.11,11.57,0.25,0.33,0.55
1776,1.53,-0.11,11.57,0.28,0.35,0.62
1782,1.53,-0.11,11.57,0.30,0.30,0.67
1786,1.53,-0.11,11.57,0.30,0.21,0.71
1792,1.61,-0.61,8.66,0.30,0.21,0.71
1796,1.61,-0.61,8.66,0.28,0.00,0.73
1801,1.61,-0.61,8.66,0.27,-0.07,0.76
1807,1.61,-0.61,8.66,0.26,-0.10,0.83
1812,1.61,-0.61,8.66,0.27,-0.10,0.87
1817,1.61,-0.61,8.66,0.28,-0.07,0.92
1821,1.61,-0.61,8.66,0.29,-0.03,1.00
1827,-1.27,-2.61,11.57,0.29,-0.03,1.00
1832,-1.27,-2.61,11.57,0.32,0.08,1.14
1836,-1.27,-2.61,11.57,0.34,0.11,1.17
1842,-3.56,-3.37,7.09,0.34,0.11,1.17
1846,-3.56,-3.37,7.09,0.39,0.08,1.21
1851,-3.56,-3.37,7.09,0.40,0.02,1.23
1857,-3.56,-3.37,7.09,0.38,-0.08,1.22
1862,1.30,-4.33,10.07,0.38,-0.08,1.22
1866,1.30,-4.33,10.07,0.33,-0.21,1.20
1871,1.30,-4.33,10.07,0.33,-0.19,1.21
1877,0.23,-3.14,10.07,0.33,-0.19,1.21
1882,0.23,-3.14,10.07,0.33,-0.04,1.19
1886,0.23,-3.14,10.07,0.32,0.05,1.14
1892,0.23,-3.14,10.07,0.33,0.12,1.10
1897,-2.41,-2.84,9.92,0.33,0.12,1.10
1901,-2.41,-2.84,9.92,0.33,0.20,1.04
1906,-2.41,-2.84,9.92,0.32,0.18,1.03
1912,-1.07,-2.53,11.34,0.32,0.18,1.03
1916,-1.07,-2.53,11.34,0.33,0.10,1.02
1921,-1.07,-2.53,11.34,0.33,0.08,1.00
1926,-1.07,-2.53,11.34,0.30,0.06,0.97
1931,0.73,-0.50,10.00,0.30,0.06,0.97
1937,0.73,-0.50,10.00,0.28,0.03,0.94
1941,0.73,-0.50,10.00,0.26,0.04,0.90
1947,0.42,2.18,8.54,0.26,0.04,0.90
1951,0.42,2.18,8.54,0.21,0.14,0.89
1956,0.42,2.18,8.54,0.17,0.17,0.83
1962,0.42,2.18,8.54,0.14,0.15,0.77
1967,1.88,-2.11,14.10,0.14,0.15,0.77
1971,1.88,-2.11,14.10,0.12,0.08,0.80
1976,1.88,-2.11,14.10,0.12,0.11,0.85
1982,2.87,-0.15,13.79,0.12,0.11,0.85
1987,2.87,-0.15,13.79,0.14,0.22,0.85
1991,2.87,-0.15,13.79,0.14,0.28,0.86
1996,2.87,-0.15,13.79,0.16,0.32,0.83
2002,-0.54,1.19,8.74,0.16,0.32,0.83
2006,-0.54,1.19,8.74,0.20,0.32,0.82
2012,-0.54,1.19,8.74,0.19,0.29,0.82
2017,-1.46,2.11,9.46,0.19,0.29,0.82
2022,-1.46,2.11,9.46,0.11,0.23,0.76
2026,-1.46,2.11,9.46,0.03,0.19,0.67
2032,-1.46,2.11,9.46,-0.03,0.15,0.55
2036,-1.46,2.11,9.46,-0.08,0.13,0.46
2041,-1.46,2.11,9.46,-0.11,0.14,0.40
2047,-1.46,2.11,9.46,-0.13,0.14,0.34
2052,-1.15,0.27,9.00,-0.13,0.14,0.34
2057,-1.15,0.27,9.00,-0.11,0.14,0.27
2061,-1.15,0.27,9.00,-0.09,0.13,0.26
2067,-1.15,0.27,9.00,-0.06,0.16,0.29
2072,-1.15,0.27,9.00,-0.02,0.22,0.34
2077,-1.15,0.27,9.00,0.01,0.26,0.37
2082,-1.15,0.27,9.00,-0.00,0.25,0.38
2087,3.22,1.99,10.88,-0.00,0.25,0.38
2091,3.22,1.99,10.88,-0.04,0.21,0.41
2096,3.22,1.99,10.88,-0.06,0.23,0.44
2102,2.14,0.42,12.06,-0.06,0.23,0.44
2107,-0.54,0.04,9.58,-0.06,0.23,0.44
2111,-0.54,0.04,9.58,0.00,0.29,0.51
2116,-0.54,0.04,9.58,0.00,0.31,0.54
2122,0.96,2.18,7.93,0.00,0.31,0.54
2127,0.96,2.18,7.93,-0.03,0.24,0.51
2131,0.96,2.18,7.93,-0.06,0.19,0.50
2137,2.91,-0.38,9.23,-0.06,0.19,0.50
2142,2.91,-0.38,9.23,-0.06,0.12,0.54
2146,2.91,-0.38,9.23,-0.05,0.17,0.58
2152,2.91,-0.38,9.23,-0.04,0.23,0.58
2157,-1.42,0.00,9.54,-0.04,0.23,0.58
2161,-1.42,0.00,9.54,-0.02,0.31,0.54
2166,-1.42,0.00,9.54,0.02,0.33,0.53
2172,-2.61,-1.19,7.05,0.02,0.33,0.53
2176,-2.61,-1.19,7.05,0.01,0.23,0.48
2181,-2.61,-1.19,7.05,0.02,0.15,0.47
2187,-2.61,-1.19,7.05,0.01,0.10,0.48
2192,-1.30,-0.08,8.77,0.01,0.10,0.48
2197,-1.30,-0.08,8.77,-0.04,0.07,0.46
2201,-1.30,-0.08,8.77,-0.06,0.08,0.42
2206,-1.30,-0.08,8.77,-0.08,0.11,0.39
2211,1.53,-2.61,12.87,-0.08,0.11,0.39
2217,1.53,-2.61,12.87,-0.04,0.19,0.43
2222,1.53,-2.61,12.87,-0.02,0.23,0.48
2227,0.77,-0.38,9.81,-0.02,0.23,0.48
2231,0.77,-0.38,9.81,0.02,0.32,0.54
2237,0.77,-0.38,9.81,0.06,0.34,0.56
2242,1.61,-1.00,11.26,0.06,0.34,0.56
2246,1.61,-1.00,11.26,0.06,0.28,0.63
2251,1.61,-1.00,11.26,0.08,0.23,0.70
2257,-1.27,0.46,11.46,0.08,0.23,0.70
2261,-1.27,0.46,11.46,0.08,0.24,0.72
2266,-1.27,0.46,11.46,0.10,0.25,0.68
2272,-1.27,0.46,11.46,0.09,0.26,0.66
2277,-0.77,1.27,7.23,0.09,0.26,0.66
2281,-0.77,1.27,7.23,0.05,0.14,0.63
2286,-0.77,1.27,7.23,0.04,0.09,0.60
2292,0.00,0.46,8.81,0.04,0.09,0.60
2296,0.00,0.46,8.81,-0.01,0.06,0.56
2301,0.00,0.46,8.81,-0.03,0.07,0.54
2306,0.00,0.46,8.81,-0.04,0.09,0.50
2312,-0.65,-0.69,10.34,-0.04,0.09,0.50
2316,-0.65,-0.69,10.34,-0.05,0.13,0.45
2321,-0.65,-0.69,10.34,-0.03,0.14,0.45
2327,-0.65,-0.69,10.34,-0.02,0.14,0.48
2332,-0.65,-0.69,10.34,-0.01,0.13,0.51
2336,-0.65,-0.69,10.34,0.02,0.16,0.55
2342,-0.65,-0.69,10.34,0.04,0.20,0.58
2347,-0.08,-0.27,8.35,0.04,0.20,0.58
2351,-0.08,-0.27,8.35,0.08,0.25,0.60
2356,-0.08,-0.27,8.35,0.10,0.27,0.59
2362,-2.45,-0.23,5.82,0.10,0.27,0.59
2366,-2.45,-0.23,5.82,0.11,0.23,0.56
2371,-2.45,-0.23,5.82,0.10,0.18,0.54
2377,-2.45,-0.23,5.82,0.07,0.10,0.50
2381,-2.45,-0.23,5.82,0.04,0.03,0.41
2386,-2.45,-0.23,5.82,-0.01,-0.05,0.30
2391,-2.45,-0.23,5.82,-0.04,-0.17,0.18
2397,3.71,-2.34,10.11,-0.04,-0.17,0.18
2401,3.71,-2.34,10.11,-0.14,-0.45,0.12
2406,3.71,-2.34,10.11,-0.15,-0.51,0.20
2411,3.71,-2.34,10.11,-0.15,-0.45,0.30
2417,5.86,0.46,20.15,-0.15,-0.45,0.30
2421,5.86,0.46,20.15,-0.05,0.05,0.50
2427,5.86,0.46,20.15,-0.01,0.39,0.55
2432,-2.41,0.88,11.30,-0.01,0.39,0.55
2436,-2.41,0.88,11.30,0.17,0.87,0.65
2441,-2.41,0.88,11.30,0.27,0.91,0.73
2447,-2.41,0.88,11.30,0.33,0.82,0.83
2451,-2.41,0.88,11.30,0.35,0.62,0.92
2456,-2.41,0.88,11.30,0.32,0.36,0.94
2462,-2.41,0.88,11.30,0.24,0.11,0.87
2467,-2.41,0.88,11.30,0.14,-0.06,0.74
2471,-2.41,0.88,11.30,0.03,-0.17,0.60
2476,-2.41,0.88,11.30,-0.05,-0.21,0.51
2481,-1.61,-0.50,10.04,-0.05,-0.21,0.51
2487,-2.11,-1.19,10.03,-0.05,-0.21,0.51
2491,-2.11,-1.19,10.03,-0.02,-0.07,0.47
2496,-2.11,-1.19,10.03,0.02,-0.01,0.49
2502,-1.91,-1.72,7.16,0.02,-0.01,0.49
2506,-1.91,-1.72,7.16,0.08,0.01,0.51
2511,-1.91,-1.72,7.16,0.10,0.00,0.53
2517,0.84,-1.53,10.65,0.10,0.00,0.53
2521,0.84,-1.53,10.65,0.11,-0.03,0.59
2526,0.84,-1.53,10.65,0.10,-0.03,0.64
2531,0.84,-1.53,10.65,0.12,0.01,0.71
2537,1.72,0.27,13.21,0.12,0.01,0.71
2541,1.72,0.27,13.21,0.14,0.16,0.86
2546,1.72,0.27,13.21,0.14,0.26,0.86
2552,-0.61,-0.54,9.35,0.14,0.26,0.86
2556,-0.61,-0.54,9.35,0.17,0.29,0.82
2561,-0.61,-0.54,9.35,0.17,0.23,0.87
2567,-0.61,-0.54,9.35,0.18,0.13,0.93
2571,-0.61,-0.54,9.35,0.17,0.04,0.98
2576,-0.61,-0.54,9.35,0.15,0.02,1.01
2581,-0.61,-0.54,9.35,0.13,0.05,0.98
2587,-0.61,-0.54,9.35,0.13,0.12,0.94
2591,-0.61,-0.54,9.35,0.12,0.19,0.90
2596,-0.61,-0.54,9.35,0.11,0.23,0.85
2601,-0.61,-0.54,9.35,0.12,0.22,0.81
2607,-0.61,-0.54,9.35,0.11,0.17,0.79
2611,-0.61,-0.54,9.35,0.12,0.09,0.78
2616,-0.61,-0.54,9.35,0.11,0.01,0.80
2622,8.58,-2.87,10.27,0.11,0.01,0.80
2626,8.58,-2.87,10.27,0.08,-0.14,0.87
2631,8.58,-2.87,10.27,0.08,-0.10,0.95
2637,8.58,-2.87,10.27,0.09,0.06,0.99
2641,8.58,-2.87,10.27,0.10,0.36,0.94
2646,8.58,-2.87,10.27,0.09,0.68,0.81
2651,8.58,-2.87,10.27,0.09,0.89,0.64
2657,-6.82,-2.26,12.60,0.09,0.89,0.64
2661,-6.82,-2.26,12.60,0.07,0.70,0.57
2666,-6.82,-2.26,12.60,0.06,0.35,0.67
2672,-6.82,-2.26,12.60,0.07,-0.01,0.80
2676,-6.82,-2.26,12.60,0.04,-0.27,0.87
2681,-6.82,-2.26,12.60,0.04,-0.38,0.88
2686,-6.82,-2.26,12.60,0.04,-0.29,0.85
2692,-1.68,5.71,8.73,0.04,-0.29,0.85
2696,-1.68,5.71,8.73,0.07,0.23,0.76
2701,-1.68,5.71,8.73,0.09,0.49,0.73
2707,-1.68,5.71,8.73,0.12,0.63,0.75
2711,-1.68,5.71,8.73,0.12,0.62,0.78
2716,-1.68,5.71,8.73,0.10,0.47,0.80
2721,-1.68,5.71,8.73,0.08,0.27,0.80
2727,-1.68,5.71,8.73,0.02,0.08,0.73
2731,-1.68,5.71,8.73,-0.03,-0.05,0.61
2736,-1.68,5.71,8.73,-0.07,-0.09,0.52
2741,-1.68,5.71,8.73,-0.11,-0.07,0.48
2747,1.11,0.57,11.80,-0.11,-0.07,0.48
2751,1.11,0.57,11.80,-0.07,0.04,0.53
2756,1.11,0.57,11.80,-0.04,0.12,0.62
2762,2.34,-0.46,13.91,-0.04,0.12,0.62
2766,2.34,-0.46,13.91,0.02,0.27,0.77
2771,2.34,-0.46,13.91,0.03,0.33,0.80
2777,2.34,-0.46,13.91,0.03,0.38,0.80
2782,2.34,-0.46,13.91,0.03,0.39,0.77
2786,2.34,-0.46,13.91,0.02,0.39,0.76
2792,2.34,-0.46,13.91,0.02,0.36,0.75
2796,2.34,-0.46,13.91,-0.02,0.29,0.72
2801,2.34,-0.46,13.91,-0.04,0.22,0.71
2807,2.34,-0.46,13.91,-0.06,0.13,0.70
2812,2.34,-0.46,13.91,-0.08,0.07,0.70
2816,2.68,-1.49,10.80,-0.08,0.07,0.70
2821,2.68,-1.49,10.80,-0.11,0.04,0.66
2827,2.68,-1.49,10.80,-0.12,0.04,0.65
2831,2.68,-1.49,10.80,-0.11,0.08,0.65
2836,2.68,-1.49,10.80,-0.09,0.14,0.69
2841,2.68,-1.49,10.80,-0.07,0.22,0.74
2847,2.68,-1.49,10.80,-0.05,0.33,0.79
2851,2.68,-1.49,10.80,-0.02,0.43,0.84
2856,2.68,-1.49,10.80,0.02,0.49,0.86
2861,2.68,-1.49,10.80,0.04,0.49,0.88
2867,2.68,-1.49,10.80,0.08,0.47,0.88
2871,2.68,-1.49,10.80,0.06,0.38,0.87
2877,2.68,-1.49,10.80,0.03,0.26,0.81
2882,2.68,-1.49,10.80,-0.00,0.15,0.74
2886,0.50,0.50,11.38,-0.00,0.15,0.74
2891,0.50,0.50,11.38,-0.11,0.09,0.68
2897,0.50,0.50,11.38,-0.15,0.10,0.64
2901,0.50,0.50,11.38,-0.19,0.16,0.62
2906,0.50,0.50,11.38,-0.21,0.25,0.59
2911,0.50,0.50,11.38,-0.22,0.32,0.55
2917,-0.65,-0.27,11.19,-0.22,0.32,0.55
2921,-0.65,-0.27,11.19,-0.15,0.43,0.56
2926,-0.65,-0.27,11.19,-0.10,0.44,0.58
2932,-0.65,-0.27,11.19,-0.07,0.43,0.63
2936,-0.65,-0.27,11.19,-0.05,0.43,0.68
2941,-0.65,-0.27,11.19,-0.04,0.41,0.70
2947,-0.65,-0.27,11.19,-0.04,0.37,0.68
2951,-0.65,-0.27,11.19,-0.06,0.33,0.68
2956,-0.65,-0.27,11.19,-0.08,0.29,0.69
2961,-0.65,-0.27,11.19,-0.10,0.27,0.68
2967,-0.65,-0.27,11.19,-0.12,0.27,0.63
2971,-0.65,-0.27,11.19,-0.15,0.28,0.58
2976,-0.65,-0.27,11.19,-0.17,0.27,0.53
2981,-0.65,-0.27,11.19,-0.18,0.25,0.48
2987,-0.65,-0.27,11.19,-0.21,0.25,0.46
2991,-0.65,-0.27,11.19,-0.21,0.24,0.45
2996,-0.65,-0.27,11.19,-0.19,0.26,0.44
3001,-0.65,-0.27,11.19,-0.18,0.28,0.44
3007,-0.73,1.30,8.50,-0.18,0.28,0.44
3011,-0.73,1.30,8.50,-0.16,0.31,0.38
3017,-0.73,1.30,8.50,-0.16,0.28,0.38
3021,-0.73,1.30,8.50,-0.16,0.25,0.38
3026,-0.73,1.30,8.50,-0.17,0.23,0.37
3031,-0.73,1.30,8.50,-0.18,0.24,0.38
3037,-0.73,1.30,8.50,-0.20,0.26,0.35
3041,-0.73,1.30,8.50,-0.21,0.24,0.32
3046,-0.73,1.30,8.50,-0.23,0.22,0.33
3052,-0.73,1.30,8.50,-0.26,0.17,0.32
3056,-0.73,1.30,8.50,-0.24,0.14,0.30
3061,-0.73,1.30,8.50,-0.22,0.15,0.34
3067,-0.73,1.30,8.50,-0.21,0.20,0.38
3072,-0.73,1.30,8.50,-0.18,0.24,0.39
3076,-0.88,0.34,7.36,-0.18,0.24,0.39
3081,1.61,2.11,7.28,-0.18,0.24,0.39
3087,1.61,2.11,7.28,-0.12,0.31,0.45
3092,1.61,2.11,7.28,-0.15,0.27,0.43
3096,1.00,1.04,11.41,-0.15,0.27,0.43
3101,-0.08,-0.42,10.54,-0.15,0.27,0.43
3107,-0.08,-0.42,10.54,-0.16,0.16,0.43
3112,-0.08,-0.42,10.54,-0.17,0.17,0.41
3116,-2.26,1.61,7.66,-0.17,0.17,0.41
3121,-1.88,0.57,8.39,-0.17,0.17,0.41
3127,-1.88,0.57,8.39,-0.19,0.18,0.27
3132,-1.88,0.57,8.39,-0.19,0.14,0.27
3137,-0.57,-1.07,9.00,-0.19,0.14,0.27
3141,-1.15,0.50,8.88,-0.19,0.14,0.27
3146,-1.15,0.50,8.88,-0.17,0.08,0.27
3151,-1.15,0.50,8.88,-0.18,0.09,0.27
3157,-1.15,0.50,8.88,-0.17,0.11,0.24
3162,-1.15,0.50,8.88,-0.17,0.11,0.22
3166,0.08,-1.11,8.66,-0.17,0.11,0.22
3171,1.07,-1.15,9.20,-0.17,0.11,0.22
3177,1.07,-1.15,9.20,-0.18,0.02,0.22
3181,3.26,0.08,12.18,-0.18,0.02,0.22
3186,2.26,-0.46,12.45,-0.18,0.02,0.22
3192,2.26,-0.46,12.45,-0.16,0.01,0.29
3197,2.26,-0.46,12.45,-0.14,0.08,0.33
3201,1.15,0.23,11.53,-0.14,0.08,0.33
3207,1.15,0.23,11.53,-0.14,0.27,0.37
3212,1.15,0.23,11.53,-0.12,0.34,0.38
3216,-1.27,0.27,8.58,-0.12,0.34,0.38
3221,-1.65,0.34,8.84,-0.12,0.34,0.38
3227,-1.65,0.34,8.84,-0.05,0.29,0.49
3232,-1.65,0.34,8.84,-0.04,0.21,0.48
3236,-1.80,0.04,9.73,-0.04,0.21,0.48
3241,-0.15,-0.19,11.22,-0.04,0.21,0.48
3247,-0.15,-0.19,11.22,-0.10,-0.02,0.44
3252,-0.15,-0.19,11.22,-0.12,-0.04,0.45
3256,1.07,-0.34,10.80,-0.12,-0.04,0.45
3261,1.15,0.46,9.93,-0.12,-0.04,0.45
3266,1.15,0.46,9.93,-0.11,0.06,0.48
3271,1.15,0.46,9.93,-0.10,0.13,0.50
3277,1.15,0.46,9.93,-0.10,0.21,0.48
3282,1.15,0.46,9.93,-0.07,0.24,0.48
3286,-0.96,-0.61,8.89,-0.07,0.24,0.48
3291,-0.69,-0.69,9.42,-0.07,0.24,0.48
3297,-0.69,-0.69,9.42,-0.06,0.07,0.52
3302,-0.69,-0.69,9.42,-0.08,0.01,0.51
3306,1.57,-0.96,11.53,-0.08,0.01,0.51
3311,0.61,-0.57,12.02,-0.08,0.01,0.51
3316,0.61,-0.57,12.02,-0.11,0.10,0.49
3321,0.61,-0.57,12.02,-0.10,0.17,0.49
3327,0.61,-0.57,12.02,-0.08,0.26,0.49
3332,0.61,-0.57,12.02,-0.08,0.32,0.50
3336,-2.84,0.04,8.01,-0.08,0.32,0.50
3341,-3.03,-1.11,7.86,-0.08,0.32,0.50
3347,-3.03,-1.11,7.86,-0.04,0.28,0.47
3352,-3.03,-1.11,7.86,-0.04,0.19,0.46
3356,-0.30,0.46,7.12,-0.04,0.19,0.46
3361,0.73,0.61,8.58,-0.04,0.19,0.46
3367,0.73,0.61,8.58,-0.07,-0.08,0.44
3371,2.76,1.53,11.80,-0.07,-0.08,0.44
3376,3.22,0.92,12.30,-0.07,-0.08,0.44
3381,3.22,0.92,12.30,-0.17,-0.01,0.39
3387,3.22,0.92,12.30,-0.16,0.06,0.41
3392,3.22,0.92,12.30,-0.16,0.17,0.45
3397,-0.34,1.00,9.54,-0.16,0.17,0.45
3401,-4.10,0.19,6.89,-0.16,0.17,0.45
3406,-4.10,1.23,6.47,-0.16,0.17,0.45
3411,-4.10,1.23,6.47,-0.05,0.38,0.47
3417,-4.10,1.23,6.47,-0.08,0.30,0.45
3422,-4.10,1.23,6.47,-0.11,0.17,0.42
3426,-4.10,1.23,6.47,-0.13,-0.05,0.40
3431,1.15,-1.23,11.34,-0.13,-0.05,0.40
3437,1.15,-1.23,11.34,-0.13,-0.07,0.41
3441,0.46,0.42,9.12,-0.13,-0.07,0.41
3446,0.84,1.23,10.15,-0.13,-0.07,0.41
3452,0.84,1.23,10.15,-0.14,0.13,0.37
3457,0.84,1.23,10.15,-0.14,0.18,0.36
3461,-1.61,-0.38,9.54,-0.14,0.18,0.36
3466,-1.72,0.34,10.23,-0.14,0.18,0.36
3472,-1.72,0.34,10.23,-0.10,0.22,0.40
3476,-0.80,-0.84,11.92,-0.10,0.22,0.40
3481,0.19,-0.54,10.07,-0.10,0.22,0.40
3487,0.19,-0.54,10.07,-0.12,0.08,0.44
3492,0.19,-0.54,10.07,-0.13,0.04,0.42
3496,0.69,-0.88,9.16,-0.13,0.04,0.42
3501,-0.15,-0.69,8.01,-0.13,0.04,0.42
3506,0.38,-1.00,8.35,-0.13,0.04,0.42
3511,0.38,-1.00,8.35,-0.09,0.14,0.46
3516,0.38,-1.00,8.35,-0.09,0.15,0.44
3522,0.38,-1.00,8.35,-0.08,0.14,0.45
3527,0.38,-1.00,8.35,-0.09,0.11,0.46
3531,0.38,-0.69,11.88,-0.09,0.11,0.46
3536,0.38,-0.77,12.95,-0.09,0.11,0.46
3542,0.38,-0.77,12.95,-0.11,0.09,0.50
3546,0.34,-0.80,9.50,-0.11,0.09,0.50
3551,-0.15,-0.08,7.97,-0.11,0.09,0.50
3557,-0.15,-0.08,7.97,-0.03,0.12,0.56
3561,-0.30,-0.96,8.27,-0.03,0.12,0.56
3566,0.77,-1.34,9.23,-0.03,0.12,0.56
3572,0.77,-1.34,9.23,-0.01,0.04,0.58
3577,0.77,-1.34,9.23,-0.01,0.02,0.61
3581,0.08,-0.04,8.35,-0.01,0.02,0.61
3586,-1.07,-0.69,8.70,-0.01,0.02,0.61
3592,-1.07,-0.69,8.70,-0.02,0.06,0.56
3596,-1.88,-0.19,8.27,-0.02,0.06,0.56
3601,-0.92,-0.42,8.39,-0.02,0.06,0.56
3606,0.84,-0.54,10.00,-0.02,0.06,0.56
3612,0.84,-0.54,10.00,-0.10,-0.00,0.44
3616,3.18,0.38,11.84,-0.10,-0.00,0.44
3621,2.87,0.38,11.84,-0.10,-0.00,0.44
3627,2.45,0.54,11.30,-0.10,-0.00,0.44
3631,2.11,0.84,11.15,-0.10,-0.00,0.44
3636,1.27,0.57,10.73,-0.10,-0.00,0.44
3641,0.19,1.07,10.99,-0.10,-0.00,0.44
3647,-1.15,0.88,10.50,-0.10,-0.00,0.44
3651,-2.49,1.42,10.11,-0.10,-0.00,0.44
3656,-3.14,1.88,10.27,-0.10,-0.00,0.44
3662,-3.14,1.88,10.27,-0.15,0.35,0.29
3666,-1.57,1.34,10.03,-0.15,0.35,0.29
3671,-0.61,0.15,9.27,-0.15,0.35,0.29
3677,-0.61,0.73,9.23,-0.15,0.35,0.29
3681,-0.27,-0.57,7.97,-0.15,0.35,0.29
3686,-0.80,-0.27,8.27,-0.15,0.35,0.29
3692,-0.80,-0.27,8.27,-0.19,-0.01,0.19
3697,-0.80,-0.27,8.27,-0.18,-0.02,0.19
3701,1.49,-0.23,9.58,-0.18,-0.02,0.19
3706,0.65,-0.19,9.88,-0.18,-0.02,0.19
3712,0.46,-0.57,10.46,-0.18,-0.02,0.19
3716,0.34,-0.77,9.84,-0.18,-0.02,0.19
3721,0.65,-1.34,9.92,-0.18,-0.02,0.19
3726,0.38,0.04,9.00,-0.18,-0.02,0.19
3732,0.38,0.04,9.00,-0.10,0.13,0.30
3736,-0.57,1.00,8.96,-0.10,0.13,0.30
3741,0.46,-0.27,9.50,-0.10,0.13,0.30
3747,-0.92,0.50,9.23,-0.10,0.13,0.30
3751,-0.11,0.04,9.46,-0.10,0.13,0.30
3756,-0.73,0.23,9.69,-0.10,0.13,0.30
3761,-0.04,0.15,9.58,-0.10,0.13,0.30
3766,-1.49,0.27,9.08,-0.10,0.13,0.30
3772,-1.49,0.27,9.08,-0.13,0.10,0.36
3777,-0.08,0.77,9.54,-0.13,0.10,0.36
3781,-0.80,1.42,8.20,-0.13,0.10,0.36
3786,-1.49,0.69,8.39,-0.13,0.10,0.36
3791,-1.99,1.27,8.46,-0.13,0.10,0.36
3797,-1.53,0.88,9.12,-0.13,0.10,0.36
3801,-0.57,1.11,9.77,-0.13,0.10,0.36
3806,-0.08,1.04,11.15,-0.13,0.10,0.36
3811,0.61,1.15,11.72,-0.13,0.10,0.36
3817,1.91,0.73,12.38,-0.13,0.10,0.36
3821,1.30,1.38,11.98,-0.13,0.10,0.36
3826,0.08,2.14,10.80,-0.13,0.10,0.36
3832,-1.34,4.60,11.34,-0.13,0.10,0.36
3836,-3.48,3.33,11.38,-0.13,0.10,0.36
3841,-2.30,2.57,10.49,-0.13,0.10,0.36
3847,-1.27,1.84,10.04,-0.13,0.10,0.36
3851,-4.52,2.22,7.70,-0.13,0.10,0.36
3856,-5.63,1.99,8.08,-0.13,0.10,0.36
3861,-3.79,1.49,9.85,-0.13,0.10,0.36
3866,-4.75,1.49,8.04,-0.13,0.10,0.36
3871,-4.75,1.49,8.04,-0.32,0.16,0.38
3877,-4.75,1.49,8.04,-0.32,0.12,0.37
3882,-1.91,1.53,7.97,-0.32,0.12,0.37
3886,1.11,0.96,9.16,-0.32,0.12,0.37
3891,1.23,0.46,9.65,-0.32,0.12,0.37
3896,-0.30,0.34,8.43,-0.32,0.12,0.37
3902,-1.80,0.04,9.46,-0.32,0.12,0.37
3906,-0.46,-1.95,10.57,-0.32,0.12,0.37
3911,-0.57,-1.95,11.15,-0.32,0.12,0.37
3917,-0.73,-1.84,10.91,-0.32,0.12,0.37
3921,1.95,-3.14,11.96,-0.32,0.12,0.37
3926,3.71,-3.03,10.99,-0.32,0.12,0.37
3931,3.26,-2.26,11.46,-0.32,0.12,0.37
3937,3.75,-2.30,10.11,-0.32,0.12,0.37
3941,3.33,-2.53,9.16,-0.32,0.12,0.37
3946,3.29,-1.84,9.34,-0.32,0.12,0.37
3952,3.26,-1.99,10.07,-0.32,0.12,0.37
3956,1.23,-2.49,8.73,-0.32,0.12,0.37
3961,2.57,-1.53,10.54,-0.32,0.12,0.37
3966,2.11,-0.88,10.99,-0.32,0.12,0.37
3972,1.91,-0.69,10.88,-0.32,0.12,0.37
3977,0.61,-0.04,10.49,-0.32,0.12,0.37
3981,0.61,-0.04,10.49,-0.21,0.22,0.28
3986,0.38,2.18,9.08,-0.21,0.22,0.28
3991,0.42,2.14,8.16,-0.21,0.22,0.28
3996,-0.54,3.14,9.16,-0.21,0.22,0.28
4001,-0.08,3.26,8.82,-0.21,0.22,0.28
4007,-0.08,3.37,8.54,-0.21,0.22,0.28
4012,-0.50,3.03,8.04,-0.21,0.22,0.28
4016,-0.50,3.03,8.04,-0.36,0.07,0.30
4021,-0.50,3.03,8.04,-0.37,0.09,0.32
4026,-1.46,2.87,7.59,-0.37,0.09,0.32
4031,-1.23,2.38,8.50,-0.37,0.09,0.32
4036,-1.76,1.99,8.93,-0.37,0.09,0.32
4042,-0.96,1.61,8.96,-0.37,0.09,0.32
4047,-0.69,1.00,9.88,-0.37,0.09,0.32
4051,-0.69,1.00,9.88,-0.37,0.01,0.27
4056,-0.65,1.23,9.20,-0.37,0.01,0.27
4061,-1.46,0.84,8.81,-0.37,0.01,0.27
4066,-1.11,0.04,8.46,-0.37,0.01,0.27
4071,-0.73,-0.42,8.39,-0.37,0.01,0.27
4077,-1.34,-0.42,8.46,-0.37,0.01,0.27
4082,0.08,-1.84,9.61,-0.37,0.01,0.27
4086,0.08,-1.84,9.61,-0.44,0.09,-0.01
4091,-0.15,-0.92,11.22,-0.44,0.09,-0.01
4096,-0.08,-1.49,12.14,-0.44,0.09,-0.01
4101,-1.23,-1.00,10.69,-0.44,0.09,-0.01
4107,-0.69,-1.00,10.96,-0.44,0.09,-0.01
4111,-1.65,0.08,10.42,-0.44,0.09,-0.01
4116,-1.61,0.00,10.96,-0.44,0.09,-0.01
4122,-1.49,0.04,10.69,-0.44,0.09,-0.01
4126,-0.54,-0.80,9.54,-0.44,0.09,-0.01
4131,0.80,-0.73,9.50,-0.44,0.09,-0.01
4136,1.00,-0.38,10.39,-0.44,0.09,-0.01
4141,1.15,-0.88,10.11,-0.44,0.09,-0.01
4147,-0.34,-0.61,9.96,-0.44,0.09,-0.01
4152,-0.54,-0.54,12.45,-0.44,0.09,-0.01
4156,-0.54,-0.54,12.45,-0.36,0.24,-0.26
4161,-0.54,-0.54,12.45,-0.35,0.29,-0.29
4166,-2.87,0.15,10.96,-0.35,0.29,-0.29
4171,-2.53,0.84,10.15,-0.35,0.29,-0.29
4177,-2.57,1.07,9.16,-0.35,0.29,-0.29
4181,-4.48,0.73,6.62,-0.35,0.29,-0.29
4186,-3.41,-0.61,6.66,-0.35,0.29,-0.29
4192,-3.29,0.80,6.02,-0.35,0.29,-0.29
4196,-2.41,0.54,6.02,-0.35,0.29,-0.29
4201,-1.88,0.34,7.05,-0.35,0.29,-0.29
4206,-1.76,-0.27,6.97,-0.35,0.29,-0.29
4213,-2.11,2.49,6.62,-0.35,0.29,-0.29
4217,-1.72,2.03,7.16,-0.35,0.29,-0.29
4221,-1.72,2.03,7.16,-0.30,-0.01,-0.24
4226,-1.72,2.03,7.16,-0.30,-0.01,-0.24
4231,0.61,1.72,7.43,-0.30,-0.01,-0.24
4237,0.42,1.19,8.77,-0.30,-0.01,-0.24
4241,0.42,1.19,8.77,-0.29,-0.11,-0.23
4247,2.07,1.34,10.73,-0.29,-0.11,-0.23
4252,2.38,1.00,11.38,-0.29,-0.11,-0.23
4256,2.38,1.00,11.38,-0.26,-0.06,-0.17
4261,2.38,1.00,11.38,-0.25,0.00,-0.19
4266,0.04,-0.77,10.38,-0.25,0.00,-0.19
4272,-0.84,-0.46,9.92,-0.25,0.00,-0.19
4276,-0.84,-0.46,9.92,-0.23,0.19,-0.18
4282,-0.84,-0.46,9.92,-0.22,0.18,-0.19
4287,0.57,-0.30,9.20,-0.22,0.18,-0.19
4291,0.57,-0.30,9.20,-0.26,0.07,-0.23
4296,0.57,-0.30,9.20,-0.25,0.02,-0.26
4301,-1.04,-1.88,8.35,-0.25,0.02,-0.26
4307,-1.53,-1.99,8.92,-0.25,0.02,-0.26
4311,-1.53,-1.99,8.92,-0.19,0.13,-0.23
4316,-2.84,-0.42,9.89,-0.19,0.13,-0.23
4321,-1.34,-1.23,9.69,-0.19,0.13,-0.23
4327,0.42,-1.07,10.80,-0.19,0.13,-0.23
4332,0.42,-1.07,10.80,-0.15,-0.05,-0.24
4336,0.80,-1.46,10.69,-0.15,-0.05,-0.24
4341,0.42,-1.46,10.54,-0.15,-0.05,-0.24
4346,0.42,-1.46,10.54,-0.11,0.02,-0.19
4351,-0.77,-1.72,9.84,-0.11,0.02,-0.19
4356,-0.77,-1.72,9.84,-0.11,0.08,-0.17
4363,-0.77,-1.72,9.84,-0.12,0.09,-0.17
4367,-1.46,-1.11,10.11,-0.12,0.09,-0.17
4371,-1.34,-0.15,9.23,-0.12,0.09,-0.17
4377,-1.61,-0.50,8.84,-0.12,0.09,-0.17
4381,-1.61,-0.50,8.84,-0.12,0.00,-0.18
4386,1.84,-0.38,9.23,-0.12,0.00,-0.18
4392,1.53,-0.57,8.62,-0.12,0.00,-0.18
4396,1.53,-0.57,8.62,-0.10,-0.25,-0.12
4401,1.53,-0.57,8.62,-0.10,-0.32,-0.08
4407,4.14,0.69,10.23,-0.10,-0.32,-0.08
4412,3.18,0.19,10.11,-0.10,-0.32,-0.08
4416,3.18,0.19,10.11,-0.06,-0.15,-0.06
4421,3.18,0.19,10.11,-0.05,-0.03,-0.04
4427,-0.27,0.04,9.54,-0.05,-0.03,-0.04
4431,-0.27,0.04,9.54,-0.04,0.14,0.00
4436,-0.34,0.57,10.61,-0.04,0.14,0.00
4441,-0.54,0.11,10.61,-0.04,0.14,0.00
4447,-1.88,0.11,9.30,-0.04,0.14,0.00
4451,-1.88,0.11,9.30,-0.09,0.07,-0.08
4456,-1.53,0.11,7.51,-0.09,0.07,-0.08
4462,-1.99,-0.19,6.47,-0.09,0.07,-0.08
4466,-1.99,-0.19,6.47,-0.08,-0.07,-0.12
4472,-2.72,-1.07,6.59,-0.08,-0.07,-0.12
4477,-2.34,-0.46,7.28,-0.08,-0.07,-0.12
4481,-2.34,-0.46,7.28,-0.08,-0.09,-0.16
4486,-2.34,-0.46,7.28,-0.07,-0.07,-0.20
4491,-1.11,-1.46,11.42,-0.07,-0.07,-0.20
4497,-0.08,-0.27,11.49,-0.07,-0.07,-0.20
4501,-0.08,-0.27,11.49,-0.03,0.05,-0.26
4507,-1.30,0.19,9.61,-0.03,0.05,-0.26
4512,-2.18,0.19,9.00,-0.03,0.05,-0.26
4516,-2.18,0.19,9.00,-0.03,0.14,-0.29
4521,-2.18,0.19,9.00,-0.03,0.12,-0.28
4526,-2.07,1.15,7.12,-0.03,0.12,-0.28
4532,-3.10,1.91,8.39,-0.03,0.12,-0.28
4536,-3.10,1.91,8.39,-0.05,-0.02,-0.23
4541,-3.10,1.91,8.39,-0.06,-0.04,-0.21
4547,-0.50,1.91,11.30,-0.06,-0.04,-0.21
4551,-0.50,1.91,11.30,-0.08,-0.04,-0.21
4556,-0.50,1.91,11.30,-0.07,0.00,-0.18
4561,-2.03,2.07,10.88,-0.07,0.00,-0.18
4567,-1.00,1.61,9.20,-0.07,0.00,-0.18
4571,-1.00,1.61,9.20,-0.05,-0.01,-0.01
4576,1.84,0.50,9.85,-0.05,-0.01,-0.01
4582,1.72,1.30,9.34,-0.05,-0.01,-0.01
4586,1.72,1.30,9.34,-0.05,-0.16,0.11
4592,-0.15,0.15,9.54,-0.05,-0.16,0.11
4597,0.50,-0.08,9.92,-0.05,-0.16,0.11
4601,0.50,-0.08,9.92,0.01,-0.02,0.22
4606,0.50,-0.08,9.92,0.02,0.00,0.24
4611,-1.34,-2.07,9.12,0.02,0.00,0.24
4617,-1.84,-1.53,9.73,0.02,0.00,0.24
4621,-1.84,-1.53,9.73,0.03,0.03,0.22
4627,-1.84,-1.53,9.73,0.02,0.00,0.21
4632,0.80,-3.71,10.11,0.02,0.00,0.21
4636,0.80,-3.71,10.11,0.05,-0.08,0.20
4641,0.80,-3.71,10.11,0.04,-0.09,0.20
4646,0.11,-3.71,10.57,0.04,-0.09,0.20
4652,0.54,-3.95,9.96,0.04,-0.09,0.20
4656,0.54,-3.95,9.96,0.10,-0.01,0.18
4662,0.54,-3.95,9.96,0.10,0.05,0.19
4667,-2.80,-2.26,8.92,0.10,0.05,0.19
4671,-2.80,-2.26,8.92,0.13,0.15,0.21
4676,-2.80,-2.26,8.92,0.13,0.14,0.22
4681,-2.80,-2.26,8.92,0.13,0.10,0.22
4687,0.23,-0.46,9.12,0.13,0.10,0.22
4691,0.23,-0.46,9.12,0.13,-0.08,0.24
4696,1.72,-0.50,10.19,0.13,-0.08,0.24
4701,1.04,-0.27,9.65,0.13,-0.08,0.24
4707,-0.23,-1.07,10.53,0.13,-0.08,0.24
4712,-0.23,-1.07,10.53,0.11,0.04,0.31
4716,-1.68,-0.61,10.07,0.11,0.04,0.31
4722,-1.11,0.08,10.15,0.11,0.04,0.31
4726,-1.11,0.08,10.15,0.10,0.07,0.36
4732,0.57,-0.15,10.65,0.10,0.07,0.36
4737,1.23,-0.34,9.85,0.10,0.07,0.36
4741,1.23,-0.34,9.85,0.06,-0.11,0.38
4747,1.23,-0.34,9.85,0.07,-0.11,0.40
4752,1.23,-0.57,9.65,0.07,-0.11,0.40
4756,1.23,-0.57,9.65,0.10,-0.03,0.46
4761,1.23,-0.57,9.65,0.08,0.03,0.50
4766,-1.88,1.30,9.31,0.08,0.03,0.50
4772,-1.27,0.34,8.58,0.08,0.03,0.50
4776,-1.27,0.34,8.58,0.04,0.06,0.49
4782,-1.27,0.34,8.58,0.02,0.03,0.48
4787,-1.19,0.46,9.30,0.02,0.03,0.48
4791,-1.19,0.46,9.30,0.02,-0.09,0.52
4796,-1.19,0.46,9.30,0.01,-0.13,0.52
4801,-1.19,0.46,9.30,0.01,-0.15,0.52
4807,0.69,-1.68,9.23,0.01,-0.15,0.52
4811,0.69,-1.68,9.23,-0.01,-0.08,0.48
4816,0.92,-2.34,10.77,-0.01,-0.08,0.48
4821,-0.77,-1.61,9.46,-0.01,-0.08,0.48
4827,0.23,-2.76,10.45,-0.01,-0.08,0.48
4831,0.23,-2.76,10.45,-0.01,0.03,0.42
4836,1.57,-1.49,11.42,-0.01,0.03,0.42
4842,0.57,-1.65,11.53,-0.01,0.03,0.42
4847,0.57,-1.65,11.53,-0.02,0.12,0.36
4852,0.57,-1.65,11.53,-0.02,0.18,0.34
4857,-2.03,-1.42,8.23,-0.02,0.18,0.34
4863,-2.03,-1.42,8.23,-0.00,0.20,0.32
4867,-2.03,-1.42,8.23,-0.02,0.18,0.30
4872,-2.41,0.54,9.08,-0.02,0.18,0.30
4877,-2.22,-0.46,8.08,-0.02,0.18,0.30
4882,-2.22,-0.46,8.08,-0.10,-0.08,0.17
4887,-2.22,-0.46,8.08,-0.12,-0.15,0.11
4892,0.08,-0.42,7.78,-0.12,-0.15,0.11
4896,0.08,-0.42,7.78,-0.17,-0.15,0.01
4901,0.08,-0.42,7.78,-0.17,-0.12,0.00
4907,-1.04,-0.42,8.46,-0.17,-0.12,0.00
4912,-0.61,-0.15,9.89,-0.17,-0.12,0.00
4916,-0.61,-0.15,9.89,-0.18,0.00,-0.03
4921,-0.61,-0.15,9.89,-0.18,0.00,-0.07
4927,-0.08,0.11,11.68,-0.18,0.00,-0.07
4831,0.23,-2.76,10.45,-0.01,0.03,0.42
4836,1.57,-1.49,11.42,-0.01,0.03,0.42
4842,0.57,-1.65,11.53,-0.01,0.03,0.42
4847,0.57,-1.65,11.53,-0.02,0.12,0.36
4852,0.57,-1.65,11.53,-0.02,0.18,0.34
4857,-2.03,-1.42,8.23,-0.02,0.18,0.34
4863,-2.03,-1.42,8.23,-0.00,0.20,0.32
4867,-2.03,-1.42,8.23,-0.02,0.18,0.30
4872,-2.41,0.54,9.08,-0.02,0.18,0.30
4877,-2.22,-0.46,8.08,-0.02,0.18,0.30
4882,-2.22,-0.46,8.08,-0.10,-0.08,0.17
4887,-2.22,-0.46,8.08,-0.12,-0.15,0.11
4892,0.08,-0.42,7.78,-0.12,-0.15,0.11
4896,0.08,-0.42,7.78,-0.17,-0.15,0.01
