timestamp,accX,accY,accZ,gyroX,gyroY,gyroZ
Straight
5,0.96,0.65,10.23,-0.13,0.02,-0.01
18,-2.18,1.57,9.61,-0.13,0.02,-0.01
19,-2.18,1.57,9.61,-0.73,0.24,-0.10
21,-2.18,1.57,9.61,-0.33,-0.84,-0.17
25,5.25,-8.77,12.02,-0.33,-0.84,-0.17
30,1.61,-8.04,11.88,-0.33,-0.84,-0.17
35,1.61,-8.04,11.88,-0.13,-0.92,-0.11
40,1.61,-8.04,11.88,0.08,-0.75,0.03
46,1.61,-8.04,11.88,0.21,-0.48,0.22
51,1.61,-8.04,11.88,0.06,-0.25,0.42
55,26.43,-0.92,37.23,0.06,-0.25,0.42
60,27.27,-1.15,43.70,0.06,-0.25,0.42
66,27.27,-1.15,43.70,0.38,-0.22,0.43
71,27.27,-1.15,43.70,0.50,0.28,0.17
76,-2.87,-8.89,20.46,0.50,0.28,0.17
80,-15.52,-3.33,-1.00,0.50,0.28,0.17
85,-16.67,4.98,-7.36,0.50,0.28,0.17
90,-11.76,7.82,-12.79,0.50,0.28,0.17
95,-11.76,7.82,-12.79,-0.18,1.91,-0.81
101,-11.76,7.82,-12.79,-0.52,1.71,-0.68
105,-19.99,7.70,-6.86,-0.52,1.71,-0.68
110,-21.38,2.03,-3.45,-0.52,1.71,-0.68
115,-21.38,2.03,-3.45,-0.47,0.99,-1.02
121,-21.38,2.03,-3.45,-0.18,0.66,-0.89
125,-6.36,-1.42,11.61,-0.18,0.66,-0.89
130,13.14,-7.39,18.16,-0.18,0.66,-0.89
135,13.14,-7.39,18.16,0.15,-1.11,0.45
140,13.14,-7.39,18.16,0.07,-1.75,0.68
146,13.14,-7.39,18.16,0.15,-2.06,0.61
151,14.71,-3.22,7.47,0.15,-2.06,0.61
155,-3.18,3.79,4.90,0.15,-2.06,0.61
160,-10.07,3.10,11.00,0.15,-2.06,0.61
166,-10.07,3.10,11.00,0.72,-0.31,-0.12
171,-10.07,3.10,11.00,-0.24,0.62,-0.04
175,-22.75,6.89,19.15,-0.24,0.62,-0.04
180,9.08,2.22,13.71,-0.24,0.62,-0.04
186,9.08,2.22,13.71,-0.36,0.54,0.27
191,9.08,2.22,13.71,-0.43,-0.11,0.09
195,11.88,-1.68,2.68,-0.43,-0.11,0.09
200,10.00,-1.11,-2.99,-0.43,-0.11,0.09
206,10.00,-1.11,-2.99,0.16,-0.95,-0.57
210,-6.32,-10.54,10.65,0.16,-0.95,-0.57
215,-7.43,-5.36,18.35,0.16,-0.95,-0.57
221,-2.18,-2.11,14.90,0.16,-0.95,-0.57
225,-2.11,4.18,16.28,0.16,-0.95,-0.57
230,3.87,2.80,13.06,0.16,-0.95,-0.57
235,3.68,3.48,9.54,0.16,-0.95,-0.57
241,7.27,1.19,3.68,0.16,-0.95,-0.57
245,-9.58,1.49,1.00,0.16,-0.95,-0.57
250,-21.00,-2.49,-1.19,0.16,-0.95,-0.57
255,-26.31,-3.14,3.10,0.16,-0.95,-0.57
261,-26.31,-3.14,3.10,-0.18,0.52,-0.62
265,-31.87,13.64,23.48,-0.18,0.52,-0.62
270,9.77,0.69,16.97,-0.18,0.52,-0.62
276,9.77,0.69,16.97,0.02,-0.01,0.19
280,29.53,4.25,21.45,0.02,-0.01,0.19
285,27.73,-1.19,14.14,0.02,-0.01,0.19
291,18.20,-2.14,-0.38,0.02,-0.01,0.19
295,10.96,-9.08,-13.83,0.02,-0.01,0.19
300,11.11,-10.54,-5.94,0.02,-0.01,0.19
305,-0.08,-1.61,-7.09,0.02,-0.01,0.19
310,-0.08,-1.61,-7.09,-0.77,-0.48,-0.38
316,-0.08,-1.61,-7.09,-0.79,-0.01,-0.39
320,-11.57,-0.46,17.66,-0.79,-0.01,-0.39
326,5.67,-6.55,12.98,-0.79,-0.01,-0.39
331,11.88,-9.20,20.30,-0.79,-0.01,-0.39
335,11.88,-9.20,20.30,0.20,-0.45,-0.27
340,12.53,-14.14,15.66,0.20,-0.45,-0.27
345,12.53,-14.14,15.66,0.37,-0.55,-0.24
351,12.53,-14.14,15.66,0.62,-0.38,-0.18
355,-3.41,-8.92,8.43,0.62,-0.38,-0.18
361,-6.05,-4.10,13.33,0.62,-0.38,-0.18
366,-1.84,0.08,13.21,0.62,-0.38,-0.18
370,-1.84,0.08,13.21,0.46,0.78,-0.01
375,0.08,-3.83,9.77,0.46,0.78,-0.01
381,0.15,0.57,4.21,0.46,0.78,-0.01
385,1.42,-7.32,2.68,0.46,0.78,-0.01
390,4.10,-6.47,2.41,0.46,0.78,-0.01
396,4.10,-6.47,2.41,0.38,-0.27,-0.26
401,0.69,-1.99,11.03,0.38,-0.27,-0.26
405,0.69,-1.99,11.03,0.31,-0.11,0.03
410,-16.24,0.11,16.70,0.31,-0.11,0.03
415,-11.61,-3.60,20.49,0.31,-0.11,0.03
420,-9.00,-4.64,18.54,0.31,-0.11,0.03
427,-5.82,1.34,13.41,0.31,-0.11,0.03
430,0.69,1.23,5.25,0.31,-0.11,0.03
435,1.30,4.29,0.08,0.31,-0.11,0.03
440,4.10,3.29,-4.75,0.31,-0.11,0.03
446,2.49,4.21,-9.04,0.31,-0.11,0.03
451,-2.80,-2.41,-8.39,0.31,-0.11,0.03
455,-2.80,-2.41,-8.39,0.21,-0.61,0.44
460,4.71,1.42,16.05,0.21,-0.61,0.44
466,4.71,1.42,16.05,0.19,-0.62,0.46
471,0.54,0.19,24.60,0.19,-0.62,0.46
475,0.54,0.19,24.60,0.25,-0.40,0.63
480,-13.68,-1.07,22.68,0.25,-0.40,0.63
485,-13.68,-1.07,22.68,0.45,-0.07,0.63
490,-13.68,-1.07,22.68,0.70,0.51,0.67
497,-7.55,0.77,13.63,0.70,0.51,0.67
501,0.84,0.15,6.29,0.70,0.51,0.67
506,13.17,-0.96,8.12,0.70,0.51,0.67
510,13.17,-0.96,8.12,0.41,-0.11,1.11
515,7.70,-1.46,-4.02,0.41,-0.11,1.11
521,7.70,-1.46,-4.02,0.30,-0.26,1.07
526,1.34,-0.65,3.68,0.30,-0.26,1.07
530,-25.05,3.48,14.90,0.30,-0.26,1.07
535,-30.15,5.94,22.83,0.30,-0.26,1.07
540,-26.16,0.65,26.28,0.30,-0.26,1.07
545,-4.52,-3.79,18.50,0.30,-0.26,1.07
551,-2.76,-2.84,18.42,0.30,-0.26,1.07
556,9.96,-0.84,9.08,0.30,-0.26,1.07
560,9.96,-0.84,9.08,0.16,-0.35,0.62
565,3.45,-2.07,6.79,0.16,-0.35,0.62
570,9.61,5.36,6.44,0.16,-0.35,0.62
575,13.11,-0.57,5.21,0.16,-0.35,0.62
580,-5.52,4.79,6.85,0.16,-0.35,0.62
586,-1.23,4.10,14.94,0.16,-0.35,0.62
591,-0.23,-0.65,17.43,0.16,-0.35,0.62
595,-0.23,-0.65,17.43,-0.12,0.22,0.34
600,-5.13,-4.98,15.86,-0.12,0.22,0.34
605,-8.27,-0.42,11.26,-0.12,0.22,0.34
610,-4.60,-0.38,11.04,-0.12,0.22,0.34
615,7.16,-2.53,9.92,-0.12,0.22,0.34
621,11.22,-2.18,4.94,-0.12,0.22,0.34
626,5.71,0.15,3.14,-0.12,0.22,0.34
630,5.71,0.15,3.14,-0.19,-0.06,0.07
635,5.71,0.15,3.14,-0.19,-0.02,-0.05
640,7.66,-1.53,10.19,-0.19,-0.02,-0.05
645,6.93,-0.92,5.36,-0.19,-0.02,-0.05
651,-4.18,0.54,6.86,-0.19,-0.02,-0.05
655,-7.09,2.45,11.34,-0.19,-0.02,-0.05
660,-6.93,1.61,12.68,-0.19,-0.02,-0.05
665,-8.01,3.14,6.05,-0.19,-0.02,-0.05
671,-5.05,1.65,6.75,-0.19,-0.02,-0.05
676,-5.70,1.65,2.61,-0.19,-0.02,-0.05
680,-5.70,1.65,2.61,-0.21,-0.20,-0.14
685,8.62,3.07,7.51,-0.21,-0.20,-0.14
690,7.47,2.80,9.43,-0.21,-0.20,-0.14
695,11.38,1.99,8.85,-0.21,-0.20,-0.14
701,14.71,-1.72,13.56,-0.21,-0.20,-0.14
705,5.52,0.00,15.79,-0.21,-0.20,-0.14
710,4.33,-1.23,17.43,-0.21,-0.20,-0.14
715,6.70,-0.69,18.92,-0.21,-0.20,-0.14
721,2.57,-0.54,16.24,-0.21,-0.20,-0.14
725,-6.05,1.72,12.52,-0.21,-0.20,-0.14
730,-2.41,2.72,12.34,-0.21,-0.20,-0.14
735,-0.46,1.99,13.75,-0.21,-0.20,-0.14
741,-2.95,3.45,8.96,-0.21,-0.20,-0.14
746,-1.84,2.41,6.09,-0.21,-0.20,-0.14
750,-1.84,2.41,6.09,-0.26,0.39,-0.22
755,-1.84,2.41,6.09,-0.29,0.18,-0.29
761,3.07,-0.11,3.71,-0.29,0.18,-0.29
766,2.49,0.84,7.20,-0.29,0.18,-0.29
770,2.49,0.84,7.20,-0.29,-0.26,-0.12
775,-3.48,0.80,6.09,-0.29,-0.26,-0.12
780,-3.26,-0.50,5.14,-0.29,-0.26,-0.12
785,-3.22,-0.30,8.46,-0.29,-0.26,-0.12
791,-4.67,-1.76,7.66,-0.29,-0.26,-0.12
796,-7.74,-3.22,11.30,-0.29,-0.26,-0.12
800,-7.74,-3.22,11.30,-0.20,-0.09,-0.12
805,-7.74,-3.22,11.30,-0.15,-0.08,-0.07
811,-6.09,-2.34,9.88,-0.15,-0.08,-0.07
816,8.62,-3.52,12.22,-0.15,-0.08,-0.07
820,8.62,-3.52,12.22,-0.12,-0.56,0.05
825,3.10,-0.73,12.61,-0.12,-0.56,0.05
830,2.61,-1.30,10.00,-0.12,-0.56,0.05
835,2.61,-0.19,12.26,-0.12,-0.56,0.05
841,-0.69,-1.72,12.68,-0.12,-0.56,0.05
845,-8.54,-0.19,4.25,-0.12,-0.56,0.05
850,-11.22,-2.45,6.36,-0.12,-0.56,0.05
856,-1.27,-1.95,6.32,-0.12,-0.56,0.05
860,7.24,-3.83,12.83,-0.12,-0.56,0.05
865,8.01,-3.18,16.66,-0.12,-0.56,0.05
871,4.90,-0.96,14.86,-0.12,-0.56,0.05
875,4.90,-0.96,14.86,-0.15,-0.07,-0.08
880,-1.53,-3.37,8.08,-0.15,-0.07,-0.08
886,-8.20,-4.02,7.82,-0.15,-0.07,-0.08
890,-8.20,-4.02,7.82,-0.06,0.53,-0.02
895,-8.20,-4.02,7.82,-0.01,0.73,0.00
900,-7.47,0.88,9.61,-0.01,0.73,0.00
905,-5.75,-0.77,11.84,-0.01,0.73,0.00
911,-8.96,1.23,7.32,-0.01,0.73,0.00
915,-1.00,-0.46,5.02,-0.01,0.73,0.00
921,4.21,0.61,7.09,-0.01,0.73,0.00
925,4.21,0.61,7.09,-0.16,-0.51,-0.15
930,0.30,0.65,5.02,-0.16,-0.51,-0.15
935,-2.26,1.46,6.09,-0.16,-0.51,-0.15
941,-6.05,2.57,8.36,-0.16,-0.51,-0.15
946,-1.88,1.23,11.11,-0.16,-0.51,-0.15
952,1.68,0.69,12.87,-0.16,-0.51,-0.15
955,1.68,0.69,12.87,-0.20,-0.06,-0.08
960,1.68,0.69,12.87,-0.18,-0.14,-0.08
965,5.67,0.46,7.05,-0.18,-0.14,-0.08
971,6.59,1.49,4.02,-0.18,-0.14,-0.08
975,6.59,1.49,4.02,-0.22,-0.29,-0.03
981,0.57,0.65,6.74,-0.22,-0.29,-0.03
986,-4.21,2.87,3.48,-0.22,-0.29,-0.03
990,-4.21,2.87,3.48,-0.36,0.06,-0.22
995,-4.21,2.87,3.48,-0.32,0.09,-0.24
1000,-3.41,-2.72,8.89,-0.32,0.09,-0.24
1006,4.90,-1.76,13.98,-0.32,0.09,-0.24
1010,4.90,-1.76,13.98,-0.16,-0.35,-0.15
1016,4.90,-1.76,13.98,-0.19,-0.47,-0.17
1021,8.12,-2.72,20.96,-0.19,-0.47,-0.17
1025,8.12,-2.72,20.96,-0.19,-0.40,-0.31
1030,8.12,-2.72,20.96,-0.17,-0.28,-0.33
1035,8.12,-2.72,20.96,-0.09,-0.14,-0.31
1041,10.11,-1.84,20.65,-0.09,-0.14,-0.31
1045,10.11,-1.84,20.65,-0.01,0.11,-0.18
1050,6.97,-1.23,9.35,-0.01,0.11,-0.18
1055,-0.42,2.03,4.79,-0.01,0.11,-0.18
1062,-9.39,1.68,7.85,-0.01,0.11,-0.18
1066,-9.39,1.68,7.85,-0.18,1.25,-0.22
1070,-15.40,0.88,10.84,-0.18,1.25,-0.22
1075,-8.54,1.23,11.11,-0.18,1.25,-0.22
1081,-2.99,-0.96,10.07,-0.18,1.25,-0.22
1086,-1.61,-4.25,-1.61,-0.18,1.25,-0.22
1091,0.65,-2.18,-3.64,-0.18,1.25,-0.22
1095,0.65,-2.18,-3.64,-0.11,-0.30,-0.39
1100,0.65,-2.18,-3.64,-0.17,-0.58,-0.39
1105,3.64,0.00,2.14,-0.17,-0.58,-0.39
1111,-1.30,2.45,2.48,-0.17,-0.58,-0.39
1115,-1.30,2.45,2.48,-0.26,-0.78,-0.45
1120,-1.30,2.45,2.48,-0.24,-0.67,-0.42
1125,-6.02,-0.88,12.83,-0.24,-0.67,-0.42
1132,-6.02,-0.88,12.83,-0.15,-0.50,-0.37
1136,0.80,0.27,17.82,-0.15,-0.50,-0.37
1141,7.93,1.15,17.32,-0.15,-0.50,-0.37
1145,7.93,1.15,17.32,-0.05,-0.16,-0.11
1150,7.93,1.15,17.32,-0.10,-0.17,-0.13
1155,7.93,1.15,17.32,-0.12,-0.14,-0.19
1161,0.88,1.11,12.26,-0.12,-0.14,-0.19
1165,0.88,1.11,12.26,-0.15,0.82,-0.22
1170,0.88,1.11,12.26,-0.07,1.04,-0.22
1175,-2.07,-1.15,11.42,-0.07,1.04,-0.22
1181,-7.89,-1.76,8.42,-0.07,1.04,-0.22
1185,-7.89,-1.76,8.42,0.03,1.03,-0.06
1190,-8.82,-2.57,4.14,0.03,1.03,-0.06
1196,-7.39,-0.69,1.38,0.03,1.03,-0.06
1200,-7.39,-0.69,1.38,-0.03,0.55,-0.22
1206,0.11,-1.46,11.88,-0.03,0.55,-0.22
1211,-3.14,-0.73,16.70,-0.03,0.55,-0.22
1215,-3.14,-0.73,16.70,-0.05,-0.01,-0.17
1220,-3.14,-0.73,16.70,0.00,-0.02,-0.10
1225,-16.47,-0.30,12.64,0.00,-0.02,-0.10
1231,-13.71,1.30,7.20,0.00,-0.02,-0.10
1235,-13.71,1.30,7.20,0.13,0.44,-0.07
1241,1.34,0.27,0.77,0.13,0.44,-0.07
1246,7.55,0.88,-0.08,0.13,0.44,-0.07
1250,7.55,0.88,-0.08,-0.04,-0.56,0.13
1255,7.55,0.88,-0.08,-0.11,-0.87,0.09
1260,3.71,0.88,6.12,-0.11,-0.87,0.09
1266,1.07,2.18,3.91,-0.11,-0.87,0.09
1270,1.07,2.18,3.91,-0.01,-0.68,-0.05
1276,1.07,2.18,3.91,-0.01,-0.42,-0.04
1281,-11.11,-1.07,-3.52,-0.01,-0.42,-0.04
1285,-11.11,-1.07,-3.52,-0.11,-0.20,-0.03
1290,-11.11,-1.07,-3.52,-0.29,-0.49,-0.08
1296,-11.11,-1.07,-3.52,-0.21,-0.88,-0.11
1301,28.00,-7.59,35.66,-0.21,-0.88,-0.11
1305,28.00,-7.59,35.66,0.57,-0.86,-0.04
1310,8.20,3.03,24.13,0.57,-0.86,-0.04
1316,-0.27,6.32,14.98,0.57,-0.86,-0.04
1320,-0.27,6.32,14.98,0.32,1.44,-0.10
1327,-0.27,6.32,14.98,0.17,1.62,-0.27
1331,-13.95,1.80,2.41,0.17,1.62,-0.27
1335,-13.95,1.80,2.41,0.10,1.37,-0.25
1340,-13.95,1.80,2.41,0.00,0.78,-0.07
1346,8.16,-1.99,5.86,0.00,0.78,-0.07
1351,8.62,-0.50,5.67,0.00,0.78,-0.07
1355,8.62,-0.50,5.67,-0.17,-0.91,0.04
1361,8.62,-0.50,5.67,-0.26,-0.97,-0.20
1366,0.04,2.53,5.98,-0.26,-0.97,-0.20
1370,0.04,2.53,5.98,-0.22,-0.69,-0.45
1375,0.04,2.53,5.98,-0.12,-0.53,-0.39
1381,-1.61,-1.27,8.04,-0.12,-0.53,-0.39
1386,-3.98,1.07,4.60,-0.12,-0.53,-0.39
1390,-3.98,1.07,4.60,0.06,-0.22,0.05
1396,-3.98,1.07,4.60,0.04,-0.20,0.07
1401,-3.95,2.95,10.04,0.04,-0.20,0.07
1405,-3.95,2.95,10.04,-0.13,-0.22,-0.18
1410,-3.95,2.95,10.04,-0.14,-0.29,-0.33
1416,-3.95,2.95,10.04,-0.08,-0.33,-0.41
1421,-3.64,-1.11,1.04,-0.08,-0.33,-0.41
1426,-3.64,-1.11,1.04,-0.05,-0.36,-0.28
1431,-3.64,-1.11,1.04,-0.04,-0.42,-0.18
1436,9.61,-1.42,16.55,-0.04,-0.42,-0.18
1440,9.61,-1.42,16.55,-0.13,-0.67,-0.12
1445,9.61,-1.42,16.55,-0.13,-0.81,-0.13
1451,4.86,-0.88,25.29,-0.13,-0.81,-0.13
1456,-4.25,-0.15,24.14,-0.13,-0.81,-0.13
1461,-4.25,-0.15,24.14,0.10,0.44,-0.22
1466,-4.25,-0.15,24.14,0.00,0.85,-0.30
1471,2.64,-2.26,3.56,0.00,0.85,-0.30
1476,2.64,-2.26,3.56,0.06,0.89,-0.24
1480,2.64,-2.26,3.56,0.04,0.76,-0.10
1486,-5.13,-1.57,6.02,0.04,0.76,-0.10
1492,-17.01,0.30,10.61,0.04,0.76,-0.10
1496,-17.01,0.30,10.61,0.23,1.17,-0.04
1500,-17.01,0.30,10.61,0.19,1.46,-0.10
1506,-9.84,-5.86,16.70,0.19,1.46,-0.10
1510,-9.84,-5.86,16.70,0.50,1.08,-0.01
1516,-9.84,-5.86,16.70,0.49,0.40,0.16
1522,11.07,-1.95,3.95,0.49,0.40,0.16
1525,11.07,-1.95,3.95,0.43,-0.79,0.29
1530,11.07,-1.95,3.95,0.33,-1.06,0.16
1536,11.07,-1.95,3.95,0.19,-1.16,0.02
1541,11.49,0.50,5.40,0.19,-1.16,0.02
1546,11.49,0.50,5.40,-0.04,-0.87,-0.13
1550,11.49,0.50,5.40,-0.07,-0.64,-0.13
1556,11.49,0.50,5.40,0.17,-0.36,-0.11
1561,-13.53,-0.61,11.91,0.17,-0.36,-0.11
1566,-13.53,-0.61,11.91,0.06,0.67,-0.19
1571,-13.53,-0.61,11.91,0.20,0.80,-0.30
1576,5.02,1.99,2.68,0.20,0.80,-0.30
1581,5.02,1.99,2.68,0.06,0.27,-0.38
1586,5.02,1.99,2.68,0.03,-0.11,-0.28
1592,17.73,-1.30,9.20,0.03,-0.11,-0.28
1596,17.73,-1.30,9.20,0.18,-0.36,-0.15
1600,17.73,-1.30,9.20,0.25,0.01,-0.13
1606,3.22,-1.65,19.39,0.25,0.01,-0.13
1611,7.74,-1.65,19.23,0.25,0.01,-0.13
1616,7.74,-1.65,19.23,0.45,0.73,0.21
1621,7.74,-1.65,19.23,0.49,0.93,0.32
1627,-15.48,2.72,-6.02,0.49,0.93,0.32
1632,-15.48,2.72,-6.02,0.28,1.01,0.31
1636,-15.48,2.72,-6.02,-0.09,0.86,0.30
1641,-7.74,2.11,3.56,-0.09,0.86,0.30
1646,19.31,1.07,13.75,-0.09,0.86,0.30
1650,19.31,1.07,13.75,-0.39,-1.15,0.21
1656,19.31,1.07,13.75,-0.19,-1.77,0.11
1661,13.64,-5.05,17.58,-0.19,-1.77,0.11
1666,13.64,-5.05,17.58,-0.07,-1.59,-0.13
1670,13.64,-5.05,17.58,0.33,-0.82,-0.20
1676,13.64,-5.05,17.58,0.63,-0.08,-0.14
1681,-11.26,5.21,-2.95,0.63,-0.08,-0.14
1686,-11.26,5.21,-2.95,0.23,0.69,0.09
1691,-11.26,5.21,-2.95,0.12,0.60,0.22
1696,6.89,-1.15,7.97,0.12,0.60,0.22
1701,6.89,-1.15,7.97,0.02,-0.02,0.19
1706,6.89,-1.15,7.97,0.10,-0.25,0.09
1712,-2.34,1.95,8.31,0.10,-0.25,0.09
1716,-2.34,1.95,8.31,0.09,-0.20,-0.05
1721,-2.34,1.95,8.31,0.11,-0.18,-0.06
1726,2.41,-3.75,11.19,0.11,-0.18,-0.06
1732,-0.19,-2.99,8.12,0.11,-0.18,-0.06
1736,-0.19,-2.99,8.12,0.09,-0.12,-0.09
1741,-0.19,-2.99,8.12,0.13,-0.20,-0.04
1747,5.86,-3.48,9.31,0.13,-0.20,-0.04
1750,5.86,-3.48,9.31,0.17,-0.51,0.12
1756,5.86,-3.48,9.31,0.18,-0.57,0.15
1761,0.00,0.61,6.93,0.18,-0.57,0.15
1766,-4.83,-4.48,5.60,0.18,-0.57,0.15
1770,-4.83,-4.48,5.60,0.11,-0.17,-0.02
1776,-4.83,-4.48,5.60,0.19,0.08,-0.08
1782,-3.37,-0.65,16.77,0.19,0.08,-0.08
1786,-3.37,-0.65,16.77,0.29,0.35,0.01
1790,-3.37,-0.65,16.77,0.29,0.30,0.15
1796,-3.37,-0.65,16.77,0.25,0.23,0.24
1801,-4.10,-1.04,9.61,0.25,0.23,0.24
1806,-4.10,-1.04,9.61,0.19,0.13,0.17
1810,-4.10,-1.04,9.61,0.18,0.10,0.12
1817,-4.10,-1.04,9.61,0.14,0.02,0.13
1821,-4.10,-1.04,9.61,0.13,-0.12,0.24
1826,-4.10,-1.04,9.61,0.08,-0.27,0.37
1831,8.85,-0.23,-2.34,0.08,-0.27,0.37
1836,7.35,-2.41,0.27,0.08,-0.27,0.37
1840,7.35,-2.41,0.27,0.13,-0.15,0.56
1846,7.35,-2.41,0.27,0.11,0.18,0.53
1851,-27.62,7.05,11.26,0.11,0.18,0.53
1856,-27.62,7.05,11.26,-0.01,1.06,0.38
1861,-27.62,7.05,11.26,0.01,1.06,0.32
1867,-1.00,-4.60,13.75,0.01,1.06,0.32
1870,-1.00,-4.60,13.75,0.10,0.08,0.40
1876,-1.00,-4.60,13.75,0.10,-0.41,0.47
1881,-1.00,-4.60,13.75,0.11,-0.55,0.42
1886,19.23,-2.18,8.96,0.11,-0.55,0.42
1891,19.23,-2.18,8.96,0.04,-0.94,0.38
1896,19.23,-2.18,8.96,-0.05,-0.90,0.38
1902,-16.28,-0.15,11.84,-0.05,-0.90,0.38
1906,-16.28,-0.15,11.84,-0.01,-0.24,0.39
1911,-16.28,-0.15,11.84,-0.02,0.22,0.39
1916,-16.28,-0.15,11.84,-0.08,0.59,0.36
1922,-7.47,-4.21,16.62,-0.08,0.59,0.36
1926,-7.47,-4.21,16.62,0.11,0.75,0.29
1931,-7.47,-4.21,16.62,0.13,0.48,0.27
1937,9.46,-3.95,4.94,0.13,0.48,0.27
1941,9.46,-3.95,4.94,0.01,-0.09,0.20
1946,9.46,-3.95,4.94,0.01,-0.27,0.18
1951,-6.05,5.82,12.68,0.01,-0.27,0.18
1957,-1.15,3.87,16.36,0.01,-0.27,0.18
1960,-1.15,3.87,16.36,0.05,0.34,0.19
1966,-1.15,3.87,16.36,0.07,0.50,0.23
1971,-0.42,-2.22,15.55,0.07,0.50,0.23
1976,-0.42,-2.22,15.55,0.02,0.42,0.28
1981,-0.42,-2.22,15.55,-0.01,0.19,0.21
1986,6.44,1.38,2.38,-0.01,0.19,0.21
1991,0.61,3.06,-1.65,-0.01,0.19,0.21
1996,0.61,3.06,-1.65,-0.22,-0.39,-0.06
2001,0.61,3.06,-1.65,-0.25,-0.32,-0.08
2006,-1.95,3.71,6.02,-0.25,-0.32,-0.08
2010,-1.95,3.71,6.02,-0.29,-0.15,-0.08
2016,-1.95,3.71,6.02,-0.26,-0.19,-0.08
2021,14.94,-4.29,20.91,-0.26,-0.19,-0.08
2026,10.84,-2.72,21.45,-0.26,-0.19,-0.08
2031,10.84,-2.72,21.45,-0.01,-0.29,-0.05
2036,10.84,-2.72,21.45,-0.05,-0.12,-0.09
2041,-2.61,7.43,2.68,-0.05,-0.12,-0.09
2046,-2.61,7.43,2.68,-0.12,0.33,-0.22
2050,-2.61,7.43,2.68,-0.22,0.63,-0.32
2055,-2.61,7.43,2.68,-0.25,0.71,-0.39
2062,-0.30,-0.30,5.56,-0.25,0.71,-0.39
2065,-0.30,-0.30,5.56,-0.28,0.21,-0.36
2071,-1.38,-1.46,13.98,-0.28,0.21,-0.36
2076,-1.38,-1.46,13.98,-0.18,-0.21,-0.36
2081,-1.38,-1.46,13.98,-0.19,-0.29,-0.46
2086,-1.38,-1.46,13.98,-0.20,-0.34,-0.54
2092,10.65,-0.65,9.04,-0.20,-0.34,-0.54
2096,10.65,-0.65,9.04,-0.16,-0.45,-0.51
2101,10.65,-0.65,9.04,-0.12,-0.38,-0.43
2106,-10.50,4.02,4.64,-0.12,-0.38,-0.43
2111,-12.87,3.60,9.31,-0.12,-0.38,-0.43
2116,-12.87,3.60,9.31,-0.13,0.80,-0.45
2121,-12.87,3.60,9.31,-0.10,0.90,-0.51
2127,-1.91,-1.65,10.27,-0.10,0.90,-0.51
2130,-1.91,-1.65,10.27,-0.05,0.41,-0.51
2136,-1.91,-1.65,10.27,-0.04,0.04,-0.51
2141,-1.91,-1.65,10.27,-0.07,-0.30,-0.55
2146,-0.73,1.11,-1.27,-0.07,-0.30,-0.55
2151,-0.73,1.11,-1.27,-0.03,-0.52,-0.52
2156,-0.73,1.11,-1.27,-0.14,-0.57,-0.45
2162,-1.80,-2.11,15.32,-0.14,-0.57,-0.45
2166,-1.80,-2.11,15.32,-0.07,-0.42,-0.31
2171,-1.80,-2.11,15.32,0.02,-0.30,-0.29
2177,-1.80,-2.11,15.32,0.12,-0.13,-0.31
2180,-1.80,-2.11,15.32,0.18,0.13,-0.31
2186,-1.80,-2.11,15.32,0.22,0.36,-0.28
2191,-1.80,-2.11,15.32,0.24,0.55,-0.27
2197,4.21,-2.11,13.37,0.24,0.55,-0.27
2201,4.21,-2.11,13.37,0.20,0.65,-0.20
2206,4.21,-2.11,13.37,0.15,0.72,-0.21
2210,-8.50,-2.26,3.37,0.15,0.72,-0.21
2216,-6.17,-0.50,6.32,0.15,0.72,-0.21
2221,-6.17,-0.50,6.32,0.15,0.44,-0.19
2226,-6.17,-0.50,6.32,0.26,0.18,-0.08
2232,-2.53,-3.29,1.46,0.26,0.18,-0.08
2236,-2.53,-3.29,1.46,0.21,-0.30,0.09
2241,-2.53,-3.29,1.46,0.15,-0.58,0.10
2247,4.07,-2.22,-1.72,0.15,-0.58,0.10
2250,4.07,-2.22,-1.72,0.11,-0.89,0.08
2256,4.07,-2.22,-1.72,0.18,-0.93,0.16
2261,4.07,-2.22,-1.72,0.12,-0.73,0.25
2266,-3.18,-3.45,21.34,0.12,-0.73,0.25
2271,-3.18,-3.45,21.34,0.28,-0.03,0.31
2276,-3.18,-3.45,21.34,0.23,0.30,0.25
2281,-3.18,-3.45,21.34,0.44,0.39,0.26
2286,-3.18,-3.45,21.34,0.53,0.37,0.34
2291,-3.18,-3.45,21.34,0.49,0.32,0.45
2296,-3.18,-3.45,21.34,0.38,0.25,0.54
2301,-11.57,5.86,-17.43,0.38,0.25,0.54
2306,-11.57,5.86,-17.43,0.03,0.03,0.48
2311,-11.57,5.86,-17.43,0.01,-0.25,0.42
2316,-11.57,5.86,-17.43,-0.00,-0.62,0.38
2321,-11.57,5.86,-17.43,0.07,-0.87,0.39
2326,-11.57,5.86,-17.43,0.14,-0.91,0.44
2331,-11.57,5.86,-17.43,0.37,-0.67,0.46
2336,-2.57,-4.10,19.15,0.37,-0.67,0.46
2341,-2.57,-4.10,19.15,0.42,0.42,0.42
2346,-2.57,-4.10,19.15,0.56,0.64,0.38
2351,-2.57,-4.10,19.15,0.42,0.76,0.44
2356,-2.57,-4.10,19.15,0.27,0.75,0.50
2361,-2.57,-4.10,19.15,0.12,0.60,0.49
2366,-2.57,-4.10,19.15,0.07,0.29,0.37
2371,1.27,-4.48,8.16,0.07,0.29,0.37
2376,1.27,-4.48,8.16,0.14,-0.22,0.10
2381,1.27,-4.48,8.16,0.16,-0.18,0.10
2386,-14.82,2.68,2.84,0.16,-0.18,0.10
2391,-14.82,2.68,2.84,0.01,0.00,0.18
2396,-14.82,2.68,2.84,-0.04,-0.18,0.18
2402,-14.82,2.68,2.84,-0.03,-0.55,0.15
2406,-14.82,2.68,2.84,-0.05,-0.85,0.11
2411,-14.82,2.68,2.84,0.05,-0.96,0.13
2416,-14.82,2.68,2.84,0.14,-0.88,0.21
2421,-7.59,5.29,5.21,0.14,-0.88,0.21
2426,-7.59,5.29,5.21,0.12,-0.14,0.32
2431,-7.59,5.29,5.21,-0.00,0.16,0.33
2437,-7.59,5.29,5.21,-0.16,0.27,0.28
2441,-7.59,5.29,5.21,-0.20,0.19,0.18
2446,-7.59,5.29,5.21,-0.19,-0.02,0.08
2451,-7.59,5.29,5.21,0.04,-0.28,0.03
2456,14.14,-3.26,23.71,0.04,-0.28,0.03
2461,14.14,-3.26,23.71,0.23,-0.54,0.21
2466,14.14,-3.26,23.71,0.25,-0.38,0.34
2471,14.14,-3.26,23.71,0.10,-0.10,0.37
2476,14.14,-3.26,23.71,-0.04,0.13,0.28
2481,14.14,-3.26,23.71,-0.07,0.26,0.14
2486,14.14,-3.26,23.71,-0.05,0.32,0.10
2491,-3.87,0.19,9.69,-0.05,0.32,0.10
2496,-3.87,0.19,9.69,0.14,0.51,0.33
2501,-3.87,0.19,9.69,0.08,0.49,0.41
2506,-3.87,0.19,9.69,0.03,0.60,0.37
2511,-3.87,0.19,9.69,0.08,0.77,0.25
2516,-3.87,0.19,9.69,-0.15,0.84,0.13
2521,-3.87,0.19,9.69,-0.10,0.45,0.10
2526,2.03,-6.55,10.99,-0.10,0.45,0.10
2531,2.03,-6.55,10.99,0.04,-0.34,0.08
2536,2.03,-6.55,10.99,0.09,-0.49,0.13
2541,2.03,-6.55,10.99,0.08,-0.40,0.18
2546,2.03,-6.55,10.99,0.09,-0.54,0.28
2551,2.03,-6.55,10.99,0.01,-0.53,0.33
2555,2.03,-6.55,10.99,-0.05,-0.45,0.36
2561,-18.50,5.98,11.41,-0.05,-0.45,0.36
2566,-18.50,5.98,11.41,-0.19,0.04,0.34
2571,-18.50,5.98,11.41,-0.12,0.25,0.28
2576,-18.50,5.98,11.41,-0.03,0.42,0.20
2581,-18.50,5.98,11.41,0.00,0.60,0.15
2586,-18.50,5.98,11.41,0.06,0.63,0.19
2591,-18.50,5.98,11.41,0.09,0.55,0.29
2596,-18.50,5.98,11.41,-0.02,0.35,0.36
2601,-18.50,5.98,11.41,-0.04,0.07,0.34
2606,-18.50,5.98,11.41,-0.09,-0.21,0.26
2611,12.07,-0.84,13.59,-0.09,-0.21,0.26
2616,12.07,-0.84,13.59,-0.11,-0.52,0.18
2621,12.07,-0.84,13.59,0.05,-0.44,0.23
2626,12.07,-0.84,13.59,0.06,-0.24,0.29
2631,12.07,-0.84,13.59,0.15,0.28,0.32
2636,12.07,-0.84,13.59,-0.02,0.84,0.29
2641,12.07,-0.84,13.59,0.05,1.22,0.19
2647,-13.33,1.19,12.26,0.05,1.22,0.19
2651,-13.33,1.19,12.26,-0.13,1.11,-0.01
2656,-13.33,1.19,12.26,-0.05,0.52,-0.03
2661,-13.33,1.19,12.26,-0.11,-0.04,-0.06
2666,-13.33,1.19,12.26,-0.17,-0.54,-0.10
2671,-13.33,1.19,12.26,-0.20,-0.78,-0.16
2676,-13.33,1.19,12.26,-0.26,-1.02,-0.20
2682,14.55,-0.73,9.92,-0.26,-1.02,-0.20
2686,14.55,-0.73,9.92,-0.26,-1.33,-0.21
2691,14.55,-0.73,9.92,-0.07,-1.32,-0.15
2696,14.55,-0.73,9.92,0.36,-0.27,-0.02
2701,14.55,-0.73,9.92,-0.13,0.91,0.02
2706,14.55,-0.73,9.92,0.07,1.21,-0.06
2710,14.55,-0.73,9.92,0.19,1.19,-0.13
2716,-7.20,0.88,7.81,0.19,1.19,-0.13
2721,-7.20,0.88,7.81,0.09,0.85,-0.15
2726,-7.20,0.88,7.81,-0.05,0.58,-0.11
2731,-7.20,0.88,7.81,-0.13,0.24,-0.08
2736,-7.20,0.88,7.81,-0.22,-0.15,-0.06
2741,-7.20,0.88,7.81,-0.23,-0.49,-0.07
2745,-7.20,0.88,7.81,-0.28,-0.71,-0.09
2751,3.29,4.52,12.41,-0.28,-0.71,-0.09
2756,3.29,4.52,12.41,-0.14,-0.60,-0.10
2761,3.29,4.52,12.41,-0.20,-0.41,-0.09
2766,3.29,4.52,12.41,-0.18,-0.22,-0.10
2771,3.29,4.52,12.41,-0.18,-0.13,-0.12
2776,3.29,4.52,12.41,-0.21,-0.16,-0.13
2780,3.29,4.52,12.41,-0.19,-0.23,-0.12
2786,2.72,2.61,11.96,-0.19,-0.23,-0.12
2791,2.72,2.61,11.96,-0.24,-0.32,-0.12
2796,2.72,2.61,11.96,-0.23,-0.29,-0.17
2801,2.72,2.61,11.96,-0.21,-0.19,-0.26
2806,2.72,2.61,11.96,-0.12,-0.04,-0.32
2811,2.72,2.61,11.96,-0.19,0.11,-0.32
2816,2.72,2.61,11.96,-0.12,0.13,-0.24
2821,2.72,2.61,11.96,-0.19,0.02,-0.17
2826,2.72,2.61,11.96,-0.21,-0.23,-0.10
2831,2.72,2.61,11.96,-0.13,-0.53,-0.07
2837,10.57,-6.55,12.87,-0.13,-0.53,-0.07
2841,10.57,-6.55,12.87,-0.03,-0.69,-0.07
2846,10.57,-6.55,12.87,-0.06,-0.55,-0.06
2850,10.57,-6.55,12.87,0.08,-0.15,-0.04
2856,-2.45,-0.23,11.11,0.08,-0.15,-0.04
2861,-2.45,-0.23,11.11,-0.05,0.78,-0.02
2866,-2.45,-0.23,11.11,0.07,0.92,-0.04
2871,-11.91,-0.61,7.93,0.07,0.92,-0.04
2876,-11.91,-0.61,7.93,0.12,1.06,-0.09
2881,-11.91,-0.61,7.93,0.07,1.08,-0.15
2886,-11.91,-0.61,7.93,0.10,1.02,-0.21
2891,-11.91,-0.61,7.93,0.04,0.82,-0.21
2896,-11.91,-0.61,7.93,0.04,0.39,-0.17
2900,-11.91,-0.61,7.93,0.01,-0.18,-0.09
2906,2.45,0.34,3.56,0.01,-0.18,-0.09
2911,2.45,0.34,3.56,-0.02,-1.06,-0.03
2916,2.45,0.34,3.56,0.01,-1.23,-0.01
2921,2.45,0.34,3.56,-0.01,-1.24,0.02
2926,2.45,0.34,3.56,0.10,-1.08,0.06
2931,2.45,0.34,3.56,0.07,-0.79,0.12
2935,2.45,0.34,3.56,0.21,-0.15,0.15
2941,-2.72,0.23,19.46,0.21,-0.15,0.15
2946,-2.72,0.23,19.46,-0.07,0.92,0.07
2951,-2.72,0.23,19.46,-0.03,0.85,0.01
2956,-2.72,0.23,19.46,-0.00,0.63,-0.04
2961,-2.72,0.23,19.46,0.09,0.36,-0.04
2966,-2.72,0.23,19.46,0.10,0.19,-0.01
2970,-2.72,0.23,19.46,0.10,0.13,0.06
2976,-0.46,-1.07,10.19,0.10,0.13,0.06
2981,-0.46,-1.07,10.19,0.01,0.35,0.11
2986,-0.46,-1.07,10.19,-0.02,0.53,0.04
2990,-0.46,-1.07,10.19,0.01,0.59,-0.01
2996,-0.08,0.54,2.26,0.01,0.59,-0.01
3001,-0.08,0.54,2.26,0.00,0.27,0.03
3005,-0.08,0.54,2.26,-0.03,0.13,0.06
3011,-7.86,2.18,0.69,-0.03,0.13,0.06
3016,-7.86,2.18,0.69,-0.11,-0.08,-0.02
3021,-7.86,2.18,0.69,-0.14,-0.14,-0.11
3026,-7.86,2.18,0.69,-0.19,-0.33,-0.17
3031,-7.86,2.18,0.69,-0.19,-0.65,-0.15
3036,-7.86,2.18,0.69,-0.22,-0.92,-0.08
3040,-7.86,2.18,0.69,-0.09,-0.96,0.01
3046,-3.37,-3.14,14.63,-0.09,-0.96,0.01
3051,-3.37,-3.14,14.63,0.13,-0.35,0.15
3056,-3.37,-3.14,14.63,0.25,-0.04,0.19
3061,-3.37,-3.14,14.63,0.17,0.11,0.23
3066,-3.37,-3.14,14.63,0.04,0.12,0.27
3071,-3.37,-3.14,14.63,-0.02,0.09,0.27
3075,-3.37,-3.14,14.63,-0.01,0.00,0.25
3081,5.44,-3.07,24.05,-0.01,0.00,0.25
3086,5.44,-3.07,24.05,0.14,0.30,0.21
3090,5.44,-3.07,24.05,0.15,0.55,0.22
3096,5.44,-3.07,24.05,0.17,0.81,0.21
3101,5.44,-3.07,24.05,0.11,1.00,0.20
3106,5.44,-3.07,24.05,0.09,1.09,0.21
3110,5.44,-3.07,24.05,0.02,0.97,0.21
3116,-1.15,-0.23,-3.52,0.02,0.97,0.21
3121,-1.15,-0.23,-3.52,-0.15,0.18,0.14
3125,-1.15,-0.23,-3.52,-0.21,-0.39,0.07
3131,3.71,-2.07,8.08,-0.21,-0.39,0.07
3136,3.71,-2.07,8.08,-0.23,-0.97,-0.02
3141,3.71,-2.07,8.08,-0.21,-0.88,-0.02
3145,3.71,-2.07,8.08,-0.11,-0.58,-0.03
3151,0.65,-2.64,22.26,-0.11,-0.58,-0.03
3156,0.65,-2.64,22.26,0.06,-0.19,-0.02
3160,0.65,-2.64,22.26,0.18,-0.04,-0.01
3166,-2.53,-2.34,9.65,0.18,-0.04,-0.01
3171,-2.53,-2.34,9.65,0.19,0.06,0.10
3176,-2.53,-2.34,9.65,0.11,-0.08,0.13
3181,-2.53,-2.34,9.65,-0.02,-0.26,0.11
3186,10.19,-0.23,6.21,-0.02,-0.26,0.11
3191,10.19,-0.23,6.21,-0.21,-0.48,0.00
3195,10.19,-0.23,6.21,-0.16,-0.48,-0.05
3201,-0.54,-1.38,14.29,-0.16,-0.48,-0.05
3206,-0.54,-1.38,14.29,-0.04,0.09,-0.16
3211,-0.54,-1.38,14.29,-0.08,0.53,-0.09
3216,-0.54,-1.38,14.29,0.05,0.83,0.01
3221,-8.46,2.87,8.96,0.05,0.83,0.01
3226,-8.46,2.87,8.96,0.02,1.01,0.10
3230,-8.46,2.87,8.96,0.00,0.94,0.06
3236,-7.89,-1.57,1.61,0.00,0.94,0.06
3241,-7.89,-1.57,1.61,-0.04,0.36,-0.02
3246,-7.89,-1.57,1.61,-0.06,-0.03,-0.03
3250,-7.89,-1.57,1.61,-0.08,-0.39,-0.02
3256,-10.45,1.49,-9.31,-0.08,-0.39,-0.02
3261,-10.45,1.49,-9.31,-0.14,-0.63,0.01
3265,-10.45,1.49,-9.31,-0.31,-0.71,0.04
3271,13.21,-2.03,27.70,-0.31,-0.71,0.04
3276,13.21,-2.03,27.70,-0.38,-1.36,0.11
3280,13.21,-2.03,27.70,-0.22,-1.71,0.07
3286,13.21,-2.03,27.70,0.10,-1.72,-0.05
3291,13.21,-2.03,27.70,0.68,-0.67,-0.21
3296,13.21,-2.03,27.70,0.01,0.81,-0.07
3300,13.21,-2.03,27.70,0.13,1.50,-0.10
3306,-2.18,-0.50,0.27,0.13,1.50,-0.10
3311,-2.18,-0.50,0.27,0.26,1.16,0.11
3315,-2.18,-0.50,0.27,0.01,0.65,0.28
3321,-2.18,-0.50,0.27,-0.20,0.49,0.20
3326,-2.18,-0.50,0.27,-0.30,0.42,-0.08
3331,-2.18,-0.50,0.27,-0.21,0.45,-0.38
3336,-2.18,-0.50,0.27,-0.04,0.53,-0.50
3341,-10.57,-5.79,7.39,-0.04,0.53,-0.50
3346,-10.57,-5.79,7.39,0.05,0.38,-0.18
3350,-10.57,-5.79,7.39,0.01,0.05,0.03
3356,2.26,6.51,-0.38,0.01,0.05,0.03
3361,2.26,6.51,-0.38,-0.06,-0.73,0.03
3366,2.26,6.51,-0.38,-0.14,-1.09,-0.04
3370,2.26,6.51,-0.38,-0.24,-1.24,-0.12
3376,-7.47,0.42,8.96,-0.24,-1.24,-0.12
3381,-7.47,0.42,8.96,-0.19,-0.79,-0.25
3385,-7.47,0.42,8.96,-0.10,-0.49,-0.24
3391,0.38,-1.42,12.76,-0.10,-0.49,-0.24
3396,0.38,-1.42,12.76,0.05,-0.26,0.05
3401,0.38,-1.42,12.76,0.03,-0.34,0.20
3406,0.38,-1.42,12.76,0.01,-0.42,0.20
3411,10.46,-2.26,12.38,0.01,-0.42,0.20
3416,10.46,-2.26,12.38,-0.10,-0.52,-0.04
3420,10.46,-2.26,12.38,0.14,-0.39,-0.01
3426,-5.44,2.76,14.71,0.14,-0.39,-0.01
3431,-5.44,2.76,14.71,0.06,0.79,0.25
3435,-5.44,2.76,14.71,0.15,0.91,0.28
3441,-5.44,2.76,14.71,0.16,0.85,0.31
3446,3.75,-1.80,3.64,0.16,0.85,0.31
3451,3.75,-1.80,3.64,0.16,0.65,0.43
3455,3.75,-1.80,3.64,0.18,0.70,0.44
3461,-8.54,2.14,-0.23,0.18,0.70,0.44
3465,-8.54,2.14,-0.23,-0.02,0.70,0.38
3470,-8.54,2.14,-0.23,0.19,0.90,0.29
3476,-8.54,2.14,-0.23,-0.32,1.14,0.24
3481,-21.57,-2.03,12.60,-0.32,1.14,0.24
3486,-21.57,-2.03,12.60,0.12,0.72,0.20
3490,-21.57,-2.03,12.60,0.10,0.11,0.18
3496,0.92,1.42,-0.84,0.10,0.11,0.18
3501,0.92,1.42,-0.84,-0.14,-1.11,0.03
3505,0.92,1.42,-0.84,-0.33,-1.51,-0.17
3511,0.92,1.42,-0.84,-0.29,-1.81,-0.29
3516,17.62,-3.64,11.49,-0.29,-1.81,-0.29
3521,17.62,-3.64,11.49,0.14,-1.84,-0.33
3525,17.62,-3.64,11.49,0.47,-0.38,-0.02
3531,9.65,-2.03,37.08,0.47,-0.38,-0.02
3536,9.65,-2.03,37.08,-0.04,1.34,0.14
3540,9.65,-2.03,37.08,0.38,1.18,0.11
3546,9.65,-2.03,37.08,0.36,0.99,0.10
3551,9.65,-2.03,37.08,0.34,0.87,0.09
3556,9.65,-2.03,37.08,0.28,0.79,0.13
3561,9.65,-2.03,37.08,0.22,0.72,0.23
3566,4.03,0.65,2.91,0.22,0.72,0.23
3571,4.03,0.65,2.91,0.08,0.58,0.28
3575,4.03,0.65,2.91,0.04,0.56,0.19
3581,4.03,0.65,2.91,0.01,0.51,0.08
3585,4.03,0.65,2.91,-0.05,0.41,0.00
3591,4.03,0.65,2.91,-0.03,0.35,-0.09
3596,4.03,0.65,2.91,-0.10,0.18,-0.15
3601,-1.04,1.11,6.59,-0.10,0.18,-0.15
3606,-1.04,1.11,6.59,-0.21,-0.62,-0.26
3610,-1.04,1.11,6.59,-0.29,-1.04,-0.32
3616,-1.04,1.11,6.59,-0.28,-1.29,-0.36
3621,-1.04,1.11,6.59,-0.26,-1.36,-0.38
3626,-1.04,1.11,6.59,-0.17,-1.21,-0.40
3631,-1.04,1.11,6.59,-0.06,-0.91,-0.37
3636,1.38,-0.04,8.92,-0.06,-0.91,-0.37
3641,1.38,-0.04,8.92,0.01,-0.31,-0.14
3645,1.38,-0.04,8.92,-0.01,-0.04,-0.06
3651,3.68,2.34,12.57,-0.01,-0.04,-0.06
3656,3.68,2.34,12.57,-0.10,0.21,-0.11
3660,3.68,2.34,12.57,-0.05,0.21,-0.15
3666,3.68,2.34,12.57,0.01,0.21,-0.14
3671,3.60,-1.99,9.04,0.01,0.21,-0.14
3676,3.60,-1.99,9.04,0.08,0.24,0.03
3680,3.60,-1.99,9.04,0.07,0.27,0.08
3686,-0.30,-0.61,5.10,0.07,0.27,0.08
3691,-0.30,-0.61,5.10,0.06,0.32,0.07
3695,-0.30,-0.61,5.10,0.05,0.34,0.05
3701,-0.30,-0.61,5.10,0.06,0.36,0.04
3706,-10.27,-0.11,9.77,0.06,0.36,0.04
3711,-10.27,-0.11,9.77,0.12,0.43,0.04
3716,-10.27,-0.11,9.77,0.11,0.47,0.03
3721,-14.90,-0.73,11.11,0.11,0.47,0.03
3726,-14.90,-0.73,11.11,0.12,0.34,0.03
3730,-14.90,-0.73,11.11,0.06,0.05,0.05
3736,-14.90,-0.73,11.11,0.02,-0.33,0.06
3741,13.14,-1.00,7.93,0.02,-0.33,0.06
3746,13.14,-1.00,7.93,-0.08,-0.98,0.03
3750,13.14,-1.00,7.93,-0.08,-1.04,0.05
3756,13.14,-1.00,7.93,-0.07,-0.92,0.11
3761,13.14,-1.00,7.93,-0.04,-0.65,0.16
3765,13.14,-1.00,7.93,-0.03,-0.33,0.19
3771,-3.07,-0.42,13.33,-0.03,-0.33,0.19
3776,-1.07,-2.11,13.52,-0.03,-0.33,0.19
3780,-1.07,-2.11,13.52,0.08,0.22,0.21
3786,-1.07,-2.11,13.52,0.11,0.24,0.20
3791,-0.15,-0.34,7.63,0.11,0.24,0.20
3796,-0.15,-0.34,7.63,0.12,0.19,0.16
3800,-0.15,-0.34,7.63,0.10,0.13,0.16
3806,-0.54,-0.57,8.73,0.10,0.13,0.16
3811,-0.54,-0.57,8.73,0.04,0.04,0.18
3815,-0.54,-0.57,8.73,0.02,0.03,0.17
3821,-0.54,-0.57,8.73,0.03,0.04,0.16
3826,-1.72,-2.03,14.18,0.03,0.04,0.16
3831,-1.72,-2.03,14.18,0.04,0.00,0.15
3835,-1.72,-2.03,14.18,0.05,-0.06,0.15
3841,0.42,-1.95,7.36,0.05,-0.06,0.15
3845,0.42,-1.95,7.36,0.05,-0.17,0.17
3850,0.42,-1.95,7.36,0.04,-0.15,0.17
3856,0.42,-1.95,7.36,0.04,-0.08,0.17
3861,-1.15,0.23,9.65,0.04,-0.08,0.17
3866,-1.15,0.23,9.65,0.03,0.12,0.17
3871,-1.15,0.23,9.65,0.02,0.17,0.13
3876,-1.15,0.23,9.65,0.03,0.17,0.09
3881,-1.15,0.23,9.65,0.04,0.12,0.09
3885,-1.15,0.23,9.65,0.05,0.01,0.13
3891,-1.15,0.23,9.65,0.02,-0.12,0.18
3896,2.41,0.04,7.81,0.02,-0.12,0.18
3901,2.41,0.04,7.81,-0.02,-0.30,0.23
3905,2.41,0.04,7.81,-0.04,-0.32,0.19
3911,-0.65,-0.23,10.88,-0.04,-0.32,0.19
3916,-0.65,-0.23,10.88,-0.01,-0.18,0.17
3920,-0.65,-0.23,10.88,0.02,-0.07,0.22
3926,-0.65,-0.23,10.88,0.04,0.02,0.29
3931,-0.65,-0.23,10.88,0.06,0.04,0.32
3936,-0.65,-0.23,10.88,0.04,0.01,0.30
3941,-0.65,-0.23,10.88,0.04,0.00,0.26
3946,-0.38,-0.08,6.51,0.04,0.00,0.26
3951,-0.38,-0.08,6.51,-0.01,0.06,0.21
3955,-0.38,-0.08,6.51,-0.01,0.07,0.21
3961,0.19,-0.42,8.92,-0.01,0.07,0.21
3966,-0.11,-0.27,9.04,-0.01,0.07,0.21
3971,-0.11,-0.27,9.04,-0.06,-0.00,0.12
3976,-0.11,-0.27,9.04,-0.06,-0.04,0.09
3981,-0.46,-1.65,9.08,-0.06,-0.04,0.09
3986,-0.46,-1.65,9.08,-0.08,-0.06,0.06
3990,-0.46,-1.65,9.08,-0.09,-0.06,0.02
3996,-0.46,-1.65,9.08,-0.07,-0.05,0.00
4001,-0.46,-1.65,9.08,-0.04,-0.02,-0.00
4005,-0.46,-1.65,9.08,-0.03,0.03,0.02
4011,-0.46,-1.65,9.08,-0.02,0.06,0.03
4016,-0.46,-1.65,9.08,-0.02,0.07,0.01
4021,-0.46,-1.65,9.08,-0.03,0.07,-0.01
4026,-0.46,-1.65,9.08,-0.04,0.05,-0.02
4030,-0.46,-1.65,9.08,-0.04,0.01,-0.02
4036,2.57,-0.96,9.73,-0.04,0.01,-0.02
4040,2.57,-0.96,9.73,-0.06,-0.09,0.02
4046,2.57,-0.96,9.73,-0.08,-0.10,0.02
4051,-0.61,0.73,8.70,-0.08,-0.10,0.02
4056,-0.61,0.73,8.70,-0.09,0.04,-0.00
4060,-0.61,0.73,8.70,-0.09,0.11,0.01
4066,-0.96,0.88,10.65,-0.09,0.11,0.01
4071,-0.96,0.88,10.65,-0.10,0.10,0.06
4075,-0.96,0.88,10.65,-0.10,0.01,0.06
4080,-0.96,0.88,10.65,-0.10,-0.07,0.05
4086,1.19,0.15,9.30,-0.10,-0.07,0.05
4091,1.19,0.15,9.30,-0.08,-0.07,0.07
4095,1.19,0.15,9.30,-0.08,-0.01,0.10
4101,0.08,1.27,12.72,-0.08,-0.01,0.10
4105,0.08,1.27,12.72,-0.09,0.12,0.13
4110,0.08,1.27,12.72,-0.08,0.18,0.10
4116,0.08,1.27,12.72,-0.10,0.22,0.06
4121,0.08,1.27,12.72,-0.10,0.23,0.04
4125,0.08,1.27,12.72,-0.11,0.23,0.03
4130,0.08,1.27,12.72,-0.11,0.22,0.06
4136,0.08,1.27,12.72,-0.14,0.20,0.05
4140,0.08,1.27,12.72,-0.18,0.15,0.02
4145,0.08,1.27,12.72,-0.22,0.06,-0.03
4150,0.08,1.27,12.72,-0.25,-0.04,-0.07
4156,6.44,-2.41,14.68,-0.25,-0.04,-0.07
4160,6.44,-2.41,14.68,-0.20,-0.15,-0.10
4165,6.44,-2.41,14.68,-0.20,-0.05,-0.13
4171,0.92,-1.88,15.44,-0.20,-0.05,-0.13
4175,0.92,-1.88,15.44,-0.11,0.08,-0.14
4180,0.92,-1.88,15.44,-0.13,0.16,-0.12
4186,0.92,-1.88,15.44,-0.13,0.18,-0.12
4190,0.92,-1.88,15.44,-0.12,0.14,-0.12
4195,0.92,-1.88,15.44,-0.16,0.05,-0.14
4201,0.92,-1.88,15.44,-0.18,-0.02,-0.18
4206,-1.04,-1.11,7.35,-0.18,-0.02,-0.18
4210,-1.04,-1.11,7.35,-0.17,-0.00,-0.24
4216,-1.04,-1.11,7.35,-0.17,0.09,-0.24
4221,-1.95,1.04,8.88,-0.17,0.09,-0.24
4226,-1.95,1.04,8.88,-0.14,0.18,-0.19
4230,-1.95,1.04,8.88,-0.14,0.12,-0.18
4236,-1.95,1.04,8.88,-0.16,0.02,-0.21
4240,-1.95,1.04,8.88,-0.16,-0.09,-0.24
4245,-1.95,1.04,8.88,-0.15,-0.15,-0.25
4251,-1.95,1.04,8.88,-0.12,-0.14,-0.22
4256,-1.95,1.04,8.88,-0.11,-0.11,-0.16
4260,-1.95,1.04,8.88,-0.09,-0.04,-0.11
4265,-1.95,1.04,8.88,-0.09,0.04,-0.11
4271,-1.95,1.04,8.88,-0.11,0.09,-0.16
4276,-1.95,1.04,8.88,-0.12,0.12,-0.21
4280,-1.95,1.04,8.88,-0.11,0.12,-0.25
4285,-1.95,1.04,8.88,-0.12,0.09,-0.23
4290,1.46,0.00,10.61,-0.12,0.09,-0.23
4296,3.71,-0.57,11.07,-0.12,0.09,-0.23
4300,3.71,-0.57,11.07,-0.14,-0.18,-0.19
4306,3.71,-0.57,11.07,-0.14,-0.23,-0.22
4310,3.71,-0.57,11.07,-0.12,-0.22,-0.24
4315,3.71,-0.57,11.07,-0.12,-0.15,-0.23
4321,3.71,-0.57,11.07,-0.07,-0.04,-0.20
4326,-1.27,0.73,9.20,-0.07,-0.04,-0.20
4330,-3.41,0.65,8.39,-0.07,-0.04,-0.20
4335,-3.41,0.65,8.39,-0.10,0.23,-0.22
4341,-3.41,0.65,8.39,-0.10,0.24,-0.25
4346,-3.41,0.65,8.39,-0.12,0.18,-0.26
4350,-3.41,0.65,8.39,-0.12,0.07,-0.26
4355,-3.41,0.65,8.39,-0.12,-0.08,-0.27
4361,1.15,-0.96,9.16,-0.12,-0.08,-0.27
4365,1.15,-0.96,9.16,-0.10,-0.23,-0.29
4371,1.15,-0.96,9.16,-0.08,-0.21,-0.29
4376,1.15,-0.96,9.16,-0.07,-0.16,-0.26
4380,1.15,-0.96,9.16,-0.04,-0.10,-0.21
4385,1.15,-0.96,9.16,-0.04,-0.04,-0.19
4390,1.15,-0.96,9.16,-0.03,0.00,-0.20
4396,1.15,-0.96,9.16,-0.02,0.02,-0.21
4400,1.15,-0.96,9.16,-0.01,0.00,-0.20
4405,1.15,-0.96,9.16,0.01,-0.03,-0.18
4410,1.15,-0.96,9.16,0.01,-0.01,-0.16
4416,-0.38,-0.73,10.57,0.01,-0.01,-0.16
4420,-0.38,-0.73,10.57,0.02,0.13,-0.14
4426,-0.38,-0.73,10.57,0.02,0.20,-0.13
4430,-0.38,-0.73,10.57,0.03,0.23,-0.12
4435,-0.38,-0.73,10.57,0.04,0.21,-0.08
4440,-0.38,-0.73,10.57,0.04,0.12,-0.05
4446,-0.38,-0.73,10.57,0.05,0.05,-0.05
4450,-0.38,-0.73,10.57,0.07,0.01,-0.06
4455,-0.38,-0.73,10.57,0.09,0.00,-0.03
4460,-0.38,-0.73,10.57,0.11,0.04,0.01
4466,-1.61,-1.23,7.39,0.11,0.04,0.01
4470,-1.61,-1.23,7.39,0.12,0.14,0.08
4475,-1.61,-1.23,7.39,0.11,0.17,0.09
4481,-1.61,-1.23,7.39,0.11,0.20,0.07
4485,-1.61,-1.23,7.39,0.10,0.18,0.06
4490,-1.61,-1.23,7.39,0.14,0.13,0.06
4496,-1.61,-1.23,7.39,0.16,0.08,0.09
4500,-1.61,-1.23,7.39,0.16,0.03,0.13
4505,-1.61,-1.23,7.39,0.17,-0.03,0.15
4510,-1.61,-1.23,7.39,0.14,-0.14,0.15
4516,-1.61,-1.23,7.39,0.12,-0.25,0.15
4520,-1.61,-1.23,7.39,0.09,-0.32,0.15
4526,-1.61,-1.23,7.39,0.10,-0.33,0.18
4530,-1.61,-1.23,7.39,0.12,-0.26,0.19
4536,-1.61,-1.23,7.39,0.16,-0.12,0.20
4540,-1.61,-1.23,7.39,0.19,0.07,0.21
4546,-1.61,-1.23,7.39,0.20,0.24,0.22
4551,-1.61,-1.23,7.39,0.21,0.35,0.23
4555,1.30,0.30,9.08,0.21,0.35,0.23
4560,1.30,0.30,9.08,0.15,0.29,0.26
4566,1.30,0.30,9.08,0.10,0.19,0.22
4570,1.30,0.30,9.08,0.09,0.07,0.17
4575,1.30,0.30,9.08,0.07,-0.00,0.13
4580,1.30,0.30,9.08,0.07,-0.05,0.16
4586,-0.08,-0.08,9.00,0.07,-0.05,0.16
4591,-0.08,-0.08,9.00,0.06,-0.08,0.22
4595,-0.19,0.65,9.73,0.06,-0.08,0.22
4601,-0.19,0.65,9.73,0.03,-0.08,0.13
4606,-0.19,0.65,9.73,0.03,-0.09,0.08
4610,1.30,-0.34,9.08,0.03,-0.09,0.08
4615,1.30,-0.34,9.08,0.05,-0.12,0.12
4621,0.69,0.00,9.58,0.05,-0.12,0.12
4625,-0.80,0.73,9.27,0.05,-0.12,0.12
4630,-0.46,-0.54,11.15,0.05,-0.12,0.12
4636,-0.46,-0.54,11.15,-0.01,0.00,0.01
4641,-0.46,-0.54,11.15,-0.02,-0.02,-0.04
4646,2.87,-1.46,12.41,-0.02,-0.02,-0.04
4650,3.87,-1.80,12.22,-0.02,-0.02,-0.04
4656,3.87,-1.80,12.22,0.02,-0.13,-0.02
4661,3.87,-1.80,12.22,0.02,-0.12,-0.01
4665,-0.65,-1.11,7.89,0.02,-0.12,-0.01
4670,-2.57,0.23,7.66,0.02,-0.12,-0.01
4676,-3.37,1.34,8.70,0.02,-0.12,-0.01
4681,-3.37,1.34,8.70,0.03,0.24,-0.06
4685,-0.77,0.00,8.50,0.03,0.24,-0.06
4691,-0.77,0.00,8.50,0.01,0.15,-0.07
4696,-0.77,0.00,8.50,-0.01,0.05,-0.10
4701,-0.77,0.00,8.50,-0.03,-0.05,-0.14
4706,-2.49,-0.30,5.32,-0.03,-0.05,-0.14
4711,-0.73,-0.92,6.63,-0.03,-0.05,-0.14
4715,0.61,-1.11,8.20,-0.03,-0.05,-0.14
4721,0.61,-1.11,8.20,-0.07,-0.26,-0.12
4726,0.61,-1.11,8.20,-0.08,-0.30,-0.15
4730,-0.15,-0.88,10.84,-0.08,-0.30,-0.15
4735,-0.15,-0.88,10.84,-0.01,-0.23,-0.14
4741,-0.15,-0.88,10.84,0.03,-0.12,-0.09
4746,-0.15,-0.88,10.84,0.07,-0.00,-0.04
4750,-0.92,0.46,9.46,0.07,-0.00,-0.04
4755,-1.07,0.80,10.41,0.07,-0.00,-0.04
4760,-1.07,0.80,10.41,0.09,0.20,0.03
4766,-1.07,0.80,10.41,0.06,0.15,0.03
4770,-1.07,0.80,10.41,0.06,0.09,0.03
4776,-1.07,0.80,10.41,0.05,0.03,0.04
4780,-2.18,-0.92,9.50,0.05,0.03,0.04
4785,-3.03,-0.19,9.00,0.05,0.03,0.04
4790,-3.03,-0.19,9.00,0.07,0.02,0.10
4796,-3.03,-0.19,9.00,0.07,0.02,0.11
4801,-3.03,-0.19,9.00,0.04,-0.02,0.11
4806,0.96,-0.57,9.08,0.04,-0.02,0.11
4810,-0.54,-0.84,7.47,0.04,-0.02,0.11
4816,-0.54,-0.84,7.47,0.01,-0.17,0.06
4821,-0.54,-0.84,7.47,0.01,-0.15,0.05
4826,-0.46,-0.77,10.15,0.01,-0.15,0.05
4830,-1.65,-0.46,10.96,0.01,-0.15,0.05
4835,-2.03,0.30,11.95,0.01,-0.15,0.05
4841,-2.03,0.30,11.95,0.02,0.10,0.03
4846,-2.03,0.30,11.95,0.03,0.11,-0.01
4850,-0.08,-1.34,9.85,0.03,0.11,-0.01
4855,0.50,-0.96,9.16,0.03,0.11,-0.01
4861,0.50,-0.96,9.16,0.03,-0.09,-0.04
4866,0.50,-0.96,9.16,0.04,-0.12,-0.02
4871,-0.50,-0.65,6.17,0.04,-0.12,-0.02
4875,0.54,0.00,7.27,0.04,-0.12,-0.02
4881,0.54,0.00,7.27,-0.00,-0.06,-0.04
4885,2.34,0.30,11.76,-0.00,-0.06,-0.04
4890,1.72,-0.04,12.68,-0.00,-0.06,-0.04
4896,1.72,-0.04,12.68,-0.01,-0.07,-0.08
4901,1.72,-0.04,12.68,0.02,-0.02,-0.10
4905,-2.41,-0.38,10.07,0.02,-0.02,-0.10
4910,-1.57,-0.30,9.61,0.02,-0.02,-0.10
4916,-1.57,-0.30,9.61,0.07,0.16,-0.06
4921,-1.57,-0.30,9.61,0.07,0.13,-0.02
4826,-0.46,-0.77,10.15,0.01,-0.15,0.05
4830,-1.65,-0.46,10.96,0.01,-0.15,0.05
4835,-2.03,0.30,11.95,0.01,-0.15,0.05
4841,-2.03,0.30,11.95,0.02,0.10,0.03
4846,-2.03,0.30,11.95,0.03,0.11,-0.01
4850,-0.08,-1.34,9.85,0.03,0.11,-0.01
4855,0.50,-0.96,9.16,0.03,0.11,-0.01
4861,0.50,-0.96,9.16,0.03,-0.09,-0.04
4866,0.50,-0.96,9.16,0.04,-0.12,-0.02
4871,-0.50,-0.65,6.17,0.04,-0.12,-0.02
4875,0.54,0.00,7.27,0.04,-0.12,-0.02
4881,0.54,0.00,7.27,-0.00,-0.06,-0.04
4885,2.34,0.30,11.76,-0.00,-0.06,-0.04
4890,1.72,-0.04,12.68,-0.00,-0.06,-0.04
4896,1.72,-0.04,12.68,-0.01,-0.07,-0.08
4901,1.72,-0.04,12.68,0.02,-0.02,-0.10
