timestamp,accX,accY,accZ,gyroX,gyroY,gyroZ
Break
7,0.46,-0.19,9.31,-0.19,-0.11,-0.16
18,-1.15,0.27,9.81,-0.19,-0.11,-0.16
21,-1.15,0.27,9.81,0.05,0.09,-0.24
23,-1.15,0.27,9.81,0.06,0.12,-0.22
26,0.50,0.27,8.54,0.06,0.12,-0.22
30,0.50,0.27,8.54,0.04,0.06,-0.24
36,0.50,0.27,8.54,0.04,-0.01,-0.27
41,0.50,0.27,8.54,0.03,-0.05,-0.28
47,-0.04,-0.15,9.58,0.03,-0.05,-0.28
50,-0.04,-0.15,9.58,0.05,-0.05,-0.21
56,-0.04,-0.15,9.58,0.05,-0.03,-0.19
61,-0.04,-0.15,9.58,0.05,-0.02,-0.20
67,0.42,0.34,10.54,0.05,-0.02,-0.20
71,0.42,0.34,10.54,0.05,0.00,-0.25
76,0.42,0.34,10.54,0.06,0.03,-0.26
82,0.30,-0.54,10.42,0.06,0.03,-0.26
86,0.30,-0.54,10.42,0.08,0.07,-0.22
90,0.30,-0.54,10.42,0.08,0.08,-0.22
96,0.30,-0.54,10.42,0.08,0.08,-0.22
102,-0.15,-0.92,9.73,0.08,0.08,-0.22
106,-0.15,-0.92,9.73,0.09,0.04,-0.21
110,-0.15,-0.92,9.73,0.09,0.01,-0.22
115,-0.15,-0.92,9.73,0.09,-0.01,-0.23
121,-1.46,0.00,8.46,0.09,-0.01,-0.23
126,-1.46,0.00,8.46,0.10,0.01,-0.18
131,-1.46,0.00,8.46,0.09,-0.01,-0.17
137,-0.96,-0.54,8.96,0.09,-0.01,-0.17
141,-0.96,-0.54,8.96,0.07,-0.03,-0.23
146,-0.96,-0.54,8.96,0.08,-0.04,-0.23
152,-1.04,-1.76,8.85,0.08,-0.04,-0.23
156,-1.04,-1.76,8.85,0.12,-0.01,-0.18
161,-1.04,-1.76,8.85,0.12,-0.01,-0.16
166,-1.04,-1.76,8.85,0.14,-0.01,-0.16
171,0.77,-1.30,9.80,0.14,-0.01,-0.16
176,0.77,-1.30,9.80,0.16,-0.04,-0.15
181,0.77,-1.30,9.80,0.18,-0.04,-0.14
187,1.04,-1.30,11.00,0.18,-0.04,-0.14
190,1.04,-1.30,11.00,0.22,0.03,-0.12
196,1.04,-1.30,11.00,0.24,0.12,-0.11
201,1.04,-1.30,11.00,0.24,0.16,-0.08
207,-2.03,-0.65,8.36,0.24,0.16,-0.08
211,-2.03,-0.65,8.36,0.23,0.12,-0.08
216,-2.03,-0.65,8.36,0.21,0.05,-0.08
222,-1.57,-0.57,8.62,0.21,0.05,-0.08
226,-1.57,-0.57,8.62,0.20,-0.09,-0.08
231,-1.57,-0.57,8.62,0.20,-0.14,-0.07
237,-1.57,-0.57,8.62,0.20,-0.18,-0.07
241,-1.57,-0.57,8.62,0.19,-0.19,-0.08
246,-1.57,-0.57,8.62,0.23,-0.14,-0.07
251,-1.57,-0.57,8.62,0.24,-0.07,-0.03
257,-1.65,-1.84,8.70,0.24,-0.07,-0.03
261,-1.65,-1.84,8.70,0.26,0.07,0.06
266,-1.65,-1.84,8.70,0.25,0.07,0.06
272,-1.65,-1.84,8.70,0.27,0.07,0.04
276,-1.65,-1.84,8.70,0.26,0.05,0.04
281,-1.65,-1.84,8.70,0.27,0.04,0.08
286,-1.65,-1.84,8.70,0.29,0.03,0.14
292,-0.50,-0.92,9.27,0.29,0.03,0.14
296,-0.50,-0.92,9.27,0.31,0.03,0.20
301,-0.50,-0.92,9.27,0.31,0.01,0.24
306,-0.50,-0.92,9.27,0.31,-0.02,0.28
311,-0.50,-0.92,9.27,0.29,-0.04,0.30
316,-0.50,-0.92,9.27,0.29,-0.06,0.31
321,-0.50,-0.92,9.27,0.30,-0.06,0.34
327,-0.54,-2.07,10.19,0.30,-0.06,0.34
331,-0.54,-2.07,10.19,0.31,-0.02,0.39
336,-0.54,-2.07,10.19,0.33,-0.01,0.40
342,-0.54,-2.07,10.19,0.33,0.01,0.43
346,-0.54,-2.07,10.19,0.32,0.00,0.46
351,-0.54,-2.07,10.19,0.30,-0.02,0.50
356,-0.54,-2.07,10.19,0.27,-0.07,0.51
362,-0.15,-1.38,6.79,0.27,-0.07,0.51
366,-0.15,-1.38,6.79,0.23,-0.18,0.49
371,-0.15,-1.38,6.79,0.23,-0.21,0.51
377,-0.15,-1.38,6.79,0.24,-0.21,0.52
381,-0.15,-1.38,6.79,0.27,-0.16,0.51
386,-0.15,-1.38,6.79,0.28,-0.07,0.47
391,-0.15,-1.38,6.79,0.32,0.03,0.46
397,-2.18,-3.26,10.61,0.32,0.03,0.46
401,-2.18,-3.26,10.61,0.34,0.13,0.48
406,-2.18,-3.26,10.61,0.30,0.12,0.47
412,-2.18,-3.26,10.61,0.24,0.05,0.42
416,-2.18,-3.26,10.61,0.23,-0.02,0.36
421,-2.18,-3.26,10.61,0.20,-0.07,0.34
426,-2.18,-3.26,10.61,0.18,-0.08,0.37
431,-2.18,-3.26,10.61,0.16,-0.06,0.38
436,-2.18,-3.26,10.61,0.16,-0.03,0.37
441,-2.18,-3.26,10.61,0.18,-0.00,0.36
446,-1.80,0.61,10.00,0.18,-0.00,0.36
450,-1.80,0.61,10.00,0.17,0.01,0.40
455,-1.80,0.61,10.00,0.15,-0.03,0.40
460,-1.80,0.61,10.00,0.14,-0.07,0.35
465,0.54,-1.00,9.12,0.14,-0.07,0.35
472,0.54,-1.00,9.12,0.14,-0.10,0.33
476,0.54,-1.00,9.12,0.15,-0.06,0.40
482,-1.04,0.88,9.20,0.15,-0.06,0.40
486,-1.04,0.88,9.20,0.11,-0.04,0.38
491,-1.04,0.88,9.20,0.08,-0.04,0.29
497,-1.04,0.88,9.20,0.06,-0.06,0.21
501,-1.04,0.88,9.20,0.05,-0.05,0.19
506,-1.04,0.88,9.20,0.07,-0.05,0.24
511,-1.04,0.88,9.20,0.09,-0.04,0.30
517,-1.04,0.88,9.20,0.08,-0.00,0.32
521,-1.04,0.88,9.20,0.07,0.02,0.27
526,-1.04,0.88,9.20,0.06,0.03,0.21
531,-1.04,0.88,9.20,0.05,0.04,0.20
536,-1.04,0.88,9.20,0.04,0.07,0.21
541,-1.04,0.88,9.20,0.02,0.06,0.21
546,-1.04,0.88,9.20,0.03,0.05,0.19
552,-0.69,0.96,7.78,0.03,0.05,0.19
556,-0.69,0.96,7.78,-0.02,-0.01,0.14
561,-0.69,0.96,7.78,-0.03,-0.05,0.14
566,-0.69,0.96,7.78,-0.06,-0.09,0.13
571,-0.69,0.96,7.78,-0.09,-0.11,0.10
576,-0.69,0.96,7.78,-0.10,-0.09,0.06
581,-0.69,0.96,7.78,-0.09,-0.06,0.04
586,-0.88,-0.46,8.04,-0.09,-0.06,0.04
591,-0.88,-0.46,8.04,-0.09,-0.03,0.06
596,-0.88,-0.46,8.04,-0.08,-0.04,0.07
601,-0.88,-0.46,8.04,-0.08,-0.07,0.07
606,-0.88,-0.46,8.04,-0.09,-0.09,0.08
611,-0.88,-0.46,8.04,-0.07,-0.11,0.09
616,-0.88,-0.46,8.04,-0.05,-0.08,0.11
621,1.00,-0.54,10.23,-0.05,-0.08,0.11
626,1.00,-0.54,10.23,-0.00,0.06,0.15
631,1.00,-0.54,10.23,0.01,0.12,0.17
636,1.00,-0.54,10.23,0.01,0.14,0.18
641,1.00,-0.54,10.23,-0.01,0.12,0.19
646,1.00,-0.54,10.23,-0.02,0.06,0.20
650,1.00,-0.54,10.23,-0.03,0.01,0.21
656,1.57,0.11,9.77,-0.03,0.01,0.21
661,1.57,0.11,9.77,-0.06,-0.07,0.21
666,1.57,0.11,9.77,-0.07,-0.09,0.19
671,1.57,0.11,9.77,-0.07,-0.08,0.17
676,1.57,0.11,9.77,-0.07,-0.04,0.16
681,1.57,0.11,9.77,-0.06,-0.00,0.16
686,1.57,0.11,9.77,-0.07,0.02,0.15
691,1.57,0.11,9.77,-0.08,0.02,0.13
696,1.57,0.11,9.77,-0.11,-0.00,0.10
701,1.57,0.11,9.77,-0.13,-0.03,0.07
707,0.80,0.23,8.89,-0.13,-0.03,0.07
711,0.80,0.23,8.89,-0.14,-0.05,0.05
716,0.80,0.23,8.89,-0.14,-0.02,0.03
721,0.80,0.23,8.89,-0.14,0.01,0.03
726,0.80,0.23,8.89,-0.13,0.05,0.02
731,0.80,0.23,8.89,-0.14,0.05,0.02
736,0.80,0.23,8.89,-0.14,0.05,0.00
742,-0.30,0.50,10.19,-0.14,0.05,0.00
746,-0.30,0.50,10.19,-0.14,0.04,-0.02
751,-0.30,0.50,10.19,-0.15,0.04,-0.02
756,-0.30,0.50,10.19,-0.14,0.05,-0.03
761,-0.30,0.50,10.19,-0.15,0.08,-0.03
766,-0.30,0.50,10.19,-0.14,0.10,-0.03
771,-0.30,0.50,10.19,-0.15,0.11,-0.05
777,-1.76,0.38,8.78,-0.15,0.11,-0.05
781,-1.76,0.38,8.78,-0.16,0.10,-0.10
786,-1.76,0.38,8.78,-0.18,0.07,-0.11
791,-1.76,0.38,8.78,-0.20,0.01,-0.12
796,-1.76,0.38,8.78,-0.22,-0.07,-0.14
801,-1.76,0.38,8.78,-0.24,-0.13,-0.17
806,-1.76,0.38,8.78,-0.25,-0.16,-0.19
812,1.95,-0.19,11.19,-0.25,-0.16,-0.19
816,1.95,-0.19,11.19,-0.23,-0.11,-0.20
821,1.95,-0.19,11.19,-0.19,-0.03,-0.21
826,1.95,-0.19,11.19,-0.17,0.05,-0.22
831,1.95,-0.19,11.19,-0.15,0.12,-0.23
836,1.95,-0.19,11.19,-0.14,0.16,-0.23
841,1.95,-0.19,11.19,-0.15,0.15,-0.22
846,1.23,0.11,8.96,-0.15,0.15,-0.22
851,1.23,0.11,8.96,-0.19,0.09,-0.25
856,1.23,0.11,8.96,-0.20,0.06,-0.29
862,1.23,0.11,8.96,-0.21,0.04,-0.31
866,1.23,0.11,8.96,-0.21,0.03,-0.31
871,1.23,0.11,8.96,-0.21,0.04,-0.29
875,1.23,0.11,8.96,-0.18,0.04,-0.29
881,-0.88,0.96,9.08,-0.18,0.04,-0.29
886,-0.88,0.96,9.08,-0.18,0.06,-0.31
891,-0.88,0.96,9.08,-0.19,0.05,-0.32
897,-0.88,0.96,9.08,-0.19,0.01,-0.33
901,-0.88,0.96,9.08,-0.18,-0.03,-0.31
906,-0.88,0.96,9.08,-0.17,-0.06,-0.30
910,-0.88,0.96,9.08,-0.16,-0.07,-0.27
917,0.92,-0.30,9.34,-0.16,-0.07,-0.27
921,0.92,-0.30,9.34,-0.13,-0.04,-0.23
926,0.92,-0.30,9.34,-0.13,-0.03,-0.23
931,0.92,-0.30,9.34,-0.12,-0.01,-0.24
936,0.92,-0.30,9.34,-0.12,0.02,-0.25
941,0.92,-0.30,9.34,-0.12,0.06,-0.25
945,0.92,-0.30,9.34,-0.12,0.09,-0.23
952,0.61,-0.69,9.88,-0.12,0.09,-0.23
956,0.61,-0.69,9.88,-0.11,0.11,-0.24
961,0.61,-0.69,9.88,-0.10,0.11,-0.22
966,0.00,-0.38,9.96,-0.10,0.11,-0.22
971,0.00,-0.38,9.96,-0.10,0.05,-0.18
976,0.00,-0.38,9.96,-0.09,0.02,-0.17
980,0.00,-0.38,9.96,-0.08,-0.01,-0.17
986,0.11,-1.68,9.46,-0.08,-0.01,-0.17
991,0.11,-1.68,9.46,-0.03,-0.02,-0.15
996,0.11,-1.68,9.46,-0.02,-0.02,-0.11
1001,1.49,-0.38,8.96,-0.02,-0.02,-0.11
1006,1.49,-0.38,8.96,0.00,-0.03,-0.06
1011,1.49,-0.38,8.96,-0.01,-0.01,-0.08
1015,1.49,-0.38,8.96,-0.01,0.01,-0.12
1021,0.04,-1.15,9.77,-0.01,0.01,-0.12
1026,0.04,-1.15,9.77,-0.01,0.01,-0.13
1031,0.04,-1.15,9.77,-0.01,0.02,-0.11
1036,0.19,-1.57,8.93,-0.01,0.02,-0.11
1041,0.19,-1.57,8.93,-0.03,-0.02,-0.12
1046,0.19,-1.57,8.93,-0.01,-0.05,-0.12
1050,0.19,-1.57,8.93,-0.04,-0.05,-0.12
1056,2.14,-1.30,11.11,-0.04,-0.05,-0.12
1061,2.14,-1.30,11.11,0.01,0.01,-0.11
1065,2.14,-1.30,11.11,0.04,0.07,-0.09
1071,-1.11,-0.80,9.69,0.04,0.07,-0.09
1076,-1.11,-0.80,9.69,0.09,0.18,-0.04
1081,-1.11,-0.80,9.69,0.10,0.19,-0.02
1086,-1.11,-0.80,9.69,0.08,0.16,-0.01
1091,0.00,-0.80,8.93,0.08,0.16,-0.01
1096,0.00,-0.80,8.93,0.06,0.01,-0.02
1100,0.00,-0.80,8.93,0.06,-0.05,-0.01
1106,0.11,-0.42,9.38,0.06,-0.05,-0.01
1111,0.11,-0.42,9.38,0.03,-0.12,-0.01
1116,0.11,-0.42,9.38,0.01,-0.12,-0.01
1121,0.11,-0.42,9.38,0.01,-0.13,-0.02
1126,0.11,-0.42,9.38,0.01,-0.12,-0.03
1131,0.11,-0.42,9.38,0.04,-0.08,-0.01
1136,0.11,-0.42,9.38,0.05,-0.02,0.02
1141,0.04,-1.42,9.16,0.05,-0.02,0.02
1146,0.04,-1.42,9.16,0.08,0.10,0.04
1151,0.04,-1.42,9.16,0.09,0.13,0.03
1156,0.04,-1.42,9.16,0.10,0.11,0.04
1161,0.04,-1.42,9.16,0.09,0.07,0.06
1166,0.04,-1.42,9.16,0.09,0.03,0.07
1170,0.04,-1.42,9.16,0.09,-0.00,0.09
1176,1.00,-1.84,8.89,0.09,-0.00,0.09
1181,1.00,-1.84,8.89,0.10,-0.03,0.09
1186,1.00,-1.84,8.89,0.09,-0.04,0.10
1192,1.00,-1.84,8.89,0.08,-0.05,0.10
1196,1.00,-1.84,8.89,0.08,-0.04,0.11
1201,1.00,-1.84,8.89,0.09,-0.03,0.10
1206,1.00,-1.84,8.89,0.09,-0.00,0.09
1211,0.15,-0.38,10.00,0.09,-0.00,0.09
1216,0.15,-0.38,10.00,0.10,0.06,0.08
1220,0.15,-0.38,10.00,0.10,0.07,0.10
1226,0.69,-2.34,9.73,0.10,0.07,0.10
1231,0.69,-2.34,9.73,0.08,0.02,0.10
1236,0.69,-2.34,9.73,0.09,-0.01,0.10
1241,0.69,-2.34,9.73,0.10,-0.03,0.11
1246,-1.61,-0.46,7.51,0.10,-0.03,0.11
1251,-1.61,-0.46,7.51,0.09,0.00,0.12
1255,-1.61,-0.46,7.51,0.10,-0.01,0.12
1261,0.23,-0.92,9.31,0.10,-0.01,0.12
1266,0.23,-0.92,9.31,0.08,-0.10,0.13
1271,0.23,-0.92,9.31,0.06,-0.14,0.15
1276,0.23,-0.92,9.31,0.06,-0.17,0.16
1281,2.99,-1.04,11.96,0.06,-0.17,0.16
1286,2.99,-1.04,11.96,0.08,-0.09,0.20
1291,2.99,-1.04,11.96,0.10,-0.01,0.21
1296,-0.54,-0.80,9.73,0.10,-0.01,0.21
1301,-0.54,-0.80,9.73,0.14,0.13,0.22
1306,-0.54,-0.80,9.73,0.14,0.16,0.22
1311,-0.54,-0.80,9.73,0.14,0.12,0.24
1316,1.34,-1.27,9.58,0.14,0.12,0.24
1321,1.34,-1.27,9.58,0.10,-0.03,0.25
1326,1.34,-1.27,9.58,0.08,-0.12,0.25
1331,2.80,-1.49,8.36,0.08,-0.12,0.25
1336,2.80,-1.49,8.36,0.05,-0.15,0.24
1341,2.80,-1.49,8.36,0.05,-0.13,0.23
1346,2.80,-1.49,8.36,0.07,-0.09,0.22
1352,0.46,-1.34,9.85,0.07,-0.09,0.22
1356,0.46,-1.34,9.85,0.10,0.01,0.23
1360,0.46,-1.34,9.85,0.10,0.03,0.24
1366,0.84,-0.80,10.27,0.10,0.03,0.24
1371,0.84,-0.80,10.27,0.09,0.03,0.24
1375,0.84,-0.80,10.27,0.07,-0.01,0.25
1381,0.84,-0.80,10.27,0.07,-0.05,0.26
1386,2.26,-1.91,9.34,0.07,-0.05,0.26
1391,2.26,-1.91,9.34,0.07,-0.10,0.27
1395,2.26,-1.91,9.34,0.09,-0.09,0.29
1402,0.65,-1.53,10.31,0.09,-0.09,0.29
1406,0.65,-1.53,10.31,0.09,-0.01,0.27
1410,0.65,-1.53,10.31,0.07,-0.00,0.25
1416,0.65,-1.53,10.31,0.08,-0.01,0.25
1421,0.65,-1.53,10.31,0.07,-0.03,0.26
1426,0.65,-1.53,10.31,0.06,-0.06,0.26
1431,0.65,-1.53,10.31,0.05,-0.06,0.25
1436,1.11,-1.80,10.15,0.05,-0.06,0.25
1441,1.11,-1.80,10.15,0.05,-0.01,0.20
1445,1.11,-1.80,10.15,0.05,0.02,0.19
1452,1.11,-1.80,10.15,0.06,0.04,0.20
1456,1.11,-1.80,10.15,0.06,0.02,0.22
1461,1.11,-1.80,10.15,0.05,-0.00,0.23
1466,1.11,-1.80,10.15,0.04,-0.04,0.22
1471,1.91,-1.23,9.34,0.04,-0.04,0.22
1476,1.91,-1.23,9.34,0.03,-0.08,0.21
1480,1.91,-1.23,9.34,0.04,-0.07,0.21
1486,0.11,0.00,9.16,0.04,-0.07,0.21
1491,0.11,0.00,9.16,0.04,-0.01,0.21
1496,0.11,0.00,9.16,0.02,0.00,0.21
1501,0.11,0.00,9.16,-0.01,-0.01,0.19
1506,1.42,0.46,9.42,-0.01,-0.01,0.19
1511,1.42,0.46,9.42,-0.04,-0.03,0.14
1516,1.42,0.46,9.42,-0.05,-0.02,0.14
1521,0.19,-0.11,8.54,-0.05,-0.02,0.14
1526,0.19,-0.11,8.54,-0.06,-0.00,0.15
1531,0.19,-0.11,8.54,-0.07,0.01,0.13
1536,0.19,-0.11,8.54,-0.09,0.00,0.10
1541,0.19,-0.73,9.31,-0.09,0.00,0.10
1546,0.19,-0.73,9.31,-0.07,-0.05,0.09
1550,0.19,-0.73,9.31,-0.06,-0.07,0.12
1556,2.07,-0.15,9.85,-0.06,-0.07,0.12
1561,2.07,-0.15,9.85,-0.05,-0.07,0.17
1566,2.07,-0.15,9.85,-0.06,-0.06,0.17
1571,2.07,-0.15,9.85,-0.05,-0.02,0.16
1577,0.19,0.00,9.81,-0.05,-0.02,0.16
1581,0.19,0.00,9.81,-0.04,0.08,0.11
1585,0.19,0.00,9.81,-0.03,0.12,0.10
1591,-0.65,-0.57,9.61,-0.03,0.12,0.10
1596,-0.65,-0.57,9.61,-0.05,0.07,0.10
1600,-0.65,-0.57,9.61,-0.06,-0.00,0.10
1606,-0.65,-0.57,9.61,-0.07,-0.07,0.07
1611,0.77,0.34,8.54,-0.07,-0.07,0.07
1616,0.77,0.34,8.54,-0.10,-0.12,0.04
1621,0.77,0.34,8.54,-0.12,-0.12,0.02
1626,1.15,0.19,10.11,-0.12,-0.12,0.02
1631,1.15,0.19,10.11,-0.12,-0.02,-0.03
1635,1.15,0.19,10.11,-0.12,0.05,-0.05
1641,-0.61,-0.30,10.46,-0.12,0.05,-0.05
1645,-0.61,-0.30,10.46,-0.11,0.13,-0.06
1651,-0.61,-0.30,10.46,-0.12,0.11,-0.05
1656,-0.61,-0.30,10.46,-0.12,0.06,-0.04
1661,0.50,-1.19,8.24,-0.12,0.06,-0.04
1666,0.50,-1.19,8.24,-0.12,-0.01,-0.04
1671,0.50,-1.19,8.24,-0.10,-0.02,-0.04
1677,0.50,-1.19,8.24,-0.10,-0.02,-0.04
1681,0.50,-1.19,8.24,-0.09,-0.00,-0.03
1686,0.50,-1.19,8.24,-0.09,0.01,-0.02
1691,0.50,-1.19,8.24,-0.10,0.05,-0.01
1696,-0.15,0.23,10.31,-0.10,0.05,-0.01
1701,-0.15,0.23,10.31,-0.12,0.08,-0.05
1705,-0.15,0.23,10.31,-0.11,0.07,-0.05
1711,0.61,-0.69,8.39,-0.11,0.07,-0.05
1716,0.88,-0.30,9.04,-0.11,0.07,-0.05
1721,0.88,-0.30,9.04,-0.10,-0.01,-0.00
1726,0.88,-0.30,9.04,-0.11,-0.02,0.01
1732,1.00,0.08,10.45,-0.11,-0.02,0.01
1736,1.00,0.08,10.45,-0.10,0.01,0.00
1741,1.00,0.08,10.45,-0.10,0.03,0.01
1746,0.84,0.23,9.73,-0.10,0.03,0.01
1751,0.84,0.23,9.73,-0.10,0.06,0.05
1756,0.84,0.23,9.73,-0.12,0.06,0.05
1761,0.84,0.23,9.73,-0.11,0.05,0.03
1766,0.30,-1.34,8.62,-0.11,0.05,0.03
1771,0.30,-1.34,8.62,-0.08,0.03,0.04
1776,0.30,-1.34,8.62,-0.07,0.02,0.07
1781,-0.96,-0.34,8.31,-0.07,0.02,0.07
1786,-0.96,-0.34,8.31,-0.06,0.00,0.11
1790,-0.96,-0.34,8.31,-0.07,-0.02,0.10
1796,-0.96,-0.34,8.31,-0.08,-0.04,0.08
1801,-0.19,-0.50,9.88,-0.08,-0.04,0.08
1806,-0.19,-0.50,9.88,-0.08,-0.07,0.07
1810,-0.19,-0.50,9.88,-0.10,-0.08,0.09
1816,-0.19,-0.50,9.88,-0.10,-0.08,0.10
1821,-0.19,-0.50,9.88,-0.11,-0.08,0.11
1825,-0.19,-0.50,9.88,-0.10,-0.06,0.12
1831,2.18,-1.42,11.15,-0.10,-0.06,0.12
1836,0.61,-1.27,10.69,-0.10,-0.06,0.12
1841,0.61,-1.27,10.69,-0.07,0.14,0.11
1846,0.61,-1.27,10.69,-0.06,0.21,0.09
1852,-1.42,-0.73,9.23,-0.06,0.21,0.09
1856,-1.42,-0.73,9.23,-0.05,0.19,0.06
1860,-1.42,-0.73,9.23,-0.08,0.11,0.05
1866,1.19,-0.92,8.66,-0.08,0.11,0.05
1871,1.19,-0.92,8.66,-0.11,-0.08,0.03
1876,1.19,-0.92,8.66,-0.12,-0.13,0.02
1881,1.19,-0.92,8.66,-0.13,-0.14,0.00
1886,1.34,-1.00,9.12,-0.13,-0.14,0.00
1891,1.34,-1.00,9.12,-0.12,-0.09,-0.02
1895,1.34,-1.00,9.12,-0.12,-0.03,-0.04
1901,0.23,-0.34,9.34,-0.12,-0.03,-0.04
1905,0.23,-0.34,9.34,-0.11,0.06,-0.07
1910,0.23,-0.34,9.34,-0.09,0.09,-0.08
1916,0.23,-0.34,9.34,-0.10,0.08,-0.08
1921,1.61,-0.30,8.96,-0.10,0.08,-0.08
1926,1.61,-0.30,8.96,-0.10,0.02,-0.08
1931,1.61,-0.30,8.96,-0.11,-0.00,-0.09
1936,1.61,-0.30,8.96,-0.11,0.01,-0.11
1941,1.61,-0.30,8.96,-0.10,0.04,-0.11
1946,1.61,-0.30,8.96,-0.10,0.08,-0.13
1951,1.61,-0.30,8.96,-0.09,0.09,-0.14
1956,0.88,-1.42,10.11,-0.09,0.09,-0.14
1961,0.88,-1.42,10.11,-0.08,0.03,-0.10
1965,0.88,-1.42,10.11,-0.08,-0.03,-0.09
1971,1.84,-0.69,9.16,-0.08,-0.03,-0.09
1976,1.84,-0.69,9.16,-0.10,-0.05,-0.09
1980,1.84,-0.69,9.16,-0.10,-0.03,-0.11
1986,1.84,-0.69,9.16,-0.09,-0.00,-0.12
1991,1.84,-0.69,9.16,-0.08,0.04,-0.12
1996,1.84,-0.69,9.16,-0.09,0.07,-0.12
2001,1.84,-0.69,9.16,-0.09,0.05,-0.10
2006,0.88,-1.27,9.73,-0.09,0.05,-0.10
2011,0.88,-1.27,9.73,-0.10,-0.04,-0.12
2015,0.88,-1.27,9.73,-0.10,-0.08,-0.13
2021,0.88,-1.27,9.73,-0.10,-0.10,-0.12
2026,0.88,-1.27,9.73,-0.08,-0.08,-0.10
2031,0.88,-1.27,9.73,-0.09,-0.04,-0.10
2036,0.88,-1.27,9.73,-0.08,0.02,-0.11
2041,-0.46,-0.15,10.45,-0.08,0.02,-0.11
2046,-0.46,-0.15,10.45,-0.08,0.10,-0.17
2050,-0.46,-0.15,10.45,-0.08,0.10,-0.17
2056,-0.46,-0.15,10.45,-0.08,0.08,-0.17
2061,-0.46,-0.15,10.45,-0.09,0.04,-0.18
2066,-0.46,-0.15,10.45,-0.10,-0.01,-0.19
2070,-0.46,-0.15,10.45,-0.09,-0.04,-0.21
2076,-0.46,-0.15,10.45,-0.10,-0.06,-0.22
2081,-0.46,-0.15,10.45,-0.10,-0.05,-0.22
2085,-0.46,-0.15,10.45,-0.11,-0.03,-0.25
2091,0.57,-0.27,10.42,-0.11,-0.03,-0.25
2096,0.54,-0.15,10.23,-0.11,-0.03,-0.25
2101,0.54,-0.15,10.23,-0.12,0.03,-0.32
2106,0.54,-0.15,10.23,-0.11,0.03,-0.32
2111,0.54,-0.15,10.23,-0.11,0.03,-0.33
2116,0.54,-0.15,10.23,-0.12,0.02,-0.34
2121,0.54,-0.15,10.23,-0.13,0.00,-0.37
2126,-0.08,-0.46,9.61,-0.13,0.00,-0.37
2131,-0.08,-0.46,9.61,-0.12,0.04,-0.41
2136,-0.08,-0.46,9.61,-0.12,0.07,-0.41
2141,-0.08,-0.46,9.61,-0.11,0.07,-0.40
2146,0.27,0.04,9.92,-0.11,0.07,-0.40
2151,0.27,0.04,9.92,-0.09,0.03,-0.37
2156,2.45,-0.57,10.03,-0.09,0.03,-0.37
2161,2.45,-0.57,10.03,-0.11,-0.07,-0.36
2166,2.45,-0.57,10.03,-0.11,-0.08,-0.36
2170,2.45,-0.57,10.03,-0.09,-0.06,-0.36
2176,2.45,-0.57,10.03,-0.08,0.00,-0.36
2180,2.45,-0.57,10.03,-0.07,0.07,-0.35
2185,2.45,-0.57,10.03,-0.06,0.12,-0.33
2191,2.45,-0.57,10.03,-0.07,0.13,-0.33
2196,2.45,-0.57,10.03,-0.08,0.10,-0.33
2201,2.45,-0.57,10.03,-0.09,0.05,-0.35
2206,2.45,-0.57,10.03,-0.11,-0.00,-0.38
2211,2.45,-0.57,10.03,-0.13,-0.03,-0.40
2216,1.23,0.38,8.81,-0.13,-0.03,-0.40
2220,1.23,0.38,8.81,-0.11,-0.07,-0.37
2226,1.23,0.38,8.81,-0.11,-0.07,-0.34
2231,0.92,-0.04,10.77,-0.11,-0.07,-0.34
2236,0.92,-0.04,10.77,-0.11,-0.04,-0.35
2241,0.92,-0.04,10.77,-0.11,0.01,-0.36
2246,0.92,-0.04,10.77,-0.10,0.06,-0.37
2251,0.92,-0.04,10.77,-0.09,0.09,-0.36
2256,0.92,-0.04,10.77,-0.08,0.10,-0.34
2261,0.92,-0.04,10.77,-0.07,0.10,-0.31
2265,0.57,-1.23,9.93,-0.07,0.10,-0.31
2271,0.57,-1.23,9.93,-0.05,0.08,-0.29
2276,0.57,-1.23,9.93,-0.06,0.02,-0.27
2281,0.57,-1.23,9.93,-0.04,-0.01,-0.25
2286,0.57,-1.23,9.93,-0.04,-0.02,-0.24
2291,0.57,-1.23,9.93,-0.02,-0.02,-0.21
2296,0.57,-1.23,9.93,-0.01,-0.01,-0.18
2301,0.46,-1.99,9.61,-0.01,-0.01,-0.18
2306,0.46,-1.99,9.61,0.00,0.03,-0.16
2311,0.46,-1.99,9.61,0.01,0.07,-0.17
2316,0.46,-1.99,9.61,0.01,0.09,-0.17
2320,0.46,-1.99,9.61,0.01,0.08,-0.16
2325,0.46,-1.99,9.61,0.01,0.05,-0.14
2331,0.46,-1.99,9.61,0.03,0.01,-0.13
2336,0.46,-1.99,9.61,0.03,-0.01,-0.10
2341,0.46,-1.99,9.61,0.03,-0.03,-0.10
2346,0.46,-1.99,9.61,0.03,-0.03,-0.08
2351,0.77,-1.23,9.16,0.03,-0.03,-0.08
2355,0.77,-1.23,9.16,0.03,-0.02,-0.07
2360,0.77,-1.23,9.16,0.04,-0.01,-0.07
2366,0.77,-1.23,9.16,0.04,0.01,-0.07
2370,0.77,-1.23,9.16,0.04,0.04,-0.07
2376,0.77,-1.23,9.16,0.04,0.07,-0.07
2381,0.77,-1.23,9.16,0.04,0.08,-0.07
2386,1.42,-1.34,9.46,0.04,0.08,-0.07
2390,1.42,-1.34,9.46,0.04,0.03,-0.05
2396,1.42,-1.34,9.46,0.04,0.00,-0.05
2401,1.42,-1.34,9.46,0.04,-0.00,-0.04
2406,1.42,-1.34,9.46,0.04,0.01,-0.05
2410,1.42,-1.34,9.46,0.05,0.03,-0.04
2416,1.42,-1.34,9.46,0.05,0.06,-0.03
2421,-0.34,-0.65,9.27,0.05,0.06,-0.03
2426,-0.34,-0.34,7.97,0.05,0.06,-0.03
2430,-0.15,-0.96,8.16,0.05,0.06,-0.03
2436,-0.15,-0.96,8.16,0.05,0.00,-0.02
2440,-0.15,-0.96,8.16,0.05,-0.03,-0.01
2446,-0.15,-0.96,8.16,0.04,-0.06,0.00
2450,-0.15,-0.96,8.16,0.05,-0.07,0.01
2456,-0.15,-0.96,8.16,0.05,-0.06,0.02
2460,-0.15,-0.96,8.16,0.06,-0.04,0.02
2466,-0.15,-0.96,8.16,0.04,-0.02,0.02
2470,-0.15,-0.96,8.16,0.05,0.01,0.01
2476,0.77,-0.80,9.61,0.05,0.01,0.01
2480,0.77,-0.80,9.61,0.04,0.02,0.00
2486,0.77,-0.80,9.61,0.04,0.00,0.01
2491,0.77,-0.80,9.61,0.04,-0.01,0.01
2495,1.42,-1.34,10.53,0.04,-0.01,0.01
2500,1.42,-1.34,10.53,0.04,0.01,0.01
2506,1.42,-1.34,10.53,0.05,0.06,-0.00
2511,1.42,-1.34,10.53,0.06,0.09,-0.02
2515,-0.11,-0.92,9.23,0.06,0.09,-0.02
2520,-0.11,-0.92,9.23,0.04,0.10,-0.03
2526,0.34,-0.42,8.96,0.04,0.10,-0.03
2531,0.34,-0.42,8.96,0.02,0.02,-0.05
2535,0.92,-0.42,9.46,0.02,0.02,-0.05
2541,0.92,-0.42,9.46,0.02,-0.03,-0.08
2546,0.92,-0.42,9.46,0.00,-0.04,-0.08
2550,0.15,-0.23,9.20,0.00,-0.04,-0.08
2555,0.15,-0.23,9.20,-0.01,-0.02,-0.12
2561,0.73,-0.19,9.54,-0.01,-0.02,-0.12
2567,0.73,-0.19,9.54,-0.02,0.01,-0.16
2570,1.53,-0.38,9.96,-0.02,0.01,-0.16
2576,2.03,-0.42,9.50,-0.02,0.01,-0.16
2581,2.03,-0.42,9.50,-0.02,0.00,-0.20
2586,2.03,-0.42,9.50,-0.02,0.02,-0.21
2590,2.03,-0.42,9.50,-0.01,0.04,-0.21
2596,2.03,-0.42,9.50,-0.00,0.06,-0.22
2601,2.03,-0.42,9.50,0.01,0.08,-0.23
2605,0.50,-0.73,9.30,0.01,0.08,-0.23
2611,0.50,-0.73,9.30,0.00,0.08,-0.24
2616,0.50,-0.73,9.30,-0.01,0.06,-0.25
2621,0.50,-0.73,9.30,-0.01,0.03,-0.26
2626,1.57,-0.54,9.08,-0.01,0.03,-0.26
2631,0.73,0.08,8.74,-0.01,0.03,-0.26
2636,0.46,0.15,8.58,-0.01,0.03,-0.26
2641,0.46,0.15,8.58,-0.02,0.03,-0.27
2646,0.46,0.15,8.58,-0.03,0.04,-0.28
2651,0.88,0.11,10.65,-0.03,0.04,-0.28
2655,1.04,-0.38,10.49,-0.03,0.04,-0.28
2661,1.04,-0.38,10.49,-0.02,0.02,-0.27
2666,1.04,-0.38,10.49,-0.02,0.03,-0.28
2670,1.15,-0.30,8.50,-0.02,0.03,-0.28
2676,1.15,-0.30,8.50,-0.04,0.03,-0.27
2681,1.15,-0.30,8.50,-0.03,0.02,-0.28
2685,1.91,-0.65,10.42,-0.03,0.02,-0.28
2690,1.38,-0.08,10.41,-0.03,0.02,-0.28
2696,1.38,-0.08,10.41,-0.04,-0.01,-0.31
2701,1.38,-0.08,10.41,-0.03,0.04,-0.32
2706,-0.27,-0.23,9.27,-0.03,0.04,-0.32
2710,0.15,-0.42,9.27,-0.03,0.04,-0.32
2716,0.15,-0.42,9.27,-0.03,0.12,-0.33
2721,0.15,-0.42,9.27,-0.04,0.06,-0.34
2725,1.53,-1.38,9.23,-0.04,0.06,-0.34
2730,1.53,-1.27,9.89,-0.04,0.06,-0.34
2736,1.04,-1.15,9.54,-0.04,0.06,-0.34
2741,1.04,-1.15,9.54,-0.03,-0.02,-0.33
2746,0.92,-0.73,9.89,-0.03,-0.02,-0.33
2751,0.30,-0.50,10.61,-0.03,-0.02,-0.33
2755,0.11,-0.80,10.04,-0.03,-0.02,-0.33
2760,0.11,-0.80,10.04,0.02,0.07,-0.28
2766,0.11,-0.80,10.04,0.02,0.10,-0.28
2771,0.11,-0.80,10.04,0.02,0.11,-0.27
2776,0.65,-1.23,9.77,0.02,0.11,-0.27
2780,0.57,-1.46,9.16,0.02,0.11,-0.27
2785,0.57,-1.46,9.16,0.01,0.02,-0.21
2791,0.57,-1.46,9.16,0.02,-0.02,-0.21
2795,0.57,-1.46,9.16,0.02,-0.04,-0.20
2801,0.57,-1.46,9.16,0.03,-0.05,-0.17
2806,0.57,-1.46,9.16,0.06,-0.02,-0.14
2811,0.19,-1.23,9.46,0.06,-0.02,-0.14
2816,0.54,-1.04,9.65,0.06,-0.02,-0.14
2821,0.54,-1.04,9.65,0.07,0.07,-0.07
2826,0.54,-1.04,9.65,0.08,0.07,-0.05
2831,0.54,-1.04,9.65,0.09,0.06,-0.04
2836,0.54,-1.04,9.65,0.09,0.02,-0.02
2841,0.80,-2.30,9.50,0.09,0.02,-0.02
2845,0.19,-1.95,8.66,0.09,0.02,-0.02
2851,0.19,-1.95,8.66,0.10,-0.05,0.09
2856,0.19,-1.95,8.66,0.11,-0.05,0.11
2861,0.19,-1.95,8.66,0.11,-0.04,0.12
2865,1.11,-1.88,9.73,0.11,-0.04,0.12
2870,1.04,-2.18,9.27,0.11,-0.04,0.12
2876,1.04,-2.18,9.27,0.13,-0.02,0.20
2881,1.04,-2.18,9.27,0.14,0.01,0.22
2886,0.57,-1.46,9.54,0.14,0.01,0.22
2890,0.27,-2.14,9.61,0.14,0.01,0.22
2895,-0.27,-1.84,9.04,0.14,0.01,0.22
2901,-0.27,-1.84,9.04,0.15,0.01,0.29
2906,-0.27,-1.84,9.04,0.17,-0.03,0.31
2911,1.27,-2.34,9.30,0.17,-0.03,0.31
2915,1.61,-2.61,9.50,0.17,-0.03,0.31
2921,1.61,-2.61,9.50,0.17,-0.10,0.37
2926,1.61,-2.61,9.50,0.18,-0.09,0.37
2931,0.69,-2.30,9.96,0.18,-0.09,0.37
2935,1.53,-2.53,10.39,0.18,-0.09,0.37
2941,1.53,-2.53,10.39,0.20,-0.03,0.37
2945,0.65,-1.99,10.23,0.20,-0.03,0.37
2950,1.00,-1.84,9.61,0.20,-0.03,0.37
2955,0.50,-1.72,9.35,0.20,-0.03,0.37
2961,0.50,-1.72,9.35,0.20,0.01,0.36
2965,0.08,-1.46,8.50,0.20,0.01,0.36
2970,0.69,-1.34,9.38,0.20,0.01,0.36
2976,0.69,-1.34,9.38,0.17,-0.03,0.32
2980,0.50,-1.19,9.12,0.17,-0.03,0.32
2985,1.00,-1.38,9.65,0.17,-0.03,0.32
2990,1.00,-1.38,9.65,0.15,-0.09,0.29
2996,1.00,-1.38,9.65,0.15,-0.07,0.29
3001,-0.38,-0.65,9.46,0.15,-0.07,0.29
3005,-0.08,-0.50,9.80,0.15,-0.07,0.29
3011,0.50,-1.00,9.65,0.15,-0.07,0.29
3015,0.46,-0.69,9.46,0.15,-0.07,0.29
3020,0.46,-0.69,9.46,0.15,-0.01,0.24
3026,0.46,-0.69,9.46,0.13,-0.02,0.22
3030,0.57,-0.46,9.50,0.13,-0.02,0.22
3035,0.50,-0.34,10.00,0.13,-0.02,0.22
3041,0.50,-0.34,10.00,0.11,-0.04,0.19
3046,0.50,-0.34,10.00,0.11,-0.04,0.17
3050,0.88,-0.15,10.27,0.11,-0.04,0.17
3055,0.34,0.08,9.54,0.11,-0.04,0.17
3061,1.38,-0.27,10.23,0.11,-0.04,0.17
3065,0.57,-0.08,9.58,0.11,-0.04,0.17
3070,0.80,-0.04,10.15,0.11,-0.04,0.17
3076,-0.30,0.30,9.54,0.11,-0.04,0.17
3080,-0.30,0.30,9.54,0.07,0.03,0.12
3085,-0.30,0.30,9.54,0.08,0.02,0.12
3090,-0.30,0.30,9.54,0.07,0.01,0.12
3096,-0.30,0.30,9.54,0.07,-0.01,0.13
3100,-0.15,0.08,9.42,0.07,-0.01,0.13
3105,0.15,0.15,9.04,0.07,-0.01,0.13
3110,0.30,-0.23,9.27,0.07,-0.01,0.13
3115,0.65,0.15,9.00,0.07,-0.01,0.13
3120,0.65,0.15,9.00,0.06,-0.05,0.14
3126,0.65,0.15,9.00,0.06,-0.05,0.14
3131,0.65,0.15,9.00,0.06,-0.06,0.15
3135,1.07,-0.54,9.88,0.06,-0.06,0.15
3141,0.38,-0.04,10.11,0.06,-0.06,0.15
3146,0.34,-0.42,9.69,0.06,-0.06,0.15
3150,-0.08,-0.34,9.89,0.06,-0.06,0.15
3155,0.04,-0.61,9.92,0.06,-0.06,0.15
3162,0.04,-0.61,9.92,0.04,0.05,0.10
3166,0.04,-0.61,9.92,0.02,0.04,0.10
3170,0.46,-0.61,9.08,0.02,0.04,0.10
3175,0.92,-1.04,9.23,0.02,0.04,0.10
3181,0.15,-0.30,8.96,0.02,0.04,0.10
3185,0.46,-0.57,9.27,0.02,0.04,0.10
3190,0.00,-0.42,9.08,0.02,0.04,0.10
3197,0.00,-0.42,9.08,0.02,-0.02,0.08
3201,0.00,-0.42,9.08,0.03,-0.01,0.07
3205,0.11,-0.19,9.54,0.03,-0.01,0.07
3210,-0.08,-0.50,9.80,0.03,-0.01,0.07
3216,0.46,-0.96,9.73,0.03,-0.01,0.07
3220,0.80,-1.15,9.77,0.03,-0.01,0.07
3225,0.80,-0.92,8.84,0.03,-0.01,0.07
3231,0.19,-0.80,9.50,0.03,-0.01,0.07
3236,1.11,-1.23,9.16,0.03,-0.01,0.07
3240,0.42,-0.69,9.69,0.03,-0.01,0.07
3245,1.00,-0.77,9.50,0.03,-0.01,0.07
3251,0.34,-0.34,10.00,0.03,-0.01,0.07
3255,0.54,-0.30,9.73,0.03,-0.01,0.07
3260,0.34,-0.30,10.15,0.03,-0.01,0.07
3265,1.00,-0.54,9.80,0.03,-0.01,0.07
3271,1.00,-0.54,9.80,-0.01,0.04,-0.10
3275,0.61,-0.46,9.23,-0.01,0.04,-0.10
3280,0.77,-0.42,9.58,-0.01,0.04,-0.10
3286,0.77,-0.50,9.08,-0.01,0.04,-0.10
3290,0.73,-0.46,9.58,-0.01,0.04,-0.10
3295,0.61,-0.54,9.30,-0.01,0.04,-0.10
3300,0.34,-0.38,9.42,-0.01,0.04,-0.10
3306,0.34,-0.38,9.42,-0.01,-0.00,-0.04
3310,0.61,-0.42,10.19,-0.01,-0.00,-0.04
3315,0.57,-0.38,9.96,-0.01,-0.00,-0.04
3321,0.69,-0.50,9.34,-0.01,-0.00,-0.04
3326,0.61,-0.54,9.20,-0.01,-0.00,-0.04
3331,0.61,-0.54,9.20,0.00,-0.01,0.03
3335,0.80,-0.96,8.82,0.00,-0.01,0.03
3340,0.08,-0.57,9.08,0.00,-0.01,0.03
3345,0.23,-1.00,9.27,0.00,-0.01,0.03
3350,0.61,-1.00,9.00,0.00,-0.01,0.03
3356,-0.23,-0.77,9.54,0.00,-0.01,0.03
3361,0.61,-0.88,9.54,0.00,-0.01,0.03
3365,0.61,-0.88,9.54,0.02,-0.03,0.11
3370,0.61,-0.88,9.54,0.03,-0.03,0.12
3375,0.54,-1.15,9.69,0.03,-0.03,0.12
3380,0.77,-1.23,9.69,0.03,-0.03,0.12
3386,0.50,-1.19,9.42,0.03,-0.03,0.12
3391,0.50,-1.34,9.39,0.03,-0.03,0.12
3396,0.38,-1.34,9.30,0.03,-0.03,0.12
3400,0.19,-1.38,10.00,0.03,-0.03,0.12
3406,0.61,-1.46,9.35,0.03,-0.03,0.12
3411,0.61,-1.65,10.04,0.03,-0.03,0.12
3415,0.61,-1.65,10.04,0.06,-0.04,0.25
3420,0.96,-1.49,10.31,0.06,-0.04,0.25
3425,1.30,-1.38,9.65,0.06,-0.04,0.25
3431,0.30,-1.34,10.15,0.06,-0.04,0.25
3435,0.30,-1.34,10.15,0.07,-0.02,0.28
3440,0.65,-1.38,9.85,0.07,-0.02,0.28
3445,0.34,-1.34,9.96,0.07,-0.02,0.28
3452,0.34,-1.34,9.96,0.07,-0.01,0.28
3457,0.04,-1.23,9.80,0.07,-0.01,0.28
3460,0.19,-1.07,9.04,0.07,-0.01,0.28
3465,-0.34,-1.11,9.12,0.07,-0.01,0.28
3472,0.27,-1.19,9.23,0.07,-0.01,0.28
3475,-0.11,-1.23,9.35,0.07,-0.01,0.28
3480,0.34,-1.30,9.46,0.07,-0.01,0.28
3485,0.34,-1.15,9.27,0.07,-0.01,0.28
3490,0.00,-1.15,9.46,0.07,-0.01,0.28
3496,0.27,-1.23,9.80,0.07,-0.01,0.28
3501,-0.38,-0.88,9.42,0.07,-0.01,0.28
3506,-0.38,-0.88,9.42,0.09,-0.01,0.28
3510,0.38,-0.80,9.38,0.09,-0.01,0.28
3516,0.38,-0.80,9.38,0.09,-0.03,0.27
3521,0.61,-0.69,9.61,0.09,-0.03,0.27
3525,-0.08,-0.38,9.50,0.09,-0.03,0.27
3531,0.15,-0.57,9.08,0.09,-0.03,0.27
3535,-0.04,-0.42,9.61,0.09,-0.03,0.27
3540,0.08,-0.38,9.73,0.09,-0.03,0.27
3546,-0.11,-0.04,9.58,0.09,-0.03,0.27
3551,0.30,-0.19,10.30,0.09,-0.03,0.27
3555,0.30,-0.19,10.30,0.05,-0.02,0.21
3560,0.34,0.19,9.84,0.05,-0.02,0.21
3565,0.34,-0.08,9.30,0.05,-0.02,0.21
3570,0.73,-0.23,9.46,0.05,-0.02,0.21
3575,0.15,0.11,9.39,0.05,-0.02,0.21
3581,0.27,0.08,9.30,0.05,-0.02,0.21
3587,0.42,0.00,9.31,0.05,-0.02,0.21
3590,0.42,0.00,9.31,0.02,-0.02,0.18
3595,0.57,0.30,9.92,0.02,-0.02,0.18
3600,0.65,0.04,9.92,0.02,-0.02,0.18
3606,0.84,0.11,9.58,0.02,-0.02,0.18
3610,0.54,0.38,9.54,0.02,-0.02,0.18
3616,0.42,0.00,9.61,0.02,-0.02,0.18
3621,0.46,0.04,9.12,0.02,-0.02,0.18
3625,0.46,0.04,9.12,-0.00,0.02,0.11
3631,0.46,0.04,9.12,-0.01,0.01,0.10
3635,0.19,-0.27,9.58,-0.01,0.01,0.10
3640,0.19,-0.11,9.73,-0.01,0.01,0.10
3647,0.27,-0.46,9.39,-0.01,0.01,0.10
3650,0.11,-0.08,9.89,-0.01,0.01,0.10
3655,0.46,-0.27,9.65,-0.01,0.01,0.10
3660,0.54,-0.38,9.77,-0.01,0.01,0.10
3666,0.61,-0.30,10.42,-0.01,0.01,0.10
3671,0.46,-0.50,9.42,-0.01,0.01,0.10
3675,0.46,-0.50,9.42,-0.03,0.04,-0.00
3681,-0.19,-0.34,9.20,-0.03,0.04,-0.00
3685,-0.34,-0.30,9.54,-0.03,0.04,-0.00
3690,-0.61,-0.11,9.58,-0.03,0.04,-0.00
3697,-0.69,-0.38,9.34,-0.03,0.04,-0.00
3700,-0.30,-0.15,9.81,-0.03,0.04,-0.00
3705,-0.50,-0.11,9.69,-0.03,0.04,-0.00
3712,-0.42,-0.08,9.43,-0.03,0.04,-0.00
3715,-0.77,0.23,9.73,-0.03,0.04,-0.00
3720,-0.88,-0.04,9.35,-0.03,0.04,-0.00
3725,-0.88,-0.11,9.69,-0.03,0.04,-0.00
3731,-0.92,-0.08,9.65,-0.03,0.04,-0.00
3737,-1.04,-0.19,9.23,-0.03,0.04,-0.00
3742,-1.04,0.19,9.38,-0.03,0.04,-0.00
3745,-1.04,0.19,9.38,-0.05,0.01,-0.03
3751,-1.04,0.19,9.38,-0.05,0.01,-0.04
3756,-0.42,0.00,9.54,-0.05,0.01,-0.04
3760,-0.42,0.00,9.54,-0.05,0.02,-0.04
3765,-0.42,0.00,9.54,-0.05,0.03,-0.04
3770,-0.88,-0.15,9.92,-0.05,0.03,-0.04
3775,-1.04,0.08,9.42,-0.05,0.03,-0.04
3782,-1.04,-0.11,9.61,-0.05,0.03,-0.04
3785,-0.84,-0.08,9.54,-0.05,0.03,-0.04
3790,-0.84,0.00,9.35,-0.05,0.03,-0.04
3797,-1.27,-0.11,9.38,-0.05,0.03,-0.04
3800,-1.27,-0.11,9.38,-0.06,0.03,-0.06
3805,-0.96,-0.19,9.38,-0.06,0.03,-0.06
3810,-0.73,0.08,9.35,-0.06,0.03,-0.06
3817,-0.73,-0.23,9.31,-0.06,0.03,-0.06
3820,-0.77,-0.19,9.08,-0.06,0.03,-0.06
3825,-0.30,0.19,9.42,-0.06,0.03,-0.06
3831,-0.19,0.11,9.69,-0.06,0.03,-0.06
3836,0.15,0.34,9.65,-0.06,0.03,-0.06
3840,-0.04,-0.30,9.93,-0.06,0.03,-0.06
3847,-0.30,-0.30,9.46,-0.06,0.03,-0.06
3850,-0.30,-0.30,9.46,-0.08,0.04,-0.12
3855,-0.08,-0.04,9.50,-0.08,0.04,-0.12
3860,-0.11,0.08,9.23,-0.08,0.04,-0.12
3866,0.69,0.00,9.43,-0.08,0.04,-0.12
3870,0.69,0.00,9.43,-0.09,0.03,-0.16
3875,0.23,-0.08,9.23,-0.09,0.03,-0.16
3882,0.08,-0.30,9.50,-0.09,0.03,-0.16
3885,0.08,-0.30,9.50,-0.09,0.03,-0.19
3890,0.08,-0.30,9.50,-0.09,0.02,-0.19
3897,0.38,-0.34,9.96,-0.09,0.02,-0.19
3900,0.38,-0.34,9.96,-0.10,0.01,-0.22
3905,0.61,-0.30,10.04,-0.10,0.01,-0.22
3910,0.50,-0.42,9.96,-0.10,0.01,-0.22
3917,0.54,-0.19,9.58,-0.10,0.01,-0.22
3920,0.54,-0.19,9.58,-0.10,0.06,-0.28
3925,0.46,-0.23,9.34,-0.10,0.06,-0.28
3932,0.69,-0.42,9.50,-0.10,0.06,-0.28
3935,0.69,-0.42,9.50,-0.10,0.05,-0.31
3941,0.19,-0.23,9.20,-0.10,0.05,-0.31
3946,0.04,-0.11,9.39,-0.10,0.05,-0.31
3950,0.04,-0.11,9.39,-0.10,0.04,-0.36
3955,0.04,-0.11,9.39,-0.10,0.04,-0.38
3961,0.30,-0.11,9.88,-0.10,0.04,-0.38
3967,0.38,-0.19,9.46,-0.10,0.04,-0.38
3970,0.38,-0.19,9.46,-0.10,0.01,-0.40
3976,0.46,-0.38,9.58,-0.10,0.01,-0.40
3982,0.61,-0.08,9.35,-0.10,0.01,-0.40
3985,0.61,-0.08,9.35,-0.10,0.04,-0.42
3990,0.61,-0.08,9.35,-0.10,0.05,-0.43
3995,0.08,-0.38,9.27,-0.10,0.05,-0.43
4002,0.11,-0.50,9.50,-0.10,0.05,-0.43
4005,0.11,-0.50,9.50,-0.11,0.03,-0.47
4010,0.11,-0.50,9.50,-0.11,0.02,-0.48
4015,0.11,-0.50,9.50,-0.11,0.01,-0.48
4020,0.08,-0.57,9.58,-0.11,0.01,-0.48
4026,0.57,-0.50,9.84,-0.11,0.01,-0.48
4031,-0.08,-0.50,9.58,-0.11,0.01,-0.48
4037,0.34,-1.07,9.61,-0.11,0.01,-0.48
4040,0.34,-1.07,9.61,-0.09,0.04,-0.49
4045,-0.46,-0.50,9.04,-0.09,0.04,-0.49
4050,-0.19,-0.65,9.50,-0.09,0.04,-0.49
4057,-0.19,-1.00,9.54,-0.09,0.04,-0.49
4061,-0.19,-1.00,9.54,-0.08,0.04,-0.49
4065,-0.23,-0.84,9.77,-0.08,0.04,-0.49
4070,-0.46,-0.54,9.73,-0.08,0.04,-0.49
4077,-0.61,-0.73,9.27,-0.08,0.04,-0.49
4081,-0.08,-0.84,9.50,-0.08,0.04,-0.49
4086,-0.77,-1.19,9.23,-0.08,0.04,-0.49
4090,-0.77,-1.19,9.23,-0.07,0.03,-0.46
4096,-0.77,-1.19,9.23,-0.07,0.03,-0.45
4102,-1.07,-1.07,9.35,-0.07,0.03,-0.45
4105,-1.07,-1.07,9.35,-0.05,0.05,-0.44
4110,-1.07,-1.07,9.35,-0.05,0.04,-0.41
4115,-1.07,-1.04,9.27,-0.05,0.04,-0.41
4122,-0.88,-1.15,9.38,-0.05,0.04,-0.41
4125,-0.88,-1.15,9.38,-0.03,0.02,-0.35
4131,-0.88,-1.15,9.38,-0.01,0.02,-0.31
4137,-0.61,-1.34,9.46,-0.01,0.02,-0.31
4140,-0.61,-1.34,9.46,-0.00,0.01,-0.27
4146,-0.61,-1.34,9.46,0.00,0.02,-0.23
4151,-0.61,-1.34,9.46,0.02,0.02,-0.20
4157,-1.19,-1.30,9.43,0.02,0.02,-0.20
4160,-1.19,-1.30,9.43,0.04,0.02,-0.15
4165,-0.84,-1.27,9.93,0.04,0.02,-0.15
4170,-1.00,-1.15,9.81,0.04,0.02,-0.15
4177,-0.34,-1.46,9.89,0.04,0.02,-0.15
4181,-0.34,-1.46,9.89,0.06,-0.02,-0.04
4185,-0.42,-1.91,10.00,0.06,-0.02,-0.04
4190,-0.27,-1.72,10.19,0.06,-0.02,-0.04
4197,-0.42,-1.88,10.00,0.06,-0.02,-0.04
4201,-0.88,-1.72,9.39,0.06,-0.02,-0.04
4206,-1.04,-1.61,9.58,0.06,-0.02,-0.04
4210,-1.04,-1.61,9.58,0.12,0.03,0.13
4216,-1.04,-1.61,9.58,0.14,0.03,0.16
4221,-0.65,-1.65,9.46,0.14,0.03,0.16
4227,-1.27,-1.68,8.74,0.14,0.03,0.16
4231,-1.27,-1.68,8.74,0.15,-0.03,0.22
4236,-0.69,-1.68,9.23,0.15,-0.03,0.22
4242,-1.00,-1.53,9.16,0.15,-0.03,0.22
4245,-1.00,-1.53,9.16,0.15,-0.05,0.28
4251,-1.00,-1.53,9.16,0.16,-0.04,0.29
4257,-0.57,-1.34,9.69,0.16,-0.04,0.29
4260,-0.57,-1.34,9.69,0.17,-0.01,0.32
4265,-0.57,-1.34,9.69,0.18,0.01,0.33
4271,-0.57,-1.34,9.69,0.18,0.02,0.34
4277,-0.77,-1.11,9.42,0.18,0.02,0.34
4281,-0.77,-1.11,9.42,0.20,0.01,0.37
4285,-0.77,-1.11,9.42,0.19,-0.00,0.38
4290,-0.77,-1.11,9.42,0.21,-0.02,0.40
4297,-0.69,-1.04,9.27,0.21,-0.02,0.40
4300,-0.69,-1.04,9.27,0.20,-0.04,0.44
4305,-0.19,-0.73,9.65,0.20,-0.04,0.44
4312,-0.30,-0.77,9.58,0.20,-0.04,0.44
4315,-0.30,-0.77,9.58,0.20,-0.04,0.48
4321,-0.84,-0.50,9.16,0.20,-0.04,0.48
4327,-0.92,-0.61,9.20,0.20,-0.04,0.48
4331,-0.92,-0.61,9.20,0.20,-0.02,0.50
4335,-0.92,-0.61,9.20,0.18,-0.03,0.51
4341,-0.23,-0.77,9.58,0.18,-0.03,0.51
4347,0.04,-0.88,9.50,0.18,-0.03,0.51
4351,0.04,-0.88,9.50,0.18,-0.07,0.53
4356,0.04,-0.88,9.50,0.17,-0.07,0.53
4362,0.00,-0.65,9.85,0.17,-0.07,0.53
4365,0.00,-0.65,9.85,0.18,-0.05,0.53
4370,0.00,-0.65,9.85,0.18,-0.04,0.54
4376,-0.54,-0.80,9.43,0.18,-0.04,0.54
4382,-0.61,-0.80,9.34,0.18,-0.04,0.54
4385,-0.61,-0.80,9.34,0.19,-0.01,0.55
4391,-0.61,-0.80,9.34,0.19,-0.02,0.55
4397,-0.27,-0.92,9.30,0.19,-0.02,0.55
4400,-0.27,-0.92,9.30,0.18,-0.04,0.55
4405,-0.27,-0.92,9.30,0.17,-0.06,0.55
4411,-0.27,-0.92,9.30,0.17,-0.06,0.55
4417,-0.19,-0.69,9.39,0.17,-0.06,0.55
4421,-0.19,-0.69,9.39,0.17,-0.06,0.54
4426,-0.19,-0.69,9.39,0.17,-0.05,0.53
4432,-0.57,-0.73,9.50,0.17,-0.05,0.53
4436,-0.57,-0.73,9.50,0.17,-0.03,0.52
4442,-0.57,-0.73,9.50,0.17,-0.03,0.51
4447,-0.57,-0.30,9.77,0.17,-0.03,0.51
4450,-0.57,-0.30,9.77,0.16,-0.04,0.50
4455,-0.57,-0.30,9.77,0.15,-0.05,0.50
4461,0.11,-0.38,9.23,0.15,-0.05,0.50
4467,0.08,-0.23,9.23,0.15,-0.05,0.50
4471,0.08,-0.23,9.23,0.14,-0.07,0.48
4475,0.08,-0.23,9.23,0.14,-0.06,0.47
4481,-0.19,-0.27,9.65,0.14,-0.06,0.47
4487,-0.30,0.11,9.96,0.14,-0.06,0.47
4491,-0.30,0.11,9.96,0.12,-0.03,0.40
4496,-0.30,0.11,9.96,0.11,-0.02,0.38
4502,-0.30,0.23,9.85,0.11,-0.02,0.38
4505,-0.30,0.23,9.85,0.10,-0.02,0.35
4511,-0.30,0.23,9.85,0.09,-0.03,0.33
4517,-0.50,0.04,9.46,0.09,-0.03,0.33
4520,-0.50,0.04,9.46,0.09,-0.01,0.30
4525,-0.50,0.04,9.46,0.08,-0.01,0.29
4531,-0.50,0.04,9.46,0.09,-0.01,0.28
4537,-0.92,0.42,9.16,0.09,-0.01,0.28
4541,-0.92,0.42,9.16,0.07,-0.02,0.25
4545,-0.92,0.42,9.16,0.08,-0.01,0.26
4550,-0.92,0.42,9.16,0.06,-0.02,0.26
4557,-0.08,0.11,9.73,0.06,-0.02,0.26
4561,-0.08,0.11,9.73,0.04,-0.04,0.26
4566,-0.08,0.11,9.73,0.05,-0.03,0.25
4572,0.08,0.27,9.50,0.05,-0.03,0.25
4576,0.08,0.27,9.50,0.05,-0.02,0.28
4581,0.08,0.27,9.50,0.05,0.00,0.28
4587,-0.69,0.15,9.50,0.05,0.00,0.28
4591,-0.69,0.15,9.50,0.05,0.02,0.30
4596,-0.69,0.15,9.50,0.05,0.01,0.30
4602,-0.65,-0.50,9.12,0.05,0.01,0.30
4605,-0.65,-0.50,9.12,0.05,-0.01,0.32
4610,-0.65,-0.50,9.12,0.05,-0.03,0.32
4617,-0.19,-0.80,9.58,0.05,-0.03,0.32
4622,-0.30,-0.92,9.46,0.05,-0.03,0.32
4626,-0.30,-0.92,9.46,0.05,-0.04,0.36
4631,-0.30,-0.92,9.46,0.05,-0.03,0.36
4637,-0.38,-1.07,9.65,0.05,-0.03,0.36
4640,-0.38,-1.07,9.65,0.06,-0.01,0.38
4645,-0.38,-1.07,9.65,0.07,0.00,0.40
4651,-0.38,-1.07,9.65,0.07,0.00,0.41
4657,-0.34,-1.00,9.58,0.07,0.00,0.41
4661,-0.34,-1.00,9.58,0.08,0.00,0.43
4665,-0.34,-1.00,9.58,0.09,-0.00,0.45
4671,-0.34,-1.00,9.58,0.08,-0.01,0.45
4677,-0.50,-0.92,9.35,0.08,-0.01,0.45
4681,-0.50,-0.92,9.35,0.09,-0.03,0.48
4686,-0.50,-0.92,9.35,0.09,-0.04,0.49
4692,-0.50,-0.80,9.38,0.09,-0.04,0.49
4696,-0.50,-0.80,9.38,0.10,-0.02,0.51
4701,-0.50,-0.80,9.38,0.10,-0.03,0.50
4707,-0.30,-0.77,9.50,0.10,-0.03,0.50
4711,-0.30,-0.77,9.50,0.10,-0.02,0.50
4716,-0.30,-0.77,9.50,0.09,-0.03,0.51
4721,-0.77,-0.69,9.12,0.09,-0.03,0.51
4727,-0.30,-0.69,9.42,0.09,-0.03,0.51
4731,-0.30,-0.69,9.42,0.09,-0.04,0.50
4736,-0.30,-0.69,9.42,0.10,-0.04,0.49
4742,-0.30,-0.34,9.54,0.10,-0.04,0.49
4745,-0.30,-0.34,9.54,0.10,-0.04,0.47
4751,-0.30,-0.34,9.54,0.09,-0.03,0.46
4756,-0.38,-0.19,9.61,0.09,-0.03,0.46
4762,-0.38,-0.08,9.69,0.09,-0.03,0.46
4765,-0.38,-0.08,9.69,0.08,-0.01,0.42
4771,-0.38,-0.08,9.69,0.08,-0.01,0.40
4777,-0.54,0.23,9.58,0.08,-0.01,0.40
4781,-0.54,0.23,9.58,0.07,-0.01,0.37
4786,-0.54,0.23,9.58,0.06,-0.02,0.36
4792,-0.54,0.23,9.58,0.05,-0.02,0.34
4795,-0.54,0.23,9.58,0.04,-0.01,0.31
4801,-0.54,0.23,9.58,0.04,-0.02,0.29
4806,-0.54,0.23,9.58,0.03,-0.02,0.27
4812,-0.54,0.84,9.35,0.03,-0.02,0.27
4816,-0.54,0.84,9.35,0.01,-0.01,0.24
4821,-0.54,0.84,9.35,0.01,-0.01,0.22
4825,-0.69,0.88,9.34,0.01,-0.01,0.22
4830,-0.27,0.96,9.58,0.01,-0.01,0.22
4835,-0.27,0.96,9.58,0.00,-0.01,0.20
4841,-0.27,0.96,9.58,-0.02,-0.02,0.18
4847,-0.15,0.92,9.30,-0.02,-0.02,0.18
4850,-0.15,0.92,9.30,-0.02,-0.01,0.18
4856,-0.15,0.92,9.30,-0.03,-0.01,0.18
4862,-0.11,0.38,10.07,-0.03,-0.01,0.18
4865,-0.11,0.38,10.07,-0.02,0.01,0.18
4871,-0.11,0.38,10.07,-0.02,0.02,0.18
4876,-0.11,0.38,10.07,-0.03,0.01,0.18
4882,-0.19,-0.08,9.61,-0.03,0.01,0.18
4886,-0.19,-0.08,9.61,-0.03,-0.01,0.18
4891,-0.19,-0.08,9.61,-0.03,-0.02,0.18
4897,0.00,-0.19,9.69,-0.03,-0.02,0.18
4901,0.00,-0.19,9.69,-0.04,-0.01,0.19
4906,0.00,-0.19,9.69,-0.03,0.00,0.19
4911,0.00,-0.19,9.69,-0.02,0.01,0.19
4917,-0.30,-0.69,9.50,-0.02,0.01,0.19
4921,-0.30,-0.69,9.50,-0.02,0.01,0.19
4925,-0.30,-0.69,9.50,-0.02,-0.00,0.20
4830,-0.27,0.96,9.58,0.01,-0.01,0.22
4835,-0.27,0.96,9.58,0.00,-0.01,0.20
4841,-0.27,0.96,9.58,-0.02,-0.02,0.18
4847,-0.15,0.92,9.30,-0.02,-0.02,0.18
4850,-0.15,0.92,9.30,-0.02,-0.01,0.18
4856,-0.15,0.92,9.30,-0.03,-0.01,0.18
4862,-0.11,0.38,10.07,-0.03,-0.01,0.18
4865,-0.11,0.38,10.07,-0.02,0.01,0.18
4871,-0.11,0.38,10.07,-0.02,0.02,0.18
4876,-0.11,0.38,10.07,-0.03,0.01,0.18
4882,-0.19,-0.08,9.61,-0.03,0.01,0.18
4886,-0.19,-0.08,9.61,-0.03,-0.01,0.18
4891,-0.19,-0.08,9.61,-0.03,-0.02,0.18
4897,0.00,-0.19,9.69,-0.03,-0.02,0.18
4901,0.00,-0.19,9.69,-0.04,-0.01,0.19
