timestamp,accX,accY,accZ,gyroX,gyroY,gyroZ
Right
6,-1.57,-1.07,9.34,0.06,0.08,-0.17
19,-1.57,-1.07,9.34,0.05,0.05,-0.19
20,0.80,-0.69,10.84,0.05,0.05,-0.19
21,0.80,-0.69,10.84,-0.01,0.00,-0.05
25,0.19,-0.80,10.23,-0.01,0.00,-0.05
30,-0.23,-0.46,9.93,-0.01,0.00,-0.05
36,-0.23,-0.46,9.93,0.00,0.04,-0.09
42,-2.49,0.04,8.73,0.00,0.04,-0.09
46,-2.07,0.84,8.39,0.00,0.04,-0.09
51,-1.00,0.69,9.27,0.00,0.04,-0.09
56,-0.38,0.88,8.81,0.00,0.04,-0.09
61,-0.19,1.61,9.35,0.00,0.04,-0.09
66,0.04,0.42,10.11,0.00,0.04,-0.09
71,0.69,-1.11,10.39,0.00,0.04,-0.09
76,0.69,-1.11,10.39,-0.00,-0.10,-0.03
81,0.73,-1.46,9.35,-0.00,-0.10,-0.03
86,0.08,-0.92,7.63,-0.00,-0.10,-0.03
91,-0.84,0.04,7.47,-0.00,-0.10,-0.03
97,-2.38,1.84,6.62,-0.00,-0.10,-0.03
101,-1.95,1.65,7.86,-0.00,-0.10,-0.03
106,-0.96,1.38,8.20,-0.00,-0.10,-0.03
112,-0.69,1.34,9.43,-0.00,-0.10,-0.03
116,0.23,-0.30,11.72,-0.00,-0.10,-0.03
121,2.11,-1.53,12.38,-0.00,-0.10,-0.03
126,1.38,-1.49,12.02,-0.00,-0.10,-0.03
131,1.46,-2.68,12.22,-0.00,-0.10,-0.03
136,1.30,-1.91,10.91,-0.00,-0.10,-0.03
141,0.57,-0.84,9.08,-0.00,-0.10,-0.03
146,0.57,-0.84,9.08,0.07,-0.01,0.16
151,0.57,-0.84,9.08,0.02,0.03,0.13
156,0.19,0.84,8.01,0.02,0.03,0.13
161,-0.88,0.19,8.66,0.02,0.03,0.13
166,-0.30,-0.65,8.43,0.02,0.03,0.13
171,-0.30,-1.42,8.93,0.02,0.03,0.13
176,-0.92,-1.57,9.50,0.02,0.03,0.13
181,-1.46,-1.49,9.69,0.02,0.03,0.13
186,0.15,-1.65,10.57,0.02,0.03,0.13
191,0.77,-1.42,9.81,0.02,0.03,0.13
196,0.77,-1.42,9.81,0.06,-0.04,0.12
201,0.23,-0.77,9.23,0.06,-0.04,0.12
206,0.19,-1.15,9.30,0.06,-0.04,0.12
211,-1.15,-0.46,7.93,0.06,-0.04,0.12
216,-1.49,0.08,9.88,0.06,-0.04,0.12
222,-0.92,-1.04,10.30,0.06,-0.04,0.12
227,-1.42,0.15,10.45,0.06,-0.04,0.12
231,-1.42,0.15,10.45,0.03,0.02,0.13
236,0.11,-0.84,10.53,0.03,0.02,0.13
241,0.92,-0.34,9.35,0.03,0.02,0.13
246,1.46,-0.65,9.30,0.03,0.02,0.13
251,1.46,-0.65,9.30,0.00,-0.06,0.13
256,0.65,-1.23,9.30,0.00,-0.06,0.13
261,-0.42,-0.46,8.08,0.00,-0.06,0.13
266,-0.73,-0.80,9.34,0.00,-0.06,0.13
271,-1.68,-0.30,9.35,0.00,-0.06,0.13
275,-1.76,0.30,10.34,0.00,-0.06,0.13
280,-1.76,0.30,10.34,0.02,0.08,0.13
286,-1.76,0.30,10.34,0.03,0.07,0.14
293,-1.76,0.30,10.34,0.03,0.04,0.16
297,0.08,0.30,9.04,0.03,0.04,0.16
301,0.08,0.30,9.04,0.00,-0.02,0.09
306,-3.22,-0.50,5.86,0.00,-0.02,0.09
311,-3.07,0.57,6.70,0.00,-0.02,0.09
317,-3.75,-0.15,6.05,0.00,-0.02,0.09
321,-3.75,-0.15,6.05,-0.06,0.04,0.16
326,-0.65,-0.11,9.30,-0.06,0.04,0.16
331,0.57,0.27,11.38,-0.06,0.04,0.16
337,1.53,-1.07,12.22,-0.06,0.04,0.16
341,0.54,-1.07,12.68,-0.06,0.04,0.16
346,0.50,-1.04,12.06,-0.06,0.04,0.16
351,-0.34,-1.38,10.27,-0.06,0.04,0.16
357,-0.77,-0.80,9.23,-0.06,0.04,0.16
361,-2.22,-0.50,8.35,-0.06,0.04,0.16
366,-2.45,-0.04,7.01,-0.06,0.04,0.16
372,-2.22,0.08,7.59,-0.06,0.04,0.16
376,-0.46,0.65,9.80,-0.06,0.04,0.16
381,-0.27,0.50,10.39,-0.06,0.04,0.16
386,-0.11,0.08,11.49,-0.06,0.04,0.16
390,-0.11,0.08,11.49,-0.09,-0.08,0.03
397,0.30,-1.61,11.60,-0.09,-0.08,0.03
402,0.80,-3.37,11.41,-0.09,-0.08,0.03
406,0.80,-3.37,11.41,-0.01,-0.02,0.06
411,0.80,-3.37,11.41,-0.01,0.04,0.09
417,-1.57,-1.53,7.51,-0.01,0.04,0.09
421,-1.57,-1.53,7.51,-0.01,0.08,0.18
426,-1.15,0.00,7.20,-0.01,0.08,0.18
431,-0.57,0.15,8.43,-0.01,0.08,0.18
437,-1.65,0.11,8.20,-0.01,0.08,0.18
441,-1.65,0.11,8.20,-0.05,-0.01,0.16
446,0.27,-1.72,10.99,-0.05,-0.01,0.16
452,0.42,-2.03,10.95,-0.05,-0.01,0.16
456,0.42,-2.03,10.95,0.02,-0.10,0.33
461,2.84,-1.95,12.56,0.02,-0.10,0.33
467,2.03,-1.23,10.50,0.02,-0.10,0.33
471,2.03,-1.23,10.50,0.04,-0.06,0.25
476,2.03,-1.23,10.50,-0.01,0.04,0.22
481,-3.10,-0.08,8.50,-0.01,0.04,0.22
487,-2.11,-1.07,7.81,-0.01,0.04,0.22
491,-2.11,-1.07,7.81,-0.04,0.23,0.20
496,-4.21,1.57,5.74,-0.04,0.23,0.20
502,-1.15,1.84,6.36,-0.04,0.23,0.20
506,-1.15,1.84,6.36,-0.14,0.02,0.24
511,-1.15,1.84,6.36,-0.16,-0.14,0.22
516,5.86,-2.84,12.49,-0.16,-0.14,0.22
522,5.86,-3.03,14.05,-0.16,-0.14,0.22
526,5.86,-3.03,14.05,-0.02,-0.35,0.22
531,5.86,-3.03,14.05,0.02,-0.24,0.18
537,-0.84,-1.49,11.50,0.02,-0.24,0.18
541,-0.84,-1.49,11.50,0.02,0.10,0.18
546,-0.84,-1.49,11.50,-0.04,0.24,0.16
551,-2.53,1.46,7.24,-0.04,0.24,0.16
557,-0.46,1.68,7.70,-0.04,0.24,0.16
561,-0.46,1.68,7.70,-0.22,0.16,-0.01
566,2.87,-0.88,9.38,-0.22,0.16,-0.01
572,2.61,-1.07,9.65,-0.22,0.16,-0.01
576,2.61,-1.07,9.65,-0.20,-0.08,-0.14
581,2.61,-1.07,9.65,-0.16,0.00,-0.13
586,-3.10,-0.50,10.84,-0.16,0.00,-0.13
591,-3.10,-0.50,10.84,-0.10,0.20,0.02
596,-3.10,-0.50,10.84,-0.11,0.24,0.05
601,0.34,2.11,8.20,-0.11,0.24,0.05
606,1.07,2.07,7.35,-0.11,0.24,0.05
611,1.07,2.07,7.35,-0.19,-0.11,-0.12
616,1.07,2.07,7.35,-0.21,-0.21,-0.14
622,1.00,-0.30,9.34,-0.21,-0.21,-0.14
626,1.00,-0.30,9.34,-0.18,-0.21,-0.11
631,1.00,-0.30,9.34,-0.16,-0.11,-0.07
636,-1.61,1.72,11.04,-0.16,-0.11,-0.07
642,0.08,1.65,11.38,-0.16,-0.11,-0.07
646,0.08,1.65,11.38,-0.18,0.18,-0.17
651,0.08,1.65,11.38,-0.19,0.13,-0.22
657,1.46,0.08,9.54,-0.19,0.13,-0.22
661,1.46,0.08,9.54,-0.21,0.06,-0.28
666,1.46,0.08,9.54,-0.20,0.06,-0.25
671,1.46,0.08,9.54,-0.20,0.11,-0.23
677,-0.77,-0.27,8.96,-0.20,0.11,-0.23
681,-0.77,-0.27,8.96,-0.18,0.08,-0.22
686,-0.38,1.42,8.85,-0.18,0.08,-0.22
691,0.73,0.38,9.46,-0.18,0.08,-0.22
697,0.11,0.04,9.04,-0.18,0.08,-0.22
701,0.11,0.04,9.04,-0.19,-0.04,-0.22
706,0.69,-1.80,8.28,-0.19,-0.04,-0.22
711,0.23,-1.19,8.27,-0.19,-0.04,-0.22
717,-0.77,-1.00,9.31,-0.19,-0.04,-0.22
721,-2.64,-0.61,9.61,-0.19,-0.04,-0.22
727,-2.72,-1.11,9.46,-0.19,-0.04,-0.22
731,-2.72,-1.11,9.46,-0.12,0.10,-0.08
736,-2.72,-1.11,9.46,-0.11,0.07,-0.07
742,0.50,-0.61,10.53,-0.11,0.07,-0.07
746,0.54,-0.04,9.85,-0.11,0.07,-0.07
751,0.54,-0.04,9.85,-0.09,-0.06,-0.07
756,-0.15,-0.80,9.43,-0.09,-0.06,-0.07
762,-0.92,-1.34,8.66,-0.09,-0.06,-0.07
766,-0.92,-1.34,8.66,-0.09,0.06,0.03
771,-0.92,-1.34,8.66,-0.09,0.09,0.03
777,-1.23,-0.08,10.23,-0.09,0.09,0.03
781,-1.23,-0.08,10.23,-0.10,0.01,0.11
786,-1.23,-0.08,10.23,-0.10,-0.06,0.11
791,-1.23,-0.08,10.23,-0.12,-0.11,0.07
797,0.61,-0.92,11.15,-0.12,-0.11,0.07
801,0.61,-0.92,11.15,-0.10,-0.11,0.04
806,-1.27,-2.34,9.35,-0.10,-0.11,0.04
811,-2.45,-1.99,8.78,-0.10,-0.11,0.04
817,-1.15,-1.15,8.85,-0.10,-0.11,0.04
821,-1.15,-1.15,8.85,-0.06,0.06,0.18
826,-1.15,-1.15,8.85,-0.10,0.05,0.18
832,-0.46,0.42,9.20,-0.10,0.05,0.18
836,-0.46,0.42,9.20,-0.12,0.01,0.11
842,-0.46,0.42,9.20,-0.11,0.02,0.11
847,-2.26,-1.00,9.08,-0.11,0.02,0.11
851,-2.26,-1.00,9.08,-0.09,0.05,0.20
856,-2.26,-1.00,9.08,-0.08,0.03,0.23
861,0.23,-0.04,9.46,-0.08,0.03,0.23
867,0.77,0.23,9.89,-0.08,0.03,0.23
871,0.77,0.23,9.89,-0.11,-0.07,0.17
876,0.77,0.23,9.89,-0.11,-0.05,0.12
882,-0.96,-1.72,9.77,-0.11,-0.05,0.12
886,-0.96,-1.72,9.77,-0.12,0.04,0.10
891,-0.96,-1.72,9.77,-0.12,0.08,0.09
896,-3.14,1.34,7.66,-0.12,0.08,0.09
902,-3.64,0.61,7.23,-0.12,0.08,0.09
906,-3.64,0.61,7.23,-0.19,0.16,0.03
911,-3.64,0.61,7.23,-0.21,0.12,0.07
917,-0.80,0.27,8.27,-0.21,0.12,0.07
922,-0.80,0.27,8.27,-0.21,-0.08,0.11
926,-0.80,0.27,8.27,-0.18,-0.17,0.12
931,2.30,-1.30,13.71,-0.18,-0.17,0.12
937,0.77,-1.61,12.38,-0.18,-0.17,0.12
941,0.77,-1.61,12.38,-0.08,-0.08,0.06
946,0.77,-1.61,12.38,-0.08,0.04,0.08
952,-2.99,1.72,7.55,-0.08,0.04,0.08
956,-2.99,1.72,7.55,-0.17,0.24,0.11
961,-2.99,1.72,7.55,-0.23,0.23,0.09
967,-1.38,2.57,7.13,-0.23,0.23,0.09
971,-1.38,2.57,7.13,-0.35,0.09,-0.06
976,-1.38,2.57,7.13,-0.32,-0.00,-0.10
981,-0.04,-1.19,9.61,-0.32,-0.00,-0.10
987,0.69,-1.65,11.84,-0.32,-0.00,-0.10
991,0.69,-1.65,11.84,-0.21,-0.06,0.02
997,0.69,-1.65,11.84,-0.18,-0.03,0.04
1002,0.15,1.04,10.07,-0.18,-0.03,0.04
1006,0.15,1.04,10.07,-0.22,0.08,-0.06
1012,0.15,1.04,10.07,-0.24,0.08,-0.08
1017,-0.61,0.92,7.93,-0.24,0.08,-0.08
1022,0.57,1.38,8.01,-0.24,0.08,-0.08
1026,0.57,1.38,8.01,-0.34,0.01,-0.06
1031,0.57,1.38,8.01,-0.35,0.00,-0.10
1037,-0.15,0.77,9.27,-0.35,0.00,-0.10
1041,-0.15,0.77,9.27,-0.36,0.03,-0.18
1046,-0.15,0.77,9.27,-0.33,0.05,-0.16
1051,-0.15,0.77,9.27,-0.29,0.01,-0.14
1057,3.68,-0.27,10.80,-0.29,0.01,-0.14
1061,3.68,-0.27,10.80,-0.30,-0.02,-0.19
1066,3.68,-0.27,10.80,-0.30,0.01,-0.23
1072,3.68,-0.27,10.80,-0.28,0.06,-0.26
1076,3.68,-0.27,10.80,-0.30,0.13,-0.27
1081,3.68,-0.27,10.80,-0.30,0.20,-0.29
1086,-2.14,1.04,8.01,-0.30,0.20,-0.29
1092,-2.64,1.19,7.47,-0.30,0.20,-0.29
1096,-2.64,1.19,7.47,-0.37,0.19,-0.31
1101,-2.64,1.19,7.47,-0.38,0.10,-0.33
1107,1.38,-0.04,8.31,-0.38,0.10,-0.33
1111,1.38,-0.04,8.31,-0.36,-0.08,-0.37
1117,1.38,-0.04,8.31,-0.33,-0.12,-0.36
1122,-0.23,-2.03,9.35,-0.33,-0.12,-0.36
1126,-0.23,-2.03,9.35,-0.27,-0.04,-0.32
1131,-0.23,-2.03,9.35,-0.26,0.03,-0.28
1136,-0.23,-2.03,9.35,-0.26,0.08,-0.24
1141,0.34,0.19,10.84,-0.26,0.08,-0.24
1146,0.34,0.19,10.84,-0.22,0.06,-0.26
1151,0.34,0.19,10.84,-0.22,0.04,-0.32
1157,-0.46,0.34,10.41,-0.22,0.04,-0.32
1161,-0.46,0.34,10.41,-0.23,0.08,-0.37
1166,-0.46,0.34,10.41,-0.24,0.09,-0.33
1171,-0.46,0.34,10.41,-0.24,0.09,-0.32
1177,-1.38,-0.19,8.27,-0.24,0.09,-0.32
1181,-1.38,-0.19,8.27,-0.26,0.11,-0.35
1186,-1.38,-0.19,8.27,-0.27,0.11,-0.34
1191,-1.38,-0.19,8.27,-0.28,0.10,-0.32
1197,-0.92,0.88,9.30,-0.28,0.10,-0.32
1201,-0.92,0.88,9.30,-0.31,0.02,-0.38
1206,-0.92,0.88,9.30,-0.30,-0.02,-0.43
1212,-0.77,-1.65,9.42,-0.30,-0.02,-0.43
1216,-0.77,-1.65,9.42,-0.24,-0.07,-0.35
1221,-0.77,-1.65,9.42,-0.21,-0.07,-0.29
1227,0.84,-1.07,10.07,-0.21,-0.07,-0.29
1231,0.84,-1.07,10.07,-0.21,-0.05,-0.24
1236,0.84,-1.07,10.07,-0.21,-0.02,-0.31
1241,-1.76,-1.46,10.07,-0.21,-0.02,-0.31
1246,-0.54,-1.15,10.19,-0.21,-0.02,-0.31
1250,-0.54,-1.15,10.19,-0.20,0.15,-0.36
1256,-0.54,-1.15,10.19,-0.18,0.19,-0.31
1260,-0.23,-0.69,9.77,-0.18,0.19,-0.31
1266,-0.23,-0.69,9.77,-0.18,0.16,-0.30
1272,0.23,-0.15,9.88,-0.18,0.16,-0.30
1277,-0.65,-0.08,8.54,-0.18,0.16,-0.30
1281,-0.65,-0.08,8.54,-0.21,0.02,-0.33
1286,-0.65,-0.08,8.54,-0.20,-0.00,-0.28
1291,-0.65,-0.08,8.54,-0.18,-0.02,-0.25
1297,-1.57,-0.34,7.47,-0.18,-0.02,-0.25
1301,-1.57,-0.34,7.47,-0.19,0.02,-0.24
1306,-1.57,-0.34,7.47,-0.19,0.04,-0.23
1311,-1.57,-0.34,7.47,-0.19,0.03,-0.20
1317,0.04,-0.27,9.20,-0.19,0.03,-0.20
1321,0.04,-0.27,9.20,-0.18,-0.08,-0.14
1326,0.04,-0.27,9.20,-0.13,-0.13,-0.13
1332,2.72,-3.03,13.45,-0.13,-0.13,-0.13
1336,2.72,-3.03,13.45,-0.06,-0.12,-0.16
1341,2.72,-3.03,13.45,-0.03,-0.04,-0.16
1346,-1.65,-1.91,9.35,-0.03,-0.04,-0.16
1353,-2.57,-1.30,8.84,-0.03,-0.04,-0.16
1356,-2.57,-1.30,8.84,-0.09,0.23,-0.08
1361,-0.50,1.80,8.20,-0.09,0.23,-0.08
1367,-0.77,0.61,8.84,-0.09,0.23,-0.08
1371,-0.77,0.61,8.84,-0.23,0.07,-0.19
1376,-0.77,0.61,8.84,-0.23,0.01,-0.22
1382,0.19,-2.34,10.45,-0.23,0.01,-0.22
1386,0.19,-2.34,10.45,-0.15,-0.04,-0.13
1391,0.19,-2.34,10.45,-0.10,-0.02,-0.07
1396,0.19,-2.34,10.45,-0.10,0.00,-0.03
1402,-0.50,0.00,9.46,-0.10,0.00,-0.03
1406,-0.50,0.00,9.46,-0.12,0.02,-0.05
1411,-0.50,0.00,9.46,-0.17,0.04,-0.11
1417,0.34,0.15,8.46,-0.17,0.04,-0.11
1422,0.34,0.15,8.46,-0.18,0.03,-0.09
1426,0.34,0.15,8.46,-0.21,0.05,-0.10
1431,0.34,0.15,8.46,-0.21,0.07,-0.11
1437,-1.46,0.15,9.89,-0.21,0.07,-0.11
1441,-1.46,0.15,9.89,-0.22,0.09,-0.14
1446,-1.46,0.15,9.89,-0.25,0.07,-0.16
1452,-1.46,0.15,9.89,-0.23,0.00,-0.15
1456,-1.46,0.15,9.89,-0.24,-0.06,-0.18
1461,-1.46,0.15,9.89,-0.27,-0.07,-0.23
1466,1.04,-0.80,9.88,-0.27,-0.07,-0.23
1472,-0.08,-0.96,8.85,-0.27,-0.07,-0.23
1476,-0.08,-0.96,8.85,-0.25,0.09,-0.22
1481,-0.08,-0.96,8.85,-0.25,0.15,-0.22
1487,-0.65,2.30,8.39,-0.25,0.15,-0.22
1491,-0.65,2.30,8.39,-0.30,0.17,-0.32
1496,-0.65,2.30,8.39,-0.32,0.11,-0.35
1502,1.38,0.88,10.35,-0.32,0.11,-0.35
1506,1.38,0.88,10.35,-0.31,0.03,-0.47
1511,1.38,0.88,10.35,-0.32,0.05,-0.51
1516,1.38,0.88,10.35,-0.29,0.05,-0.50
1521,-2.30,-0.34,8.04,-0.29,0.05,-0.50
1526,-2.30,-0.34,8.04,-0.35,0.14,-0.53
1531,-2.30,-0.34,8.04,-0.35,0.13,-0.55
1537,0.23,1.91,9.69,-0.35,0.13,-0.55
1541,0.23,1.91,9.69,-0.40,0.04,-0.63
1546,0.23,1.91,9.69,-0.38,-0.02,-0.70
1551,0.23,1.91,9.69,-0.35,-0.01,-0.76
1557,-1.23,0.19,10.31,-0.35,-0.01,-0.76
1561,-1.23,0.19,10.31,-0.33,0.20,-0.77
1566,-1.23,0.19,10.31,-0.31,0.26,-0.68
1571,-1.23,0.19,10.31,-0.32,0.27,-0.63
1577,-1.04,2.07,8.54,-0.32,0.27,-0.63
1581,-1.04,2.07,8.54,-0.39,0.18,-0.71
1586,-1.04,2.07,8.54,-0.39,0.14,-0.76
1592,-0.04,1.68,11.00,-0.39,0.14,-0.76
1596,-0.04,1.68,11.00,-0.37,0.12,-0.75
1601,-0.04,1.68,11.00,-0.34,0.11,-0.69
1607,-0.92,-0.80,10.84,-0.34,0.11,-0.69
1611,-0.92,-0.80,10.84,-0.32,0.09,-0.64
1616,-0.92,-0.80,10.84,-0.31,0.06,-0.62
1621,0.34,-0.77,10.00,-0.31,0.06,-0.62
1627,0.00,-0.92,9.65,-0.31,0.06,-0.62
1631,0.00,-0.92,9.65,-0.31,0.04,-0.59
1636,0.00,-0.92,9.65,-0.29,0.08,-0.59
1641,-1.27,-1.49,9.30,-0.29,0.08,-0.59
1646,-1.27,-1.49,9.30,-0.26,0.20,-0.55
1651,-1.27,-1.49,9.30,-0.24,0.24,-0.51
1657,-2.34,-1.76,9.61,-0.24,0.24,-0.51
1661,-2.34,-1.76,9.61,-0.23,0.18,-0.39
1666,-2.34,-1.76,9.61,-0.23,0.10,-0.38
1671,-2.34,-1.76,9.61,-0.21,0.02,-0.41
1677,1.46,-2.14,10.65,-0.21,0.02,-0.41
1681,1.46,-2.14,10.65,-0.19,-0.04,-0.41
1686,1.46,-2.14,10.65,-0.16,0.00,-0.37
1690,1.46,-2.14,10.65,-0.16,0.08,-0.32
1695,-3.33,-3.22,9.35,-0.16,0.08,-0.32
1701,-3.33,-3.22,9.35,-0.15,0.17,-0.27
1707,-3.33,-3.22,9.35,-0.17,0.24,-0.25
1712,-2.34,0.73,7.85,-0.17,0.24,-0.25
1716,-2.34,0.73,7.85,-0.22,0.16,-0.19
1721,-2.34,0.73,7.85,-0.19,0.02,-0.18
1727,-2.34,0.73,7.85,-0.16,-0.10,-0.20
1731,-2.34,0.73,7.85,-0.10,-0.14,-0.20
1736,-2.34,0.73,7.85,-0.05,-0.11,-0.17
1741,-2.34,0.73,7.85,-0.02,-0.03,-0.13
1747,-0.84,-2.14,8.73,-0.02,-0.03,-0.13
1751,-0.84,-2.14,8.73,-0.05,0.16,-0.06
1756,-0.84,-2.14,8.73,-0.13,0.22,-0.11
1761,-0.84,-2.14,8.73,-0.21,0.24,-0.18
1766,-0.84,-2.14,8.73,-0.24,0.22,-0.29
1771,-0.84,-2.14,8.73,-0.27,0.19,-0.38
1776,-0.84,-2.14,8.73,-0.26,0.13,-0.40
1782,1.19,-2.80,10.80,-0.26,0.13,-0.40
1786,1.19,-2.80,10.80,-0.17,-0.00,-0.38
1791,1.19,-2.80,10.80,-0.16,-0.01,-0.40
1797,1.19,-2.80,10.80,-0.14,0.00,-0.46
1801,1.19,-2.80,10.80,-0.16,0.07,-0.53
1806,1.19,-2.80,10.80,-0.22,0.15,-0.61
1811,1.19,-2.80,10.80,-0.26,0.19,-0.64
1817,-1.76,4.06,8.43,-0.26,0.19,-0.64
1821,-1.76,4.06,8.43,-0.35,0.21,-0.68
1826,-1.76,4.06,8.43,-0.38,0.17,-0.71
1832,-1.76,4.06,8.43,-0.38,0.14,-0.75
1836,-1.76,4.06,8.43,-0.38,0.12,-0.81
1841,-1.76,4.06,8.43,-0.38,0.11,-0.82
1846,-1.76,4.06,8.43,-0.32,0.07,-0.78
1852,2.91,2.34,12.38,-0.32,0.07,-0.78
1856,2.91,2.34,12.38,-0.30,0.06,-0.78
1861,2.91,2.34,12.38,-0.30,0.12,-0.84
1867,2.91,2.34,12.38,-0.31,0.17,-0.87
1871,2.91,2.34,12.38,-0.33,0.22,-0.86
1876,2.91,2.34,12.38,-0.38,0.26,-0.87
1881,2.91,2.34,12.38,-0.40,0.25,-0.93
1886,2.91,2.34,12.38,-0.43,0.25,-1.00
1891,2.91,2.34,12.38,-0.44,0.26,-1.06
1896,2.91,2.34,12.38,-0.42,0.26,-1.06
1901,-0.46,1.42,9.50,-0.42,0.26,-1.06
1906,-0.46,1.42,9.50,-0.39,0.25,-1.05
1911,-0.46,1.42,9.50,-0.37,0.22,-1.02
1917,-0.46,1.42,9.50,-0.36,0.17,-1.01
1921,-0.46,1.42,9.50,-0.35,0.14,-1.02
1926,-0.46,1.42,9.50,-0.32,0.10,-1.01
1931,-0.46,1.42,9.50,-0.27,0.04,-0.96
1937,3.03,-1.91,13.95,-0.27,0.04,-0.96
1941,3.03,-1.91,13.95,-0.21,0.07,-1.02
1946,3.03,-1.91,13.95,-0.15,0.18,-1.05
1952,3.03,-1.91,13.95,-0.14,0.30,-1.02
1956,3.03,-1.91,13.95,-0.14,0.39,-0.94
1961,3.03,-1.91,13.95,-0.15,0.41,-0.88
1966,3.03,-1.91,13.95,-0.15,0.39,-0.87
1971,3.03,-1.91,13.95,-0.19,0.33,-0.88
1975,1.57,-1.42,10.65,-0.19,0.33,-0.88
1981,1.57,-1.42,10.65,-0.12,0.24,-0.90
1987,1.57,-1.42,10.65,-0.08,0.27,-0.88
1992,-1.65,-3.22,12.30,-0.08,0.27,-0.88
1996,-1.65,-3.22,12.30,0.01,0.39,-0.80
2001,-1.65,-3.22,12.30,0.05,0.42,-0.74
2007,-2.22,-1.91,8.43,0.05,0.42,-0.74
2011,-2.22,-1.91,8.43,0.01,0.36,-0.60
2016,-2.22,-1.91,8.43,0.00,0.29,-0.57
2021,-2.22,-1.91,8.43,-0.01,0.20,-0.54
2026,-2.22,-1.91,8.43,-0.01,0.14,-0.50
2031,-2.22,-1.91,8.43,0.04,0.16,-0.48
2036,-2.22,-1.91,8.43,0.09,0.22,-0.43
2042,-3.07,-2.61,11.84,0.09,0.22,-0.43
2046,-3.07,-2.61,11.84,0.21,0.37,-0.18
2051,-3.07,-2.61,11.84,0.22,0.38,-0.10
2056,-3.07,-2.61,11.84,0.20,0.33,-0.11
2061,-3.07,-2.61,11.84,0.17,0.22,-0.13
2066,-3.07,-2.61,11.84,0.12,0.11,-0.17
2071,-3.07,-2.61,11.84,0.10,0.08,-0.19
2076,-3.07,-2.61,11.84,0.10,0.09,-0.15
2081,-3.07,-2.61,11.84,0.09,0.13,-0.11
2086,-3.07,-2.61,11.84,0.08,0.21,-0.09
2091,-3.07,-2.61,11.84,0.04,0.28,-0.12
2096,-3.07,-2.61,11.84,0.02,0.30,-0.15
2101,-3.07,-2.61,11.84,0.03,0.25,-0.16
2106,-3.07,-2.61,11.84,0.03,0.15,-0.17
2112,3.33,-2.03,12.49,0.03,0.15,-0.17
2116,3.33,-2.03,12.49,0.12,-0.04,-0.23
2121,3.33,-2.03,12.49,0.14,-0.02,-0.28
2126,3.33,-2.03,12.49,0.17,0.06,-0.30
2131,3.33,-2.03,12.49,0.15,0.17,-0.27
2136,3.33,-2.03,12.49,0.10,0.26,-0.20
2141,3.33,-2.03,12.49,0.06,0.28,-0.17
2146,3.33,-2.03,12.49,-0.02,0.26,-0.23
2151,3.33,-2.03,12.49,-0.10,0.22,-0.36
2156,3.33,-2.03,12.49,-0.12,0.15,-0.50
2162,0.80,-0.73,9.93,-0.12,0.15,-0.50
2166,0.80,-0.73,9.93,-0.05,0.04,-0.52
2171,0.80,-0.73,9.93,0.00,0.02,-0.44
2176,0.80,-0.73,9.93,0.03,0.04,-0.38
2181,0.80,-0.73,9.93,0.01,0.11,-0.40
2186,0.80,-0.73,9.93,0.00,0.19,-0.50
2191,0.80,-0.73,9.93,-0.04,0.23,-0.60
2197,-1.38,1.23,8.39,-0.04,0.23,-0.60
2201,-1.38,1.23,8.39,-0.09,0.25,-0.63
2206,-1.38,1.23,8.39,-0.12,0.22,-0.61
2211,-1.38,1.23,8.39,-0.14,0.17,-0.60
2216,-1.38,1.23,8.39,-0.15,0.13,-0.64
2221,-1.38,1.23,8.39,-0.16,0.11,-0.71
2226,-1.38,1.23,8.39,-0.16,0.09,-0.77
2232,2.84,-1.42,12.91,-0.16,0.09,-0.77
2236,2.84,-1.42,12.91,-0.11,0.04,-0.79
2241,2.84,-1.42,12.91,-0.09,0.10,-0.85
2246,2.84,-1.42,12.91,-0.09,0.16,-0.88
2251,2.84,-1.42,12.91,-0.10,0.22,-0.86
2256,2.84,-1.42,12.91,-0.14,0.30,-0.90
2261,2.84,-1.42,12.91,-0.16,0.36,-0.95
2267,3.64,1.53,9.65,-0.16,0.36,-0.95
2271,3.64,1.53,9.65,-0.18,0.24,-0.94
2276,3.64,1.53,9.65,-0.20,0.25,-1.01
2281,3.64,1.53,9.65,-0.19,0.26,-1.09
2286,3.64,1.53,9.65,-0.14,0.21,-1.05
2291,3.64,1.53,9.65,-0.13,0.20,-1.03
2296,3.64,1.53,9.65,-0.14,0.24,-1.04
2302,-0.73,-1.42,8.12,-0.14,0.24,-1.04
2306,-0.73,-1.42,8.12,-0.10,0.26,-0.91
2310,-0.73,-1.42,8.12,-0.11,0.28,-0.88
2315,-0.73,-1.42,8.12,-0.08,0.24,-0.88
2321,0.88,0.11,12.22,-0.08,0.24,-0.88
2327,0.88,0.11,12.22,-0.04,0.21,-0.90
2331,0.88,0.11,12.22,0.03,0.26,-0.90
2336,0.88,0.11,12.22,0.06,0.31,-0.80
2341,0.88,0.11,12.22,0.05,0.34,-0.69
2346,0.88,0.11,12.22,0.04,0.31,-0.61
2352,0.88,0.11,12.22,0.05,0.24,-0.58
2356,0.88,0.11,12.22,0.02,0.17,-0.61
2361,0.88,0.11,12.22,0.03,0.13,-0.63
2366,0.88,0.11,12.22,0.07,0.12,-0.64
2372,0.65,-2.57,15.28,0.07,0.12,-0.64
2376,0.65,-2.57,15.28,0.13,0.27,-0.64
2381,0.65,-2.57,15.28,0.17,0.36,-0.62
2386,0.65,-2.57,15.28,0.20,0.44,-0.58
2391,0.65,-2.57,15.28,0.17,0.46,-0.53
2396,0.65,-2.57,15.28,0.16,0.40,-0.48
2401,0.65,-2.57,15.28,0.13,0.29,-0.48
2407,1.80,-1.46,8.01,0.13,0.29,-0.48
2411,1.80,-1.46,8.01,0.06,0.21,-0.63
2416,1.80,-1.46,8.01,0.10,0.24,-0.64
2422,-2.26,-4.25,10.42,0.10,0.24,-0.64
2426,-2.26,-4.25,10.42,0.22,0.35,-0.42
2431,-2.26,-4.25,10.42,0.28,0.38,-0.28
2436,-2.26,-4.25,10.42,0.30,0.39,-0.22
2442,-0.42,0.23,11.07,0.30,0.39,-0.22
2446,-0.42,0.23,11.07,0.27,0.30,-0.26
2451,-0.42,0.23,11.07,0.23,0.22,-0.30
2457,-0.27,-1.49,7.66,0.23,0.22,-0.30
2461,-0.27,-1.49,7.66,0.21,0.09,-0.23
2466,-0.27,-1.49,7.66,0.21,0.06,-0.12
2471,-0.27,-1.49,7.66,0.15,0.12,-0.04
2477,-4.41,0.73,7.01,0.15,0.12,-0.04
2481,-4.41,0.73,7.01,0.10,0.22,0.00
2486,-4.41,0.73,7.01,0.09,0.22,-0.02
2492,1.23,-0.73,12.76,0.09,0.22,-0.02
2496,1.23,-0.73,12.76,0.17,0.11,-0.04
2501,1.23,-0.73,12.76,0.22,0.07,-0.08
2506,1.23,-0.73,12.76,0.27,0.09,-0.09
2512,-0.42,-4.86,9.04,0.27,0.09,-0.09
2516,-0.42,-4.86,9.04,0.29,0.17,0.04
2521,-0.42,-4.86,9.04,0.23,0.19,0.09
2527,-2.38,1.46,7.09,0.23,0.19,0.09
2531,-2.38,1.46,7.09,0.05,0.21,-0.07
2536,-2.38,1.46,7.09,-0.01,0.21,-0.19
2542,-2.38,1.46,7.09,-0.01,0.20,-0.29
2547,-1.57,-2.68,9.69,-0.01,0.20,-0.29
2551,-1.57,-2.68,9.69,0.07,0.21,-0.29
2556,-1.57,-2.68,9.69,0.12,0.19,-0.20
2562,0.23,-3.33,10.41,0.12,0.19,-0.20
2566,0.23,-3.33,10.41,0.16,0.11,-0.12
2571,0.23,-3.33,10.41,0.15,0.09,-0.19
2577,0.23,-3.33,10.41,0.12,0.09,-0.28
2581,0.23,-3.33,10.41,0.08,0.09,-0.32
2586,0.23,-3.33,10.41,0.07,0.10,-0.30
2591,0.23,-3.33,10.41,0.03,0.12,-0.27
2597,0.84,0.88,8.58,0.03,0.12,-0.27
2601,0.84,0.88,8.58,-0.01,0.11,-0.30
2606,0.84,0.88,8.58,-0.03,0.10,-0.39
2612,0.84,0.88,8.58,-0.04,0.08,-0.44
2616,0.84,0.88,8.58,-0.01,0.05,-0.43
2622,0.84,0.88,8.58,0.01,0.02,-0.43
2626,0.84,0.88,8.58,-0.00,0.04,-0.47
2632,2.41,-0.88,9.93,-0.00,0.04,-0.47
2636,2.41,-0.88,9.93,0.02,0.07,-0.47
2641,2.41,-0.88,9.93,-0.01,0.11,-0.47
2647,2.41,-0.88,9.93,-0.03,0.13,-0.50
2651,2.41,-0.88,9.93,-0.06,0.13,-0.55
2656,2.41,-0.88,9.93,-0.11,0.14,-0.62
2661,2.41,-0.88,9.93,-0.13,0.16,-0.67
2667,-0.34,1.42,8.16,-0.13,0.16,-0.67
2671,-0.34,1.42,8.16,-0.12,0.16,-0.60
2676,-0.34,1.42,8.16,-0.13,0.12,-0.54
2682,-1.07,0.23,5.32,-0.13,0.12,-0.54
2686,-1.07,0.23,5.32,-0.15,-0.00,-0.53
2691,-1.07,0.23,5.32,-0.17,-0.11,-0.51
2696,-1.07,0.23,5.32,-0.09,-0.25,-0.47
2702,16.20,-1.72,31.34,-0.09,-0.25,-0.47
2706,16.20,-1.72,31.34,0.06,-0.34,-0.63
2711,16.20,-1.72,31.34,0.09,-0.10,-0.84
2717,-0.54,-4.33,17.66,0.09,-0.10,-0.84
2721,-0.54,-4.33,17.66,0.16,0.72,-1.27
2726,-0.54,-4.33,17.66,0.08,1.13,-1.32
2730,-0.54,-4.33,17.66,-0.07,1.38,-1.22
2735,-5.40,7.27,-1.04,-0.07,1.38,-1.22
2742,-5.40,7.27,-1.04,-0.25,1.43,-1.08
2746,-5.40,7.27,-1.04,-0.53,0.97,-1.06
2752,1.72,1.30,11.22,-0.53,0.97,-1.06
2756,1.72,1.30,11.22,-0.21,0.30,-1.37
2761,1.72,1.30,11.22,0.02,0.12,-1.35
2767,1.72,1.30,11.22,0.23,0.05,-1.14
2772,-6.02,-5.86,10.07,0.23,0.05,-1.14
2776,-6.02,-5.86,10.07,0.32,0.17,-0.52
2781,-6.02,-5.86,10.07,0.28,0.14,-0.29
2787,-0.54,6.55,6.70,0.28,0.14,-0.29
2791,-0.54,6.55,6.70,0.03,0.04,-0.31
2796,-0.54,6.55,6.70,-0.05,-0.02,-0.43
2801,-0.54,6.55,6.70,-0.10,-0.01,-0.52
2807,-5.40,0.15,8.42,-0.10,-0.01,-0.52
2811,-5.40,0.15,8.42,-0.09,0.14,-0.42
2816,-5.40,0.15,8.42,-0.03,0.23,-0.27
2822,-3.26,-1.61,9.00,-0.03,0.23,-0.27
2826,-3.26,-1.61,9.00,0.03,0.27,-0.11
2831,-3.26,-1.61,9.00,0.07,0.24,-0.12
2837,-3.26,-1.61,9.00,0.12,0.22,-0.13
2841,-3.26,-1.61,9.00,0.18,0.21,-0.11
2846,-3.26,-1.61,9.00,0.23,0.22,-0.04
2851,-3.26,-1.61,9.00,0.26,0.23,0.01
2857,-1.76,-3.33,9.81,0.26,0.23,0.01
2861,-1.76,-3.33,9.81,0.13,0.29,-0.06
2866,-1.76,-3.33,9.81,0.09,0.31,-0.14
2872,-1.76,-3.33,9.81,0.05,0.30,-0.19
2876,-1.76,-3.33,9.81,-0.01,0.28,-0.25
2881,-1.76,-3.33,9.81,-0.00,0.32,-0.33
2886,-1.76,-3.33,9.81,0.02,0.55,-0.44
2892,-17.58,-1.07,11.68,0.02,0.55,-0.44
2896,-17.58,-1.07,11.68,0.14,1.02,-0.29
2901,-17.58,-1.07,11.68,0.19,1.09,-0.07
2907,-17.58,-1.07,11.68,0.11,0.84,0.19
2911,-17.58,-1.07,11.68,0.03,0.29,0.34
2916,-17.58,-1.07,11.68,-0.08,-0.29,0.24
2921,-17.58,-1.07,11.68,-0.11,-0.70,-0.01
2927,12.06,-9.20,2.57,-0.11,-0.70,-0.01
2931,12.06,-9.20,2.57,-0.07,-1.01,-0.43
2936,12.06,-9.20,2.57,-0.11,-0.82,-0.47
2942,-0.46,-1.19,12.91,-0.11,-0.82,-0.47
2946,-0.46,-1.19,12.91,-0.13,-0.30,-0.31
2951,-0.46,-1.19,12.91,-0.19,-0.01,-0.32
2956,-0.46,-1.19,12.91,-0.19,0.26,-0.46
2961,1.11,1.76,13.75,-0.19,0.26,-0.46
2966,1.11,1.76,13.75,-0.07,0.65,-0.86
2971,1.11,1.76,13.75,-0.03,0.70,-0.90
2977,1.38,-6.32,1.65,-0.03,0.70,-0.90
2981,1.38,-6.32,1.65,0.02,0.45,-0.58
2986,1.38,-6.32,1.65,-0.02,0.28,-0.38
2991,1.38,-6.32,1.65,-0.05,0.11,-0.27
2997,0.69,3.60,10.27,-0.05,0.11,-0.27
3001,0.69,3.60,10.27,-0.12,-0.14,-0.49
3006,0.69,3.60,10.27,-0.12,-0.18,-0.71
3012,3.37,0.34,13.21,-0.12,-0.18,-0.71
3016,3.37,0.34,13.21,-0.06,-0.17,-0.95
3021,3.37,0.34,13.21,-0.05,-0.12,-0.91
3026,3.37,0.34,13.21,-0.04,-0.03,-0.83
3032,-4.60,-0.61,7.12,-0.04,-0.03,-0.83
3036,-4.60,-0.61,7.12,-0.13,0.25,-0.74
3041,-4.60,-0.61,7.12,-0.16,0.35,-0.77
3047,-3.64,3.56,14.29,-0.16,0.35,-0.77
3051,-3.64,3.56,14.29,-0.15,0.41,-0.96
3056,-3.64,3.56,14.29,-0.13,0.35,-1.04
3061,-3.64,3.56,14.29,-0.10,0.24,-1.10
3066,3.26,-1.68,9.80,-0.10,0.24,-1.10
3071,3.26,-1.68,9.80,-0.06,0.05,-1.09
3076,3.26,-1.68,9.80,-0.06,0.02,-1.01
3080,3.29,-1.53,12.45,-0.06,0.02,-1.01
3087,3.29,-1.53,12.45,-0.08,0.02,-0.94
3091,3.29,-1.53,12.45,-0.06,0.08,-0.98
3097,3.29,-1.53,12.45,-0.09,0.23,-1.11
3101,3.29,-1.53,12.45,-0.06,0.39,-1.21
3106,3.29,-1.53,12.45,-0.03,0.49,-1.21
3111,3.29,-1.53,12.45,-0.02,0.52,-1.13
3117,3.60,0.50,7.81,-0.02,0.52,-1.13
3121,3.60,0.50,7.81,-0.03,0.38,-1.04
3126,3.60,0.50,7.81,-0.03,0.28,-1.04
3132,3.60,0.50,7.81,0.00,0.21,-1.04
3136,3.60,0.50,7.81,0.02,0.18,-0.97
3141,3.60,0.50,7.81,0.04,0.20,-0.88
3146,3.60,0.50,7.81,0.07,0.24,-0.80
3152,3.60,0.50,7.81,0.07,0.26,-0.78
3156,3.60,0.50,7.81,0.10,0.26,-0.81
3161,3.60,0.50,7.81,0.11,0.25,-0.88
3166,3.75,-0.69,11.99,0.11,0.25,-0.88
3172,3.33,-2.76,9.27,0.11,0.25,-0.88
3176,3.33,-2.76,9.27,0.13,0.26,-0.83
3181,3.33,-2.76,9.27,0.09,0.29,-0.81
3187,-3.87,-3.60,8.16,0.09,0.29,-0.81
3191,-3.87,-3.60,8.16,0.11,0.39,-0.73
3196,-3.87,-3.60,8.16,0.11,0.44,-0.70
3202,-1.42,1.27,12.26,0.11,0.44,-0.70
3206,-1.42,1.27,12.26,0.15,0.42,-0.72
3211,-1.42,1.27,12.26,0.17,0.40,-0.77
3216,-1.42,1.27,12.26,0.18,0.38,-0.77
3221,-2.14,-6.55,7.21,0.18,0.38,-0.77
3226,-2.14,-6.55,7.21,0.27,0.33,-0.59
3231,-2.14,-6.55,7.21,0.26,0.29,-0.44
3237,-3.79,-2.03,6.09,0.26,0.29,-0.44
3241,-3.79,-2.03,6.09,0.25,0.20,-0.25
3246,-3.79,-2.03,6.09,0.22,0.16,-0.25
3251,-3.79,-2.03,6.09,0.23,0.14,-0.27
3257,1.49,-0.46,14.98,0.23,0.14,-0.27
3261,1.49,-0.46,14.98,0.26,0.16,-0.37
3266,1.49,-0.46,14.98,0.33,0.24,-0.39
3272,1.49,-0.46,14.98,0.39,0.32,-0.33
3276,1.49,-0.46,14.98,0.39,0.39,-0.20
3281,1.49,-0.46,14.98,0.40,0.42,-0.08
3286,1.49,-0.46,14.98,0.38,0.42,-0.02
3292,-1.42,2.64,8.84,0.38,0.42,-0.02
3296,-1.42,2.64,8.84,0.23,0.31,-0.15
3301,-1.42,2.64,8.84,0.17,0.21,-0.25
3307,-1.07,-3.29,10.07,0.17,0.21,-0.25
3311,-1.07,-3.29,10.07,0.21,0.13,-0.32
3316,-1.07,-3.29,10.07,0.27,0.09,-0.21
3322,0.88,-5.21,11.07,0.27,0.09,-0.21
3326,0.88,-5.21,11.07,0.35,0.05,-0.00
3330,0.88,-5.21,11.07,0.36,0.08,-0.02
3336,0.88,-5.21,11.07,0.36,0.16,-0.09
3341,-0.96,0.30,8.23,0.36,0.16,-0.09
3347,-0.96,0.30,8.23,0.29,0.33,-0.10
3351,-0.96,0.30,8.23,0.28,0.38,-0.05
3356,-0.96,0.30,8.23,0.26,0.34,-0.01
3361,-0.96,0.30,8.23,0.26,0.24,0.02
3366,-0.96,0.30,8.23,0.24,0.11,0.01
3371,-0.96,0.30,8.23,0.23,0.03,-0.04
3377,1.46,-1.88,11.15,0.23,0.03,-0.04
3381,1.46,-1.88,11.15,0.28,-0.05,-0.00
3386,1.46,-1.88,11.15,0.28,-0.07,0.03
3392,1.46,-1.88,11.15,0.28,-0.07,-0.01
3396,1.46,-1.88,11.15,0.24,-0.05,-0.07
3401,1.46,-1.88,11.15,0.24,0.01,-0.15
3406,1.46,-1.88,11.15,0.24,0.13,-0.19
3412,1.46,-1.88,11.15,0.22,0.24,-0.19
3416,1.46,-1.88,11.15,0.20,0.30,-0.17
3421,1.46,-1.88,11.15,0.17,0.33,-0.20
3427,-0.88,0.46,8.78,0.17,0.33,-0.20
3431,-0.88,0.46,8.78,0.13,0.34,-0.37
3436,-0.88,0.46,8.78,0.15,0.30,-0.38
3441,-0.88,0.46,8.78,0.17,0.25,-0.32
3447,-1.00,-2.18,8.01,0.17,0.25,-0.32
3451,-1.00,-2.18,8.01,0.16,0.11,-0.19
3456,-1.00,-2.18,8.01,0.16,0.01,-0.19
3461,2.30,0.19,10.77,0.16,0.01,-0.19
3466,2.30,0.19,10.77,0.15,-0.13,-0.26
3471,2.30,0.19,10.77,0.17,-0.13,-0.28
3477,2.30,0.19,10.77,0.15,-0.05,-0.32
3481,2.30,0.19,10.77,0.13,0.09,-0.35
3486,2.30,0.19,10.77,0.14,0.20,-0.32
3491,2.30,0.19,10.77,0.12,0.28,-0.29
3496,-0.50,1.61,7.20,0.12,0.28,-0.29
3501,-0.50,1.61,7.20,0.03,0.26,-0.32
3506,-0.50,1.61,7.20,-0.01,0.17,-0.37
3511,-0.50,1.61,7.20,-0.02,0.06,-0.39
3516,-0.50,1.61,7.20,0.00,-0.01,-0.39
3521,-0.50,1.61,7.20,0.03,-0.02,-0.37
3526,-0.50,1.61,7.20,0.08,0.04,-0.34
3531,-0.50,1.61,7.20,0.09,0.12,-0.29
3536,-0.50,1.61,7.20,0.10,0.16,-0.23
3541,-0.50,1.61,7.20,0.10,0.16,-0.20
3546,-0.50,1.61,7.20,0.07,0.12,-0.21
3551,0.88,0.34,8.78,0.07,0.12,-0.21
3556,0.88,0.34,8.78,0.02,0.00,-0.27
3561,0.88,0.34,8.78,-0.01,-0.02,-0.28
3567,-1.00,-0.34,8.50,-0.01,-0.02,-0.28
3571,-1.00,-0.34,8.50,-0.00,0.09,-0.26
3576,-1.00,-0.34,8.50,-0.00,0.19,-0.20
3581,-4.29,-0.54,10.45,-0.00,0.19,-0.20
3586,-4.29,-0.54,10.45,0.01,0.27,-0.14
3591,-4.29,-0.54,10.45,0.03,0.22,-0.14
3596,-4.29,-0.54,10.45,0.04,0.12,-0.14
3601,-4.29,-0.54,10.45,0.04,0.03,-0.17
3606,-4.29,-0.54,10.45,0.04,-0.01,-0.19
3611,-4.29,-0.54,10.45,0.04,0.01,-0.18
3616,-3.95,-1.76,6.89,0.04,0.01,-0.18
3621,-3.95,-1.76,6.89,-0.05,0.15,-0.16
3626,-3.95,-1.76,6.89,-0.08,0.22,-0.15
3631,-3.95,-1.76,6.89,-0.12,0.23,-0.13
3636,-3.95,-1.76,6.89,-0.11,0.17,-0.12
3641,-3.95,-1.76,6.89,-0.11,0.06,-0.15
3646,-3.95,-1.76,6.89,-0.06,-0.04,-0.21
3651,-3.95,-1.76,6.89,-0.05,-0.10,-0.29
3656,-3.95,-1.76,6.89,0.00,-0.09,-0.34
3661,-3.95,-1.76,6.89,0.01,-0.02,-0.35
3666,-3.95,-1.76,6.89,0.01,0.11,-0.29
3671,-3.95,-1.76,6.89,-0.02,0.22,-0.20
3676,-3.95,-1.76,6.89,-0.06,0.24,-0.14
3681,-3.95,-1.76,6.89,-0.14,0.23,-0.17
3686,-0.65,1.99,8.77,-0.14,0.23,-0.17
3691,-0.65,1.99,8.77,-0.24,0.09,-0.46
3696,-0.65,1.99,8.77,-0.23,-0.00,-0.54
3701,-0.65,1.99,8.77,-0.20,-0.05,-0.53
3706,-0.65,1.99,8.77,-0.12,-0.05,-0.46
3711,-0.65,1.99,8.77,-0.07,-0.01,-0.39
3716,-0.65,1.99,8.77,-0.07,0.06,-0.37
3722,-1.80,0.04,10.27,-0.07,0.06,-0.37
3725,-3.45,0.92,9.35,-0.07,0.06,-0.37
3731,-3.45,0.92,9.35,-0.16,0.31,-0.59
3736,-3.45,0.92,9.35,-0.17,0.33,-0.58
3741,-3.45,0.92,9.35,-0.19,0.32,-0.54
3746,-3.45,0.92,9.35,-0.24,0.24,-0.51
3751,-3.45,0.92,9.35,-0.25,0.15,-0.55
3757,0.04,1.11,8.93,-0.25,0.15,-0.55
3761,0.04,-0.88,9.30,-0.25,0.15,-0.55
3766,0.04,-0.88,9.30,-0.25,-0.01,-0.75
3771,0.04,-0.88,9.30,-0.20,-0.02,-0.70
3776,0.04,-0.88,9.30,-0.20,0.01,-0.64
3781,0.04,-0.88,9.30,-0.22,0.07,-0.65
3786,0.04,-0.88,9.30,-0.24,0.11,-0.71
3791,0.04,-0.88,9.30,-0.26,0.13,-0.81
3796,0.04,-0.88,9.30,-0.30,0.19,-0.90
3801,0.04,-0.88,9.30,-0.28,0.23,-0.94
3806,0.04,-0.88,9.30,-0.28,0.25,-0.91
3811,-0.57,0.34,8.77,-0.28,0.25,-0.91
3816,-0.57,0.34,8.77,-0.31,0.24,-0.91
3821,-0.57,0.34,8.77,-0.28,0.19,-0.96
3826,-0.57,0.34,8.77,-0.27,0.16,-1.01
3831,-0.57,0.34,8.77,-0.27,0.12,-1.03
3835,-0.57,0.34,8.77,-0.26,0.11,-1.03
3841,-0.57,0.34,8.77,-0.27,0.10,-1.03
3846,0.80,-1.19,11.68,-0.27,0.10,-1.03
3851,0.80,-1.19,11.68,-0.25,0.09,-1.03
3856,0.80,-1.19,11.68,-0.23,0.08,-1.06
3861,0.80,-1.19,11.68,-0.21,0.12,-1.15
3866,0.80,-1.19,11.68,-0.19,0.23,-1.25
3871,0.80,-1.19,11.68,-0.21,0.36,-1.29
3876,0.80,-1.19,11.68,-0.17,0.47,-1.27
3880,0.57,1.38,8.58,-0.17,0.47,-1.27
3886,0.57,1.38,8.58,-0.19,0.47,-1.15
3891,0.57,1.38,8.58,-0.22,0.43,-1.16
3896,0.57,1.38,8.58,-0.24,0.35,-1.23
3900,-0.57,0.23,11.45,-0.24,0.35,-1.23
3906,-0.57,0.23,11.45,-0.20,0.29,-1.34
3911,-0.57,0.23,11.45,-0.16,0.30,-1.30
3916,-0.57,0.23,11.45,-0.09,0.31,-1.21
3921,-0.57,0.23,11.45,-0.09,0.32,-1.11
3926,-0.57,0.23,11.45,-0.05,0.30,-1.04
3931,-0.57,0.23,11.45,-0.07,0.22,-1.01
3936,-0.57,0.23,11.45,-0.06,0.14,-1.04
3941,-0.57,0.23,11.45,-0.08,0.11,-1.11
3946,-0.57,0.23,11.45,-0.07,0.07,-1.16
3950,-2.49,-1.76,10.50,-0.07,0.07,-1.16
3956,-2.49,-1.76,10.50,0.01,0.20,-1.11
3962,-2.49,-1.76,10.50,0.04,0.30,-0.99
3966,-2.49,-1.76,10.50,0.08,0.38,-0.89
3970,-0.38,0.34,13.95,0.08,0.38,-0.89
3976,-0.38,0.34,13.95,0.07,0.51,-0.96
3982,1.15,-1.84,12.64,0.07,0.51,-0.96
3986,1.15,-1.84,12.64,0.11,0.45,-1.06
3990,1.15,-1.84,12.64,0.18,0.40,-0.97
3995,0.15,-3.18,9.23,0.18,0.40,-0.97
4000,-3.95,-2.84,5.98,0.18,0.40,-0.97
4006,-3.95,-2.84,5.98,0.19,0.39,-0.83
4011,-3.95,-2.84,5.98,0.17,0.43,-0.66
4017,-3.95,-2.84,5.98,0.18,0.38,-0.61
4021,1.88,-0.77,15.02,0.18,0.38,-0.61
4025,1.99,-2.87,15.78,0.18,0.38,-0.61
4032,1.99,-2.87,15.78,0.28,0.20,-0.62
4037,1.99,-2.87,15.78,0.35,0.24,-0.62
4041,-2.61,-5.71,9.35,0.35,0.24,-0.62
4046,-5.44,-4.21,7.32,0.35,0.24,-0.62
4051,-4.71,-1.42,6.25,0.35,0.24,-0.62
4056,-4.71,-1.42,6.25,0.41,0.46,-0.08
4061,-4.71,-1.42,6.25,0.34,0.38,-0.04
4067,-4.71,-1.42,6.25,0.25,0.28,-0.09
4072,-4.71,-1.42,6.25,0.23,0.17,-0.20
4076,2.30,-3.71,11.26,0.23,0.17,-0.20
4081,0.27,-4.75,11.45,0.23,0.17,-0.20
4086,0.27,-4.75,11.45,0.40,-0.01,-0.12
4091,0.27,-4.75,11.45,0.45,0.06,0.00
4096,0.27,-4.75,11.45,0.51,0.12,0.10
4101,-1.88,-1.46,9.69,0.51,0.12,0.10
4106,-2.07,-0.69,9.12,0.51,0.12,0.10
4111,-0.57,-0.69,8.96,0.51,0.12,0.10
4116,-0.57,-0.69,8.96,0.40,0.31,-0.03
4121,-0.57,-0.69,8.96,0.36,0.29,-0.02
4126,-3.64,-1.00,7.32,0.36,0.29,-0.02
4131,-2.38,-1.65,8.54,0.36,0.29,-0.02
4136,-2.38,-1.65,8.54,0.30,0.20,0.01
4141,-2.38,-1.65,8.54,0.31,0.12,0.04
4146,-2.38,-1.65,8.54,0.32,0.07,0.03
4152,-2.38,-1.65,8.54,0.33,0.06,-0.01
4156,-2.38,-1.65,8.54,0.32,0.04,-0.04
4161,-0.15,-1.61,9.38,0.32,0.04,-0.04
4165,-1.04,-2.41,9.43,0.32,0.04,-0.04
4172,-1.04,-2.41,9.43,0.31,0.09,-0.07
4177,-1.04,-2.41,9.43,0.31,0.18,-0.12
4181,1.42,0.00,7.97,0.31,0.18,-0.12
4186,-0.30,-0.08,8.01,0.31,0.18,-0.12
4192,-0.30,-0.08,8.01,0.22,0.19,-0.21
4197,-0.30,-0.08,8.01,0.18,0.20,-0.31
4201,-0.04,-1.99,7.24,0.18,0.20,-0.31
4206,-0.30,-0.19,6.82,0.18,0.20,-0.31
4211,1.00,-0.34,9.69,0.18,0.20,-0.31
4216,1.00,-0.34,9.69,0.17,-0.01,-0.26
4221,1.00,-0.34,9.69,0.19,-0.05,-0.29
4226,1.00,-0.34,9.69,0.22,-0.06,-0.32
4231,1.27,-0.23,12.26,0.22,-0.06,-0.32
4236,1.15,0.54,11.34,0.22,-0.06,-0.32
4241,1.15,0.54,11.34,0.22,0.11,-0.45
4246,-1.11,2.64,8.08,0.22,0.11,-0.45
4250,0.88,2.22,8.78,0.22,0.11,-0.45
4256,0.88,2.22,8.78,0.12,0.31,-0.42
4261,0.88,2.22,8.78,0.06,0.26,-0.43
4266,4.98,0.42,9.92,0.06,0.26,-0.43
4271,3.71,-0.27,10.77,0.06,0.26,-0.43
4276,3.71,-0.27,10.77,0.01,0.01,-0.69
4281,-0.96,-1.30,11.88,0.01,0.01,-0.69
4286,-2.14,-1.95,11.03,0.01,0.01,-0.69
4291,-3.14,-1.80,10.34,0.01,0.01,-0.69
4296,-3.14,-1.80,10.34,0.17,0.29,-0.51
4301,0.42,1.19,9.38,0.17,0.29,-0.51
4305,2.57,1.15,10.15,0.17,0.29,-0.51
4311,2.57,1.15,10.15,0.12,0.12,-0.59
4317,2.57,1.15,10.15,0.09,0.02,-0.68
4321,3.03,-2.45,9.73,0.09,0.02,-0.68
4326,0.04,-2.87,9.65,0.09,0.02,-0.68
4331,0.04,-2.87,9.65,0.11,-0.00,-0.72
4336,0.04,-2.87,9.65,0.15,0.09,-0.66
4341,0.04,-2.87,9.65,0.16,0.20,-0.62
4346,0.04,-2.87,9.65,0.15,0.29,-0.62
4351,-0.11,1.11,10.73,0.15,0.29,-0.62
4355,-0.50,0.46,9.23,0.15,0.29,-0.62
4361,-0.50,0.46,9.23,0.11,0.36,-0.77
4366,-0.50,0.46,9.23,0.13,0.33,-0.76
4370,-0.50,0.46,9.23,0.17,0.25,-0.56
4375,-3.45,-1.23,6.51,0.17,0.25,-0.56
4380,-3.03,-0.80,4.86,0.17,0.25,-0.56
4386,-3.03,-0.80,4.86,0.15,0.16,-0.37
4392,-3.03,-0.80,4.86,0.13,0.09,-0.35
4396,1.46,-0.11,13.10,0.13,0.09,-0.35
4400,1.46,-0.11,13.10,0.21,-0.09,-0.35
4405,0.15,-2.34,14.21,0.21,-0.09,-0.35
4411,0.15,-2.34,14.21,0.26,-0.04,-0.33
4416,0.15,-2.34,14.21,0.33,0.08,-0.29
4421,-4.29,-1.68,8.84,0.33,0.08,-0.29
4425,-1.53,0.77,8.08,0.33,0.08,-0.29
4432,-1.53,0.77,8.08,0.21,0.35,-0.10
4436,3.60,4.37,6.59,0.21,0.35,-0.10
4440,-0.23,-4.67,8.20,0.21,0.35,-0.10
4446,-0.23,-4.67,8.20,0.13,0.11,-0.37
4451,-0.23,-4.67,8.20,0.11,0.05,-0.39
4456,-0.23,-4.67,8.20,0.12,-0.00,-0.39
4461,-1.46,-3.37,12.14,0.12,-0.00,-0.39
4466,0.27,-4.25,12.87,0.12,-0.00,-0.39
4470,-1.57,-2.34,8.82,0.12,-0.00,-0.39
4476,-1.57,-2.34,8.82,0.32,0.14,-0.23
4482,-1.57,-2.34,8.82,0.30,0.18,-0.27
4486,-1.72,-1.72,8.78,0.30,0.18,-0.27
4491,-0.77,-1.30,8.12,0.30,0.18,-0.27
4497,-0.77,-1.30,8.12,0.28,0.15,-0.39
4501,-0.77,-1.30,8.12,0.26,0.10,-0.33
4506,-0.88,-0.73,10.99,0.26,0.10,-0.33
4510,-1.04,-1.23,11.11,0.26,0.10,-0.33
4516,-1.04,-1.23,11.11,0.22,0.11,-0.51
4521,-1.04,-1.23,11.11,0.25,0.13,-0.53
4526,0.15,-0.84,11.30,0.25,0.13,-0.53
4531,0.84,-0.92,10.99,0.25,0.13,-0.53
4536,0.84,-0.92,10.99,0.29,0.07,-0.46
4541,2.30,-1.88,9.30,0.29,0.07,-0.46
4546,0.84,-2.18,9.88,0.29,0.07,-0.46
4551,-0.65,-1.72,9.04,0.29,0.07,-0.46
4556,-1.30,-1.72,8.08,0.29,0.07,-0.46
4560,-1.00,-0.73,9.00,0.29,0.07,-0.46
4567,-1.00,-0.73,9.00,0.31,0.20,-0.42
4571,-0.69,-0.04,8.82,0.31,0.20,-0.42
4576,-0.61,0.34,8.50,0.31,0.20,-0.42
4581,-1.15,-0.80,8.35,0.31,0.20,-0.42
4586,-1.00,-2.26,8.16,0.31,0.20,-0.42
4591,-1.00,-2.26,8.16,0.32,0.02,-0.33
4596,-0.65,-2.07,8.89,0.32,0.02,-0.33
4601,0.23,-2.26,10.73,0.32,0.02,-0.33
4606,0.23,-2.26,10.73,0.37,-0.07,-0.21
4611,-0.34,-0.84,12.26,0.37,-0.07,-0.21
4616,-1.34,-0.92,11.38,0.37,-0.07,-0.21
4621,-0.50,-1.04,11.80,0.37,-0.07,-0.21
4626,-2.64,-0.23,9.61,0.37,-0.07,-0.21
4630,-2.64,-0.23,9.61,0.42,0.23,-0.20
4636,-1.00,-0.50,7.97,0.42,0.23,-0.20
4641,-1.00,-0.50,7.97,0.40,0.21,-0.21
4646,0.61,-0.38,8.54,0.40,0.21,-0.21
4651,0.80,-1.04,9.43,0.40,0.21,-0.21
4656,0.30,-0.84,9.43,0.40,0.21,-0.21
4661,-1.57,-1.65,10.42,0.40,0.21,-0.21
4666,-1.91,-1.72,11.19,0.40,0.21,-0.21
4671,-1.42,-2.57,10.35,0.40,0.21,-0.21
4676,-0.65,-0.88,9.80,0.40,0.21,-0.21
4681,0.46,-1.53,9.43,0.40,0.21,-0.21
4686,1.38,-1.68,9.58,0.40,0.21,-0.21
4691,1.53,-0.61,9.08,0.40,0.21,-0.21
4696,0.84,-2.41,9.27,0.40,0.21,-0.21
4701,0.84,-1.61,8.93,0.40,0.21,-0.21
4706,0.23,-2.11,9.43,0.40,0.21,-0.21
4711,-0.88,-1.11,9.69,0.40,0.21,-0.21
4716,-1.30,-0.46,10.27,0.40,0.21,-0.21
4721,-0.54,0.15,10.77,0.40,0.21,-0.21
4726,-0.54,0.15,10.77,0.40,0.18,-0.23
4731,-0.46,-0.84,9.50,0.40,0.18,-0.23
4736,0.46,-1.15,9.61,0.40,0.18,-0.23
4741,-0.50,-0.88,9.27,0.40,0.18,-0.23
4746,-1.27,-0.80,7.97,0.40,0.18,-0.23
4751,-0.50,-0.80,7.85,0.40,0.18,-0.23
4756,-1.19,-0.34,6.47,0.40,0.18,-0.23
4761,-1.19,-0.34,6.47,0.39,0.05,-0.15
4766,-1.53,-0.84,7.09,0.39,0.05,-0.15
4770,-1.53,-0.84,7.09,0.34,-0.04,-0.17
4775,-1.57,-0.77,8.04,0.34,-0.04,-0.17
4780,0.80,-1.04,10.46,0.34,-0.04,-0.17
4787,0.80,-1.04,10.46,0.37,-0.11,-0.14
4792,0.96,-2.91,12.52,0.37,-0.11,-0.14
4796,-0.11,-3.18,10.49,0.37,-0.11,-0.14
4801,-1.23,-2.76,9.73,0.37,-0.11,-0.14
4806,-1.88,-1.84,8.62,0.37,-0.11,-0.14
4811,-2.18,-1.07,9.08,0.37,-0.11,-0.14
4816,-1.65,-0.88,8.01,0.37,-0.11,-0.14
4821,-1.65,-0.88,8.01,0.40,0.12,-0.04
4826,-1.65,-0.88,8.01,0.38,0.04,-0.04
4831,-0.80,-1.84,7.81,0.38,0.04,-0.04
4836,0.23,-2.26,9.50,0.38,0.04,-0.04
4841,-1.04,-1.49,8.84,0.38,0.04,-0.04
4846,-0.73,-2.11,10.00,0.38,0.04,-0.04
4851,-0.15,-2.57,10.30,0.38,0.04,-0.04
4856,-0.15,-2.57,10.30,0.47,-0.06,0.12
4861,-0.88,-2.34,9.54,0.47,-0.06,0.12
4866,-0.88,-1.68,9.73,0.47,-0.06,0.12
4871,-1.80,-0.92,9.43,0.47,-0.06,0.12
4876,-1.11,-0.61,9.38,0.47,-0.06,0.12
4881,-0.57,-0.42,10.53,0.47,-0.06,0.12
4886,-2.22,-0.42,9.08,0.47,-0.06,0.12
4891,-2.22,-0.42,9.08,0.43,0.04,0.23
4896,-2.76,-1.00,9.08,0.43,0.04,0.23
4901,-2.57,-0.57,8.16,0.43,0.04,0.23
4906,-1.30,-0.54,8.27,0.43,0.04,0.23
4911,-0.92,-0.73,9.12,0.43,0.04,0.23
4916,-0.27,-0.88,9.61,0.43,0.04,0.23
4821,-1.65,-0.88,8.01,0.40,0.12,-0.04
4826,-1.65,-0.88,8.01,0.38,0.04,-0.04
4831,-0.80,-1.84,7.81,0.38,0.04,-0.04
4836,0.23,-2.26,9.50,0.38,0.04,-0.04
4841,-1.04,-1.49,8.84,0.38,0.04,-0.04
4846,-0.73,-2.11,10.00,0.38,0.04,-0.04
4851,-0.15,-2.57,10.30,0.38,0.04,-0.04
4856,-0.15,-2.57,10.30,0.47,-0.06,0.12
4861,-0.88,-2.34,9.54,0.47,-0.06,0.12
4866,-0.88,-1.68,9.73,0.47,-0.06,0.12
4871,-1.80,-0.92,9.43,0.47,-0.06,0.12
4876,-1.11,-0.61,9.38,0.47,-0.06,0.12
4881,-0.57,-0.42,10.53,0.47,-0.06,0.12
4886,-2.22,-0.42,9.08,0.47,-0.06,0.12
4891,-2.22,-0.42,9.08,0.43,0.04,0.23
4896,-2.76,-1.00,9.08,0.43,0.04,0.23
4901,-2.57,-0.57,8.16,0.43,0.04,0.23
