timestamp,accX,accY,accZ,gyroX,gyroY,gyroZ
Straight
6,2.61,-0.96,9.85,0.04,0.07,0.05
20,1.53,-1.65,11.57,0.04,0.07,0.05
21,1.53,-1.65,11.57,0.02,0.05,-0.23
22,1.53,-1.65,11.57,0.04,0.08,-0.20
26,-0.96,0.96,8.89,0.04,0.08,-0.20
31,0.11,-0.08,8.24,0.04,0.08,-0.20
36,0.11,-0.08,8.24,0.03,0.09,-0.26
41,0.11,-0.08,8.24,0.02,0.06,-0.29
46,0.11,-0.08,8.24,0.00,0.04,-0.27
52,0.11,-0.08,8.24,-0.01,0.01,-0.24
57,0.11,-0.08,8.24,-0.02,-0.02,-0.20
61,0.38,0.69,9.73,-0.02,-0.02,-0.20
66,1.07,0.27,10.61,-0.02,-0.02,-0.20
72,1.07,0.27,10.61,-0.01,-0.10,-0.28
77,1.07,0.27,10.61,0.00,-0.06,-0.27
81,-0.84,-1.57,8.39,0.00,-0.06,-0.27
86,0.08,-0.27,7.70,0.00,-0.06,-0.27
91,0.50,-0.08,8.04,0.00,-0.06,-0.27
96,0.50,-0.08,8.04,-0.00,-0.02,-0.20
101,0.50,-0.08,8.04,-0.00,-0.03,-0.24
107,0.50,-0.08,8.04,0.01,-0.02,-0.21
111,0.50,-1.04,12.26,0.01,-0.02,-0.21
116,0.80,-0.57,10.65,0.01,-0.02,-0.21
121,0.80,-0.57,10.65,0.08,0.01,-0.18
127,0.80,-0.57,10.65,0.09,0.04,-0.20
131,0.11,-0.54,7.77,0.09,0.04,-0.20
136,-1.88,0.42,7.24,0.09,0.04,-0.20
142,-1.88,0.42,7.24,0.07,0.07,-0.11
146,-1.95,0.08,6.97,0.07,0.07,-0.11
151,-0.11,-0.77,8.39,0.07,0.07,-0.11
157,-0.11,-0.77,8.39,0.03,-0.03,-0.10
161,-0.11,-0.77,8.39,0.05,-0.05,-0.11
166,0.30,-1.99,11.68,0.05,-0.05,-0.11
171,-0.65,-0.92,11.57,0.05,-0.05,-0.11
177,-0.65,-0.92,11.57,0.11,-0.08,-0.09
181,0.80,-1.99,11.57,0.11,-0.08,-0.09
186,-3.18,-1.38,9.42,0.11,-0.08,-0.09
192,-3.18,-1.38,9.42,0.17,0.07,-0.10
197,-3.18,-1.38,9.42,0.16,0.16,-0.08
201,-2.53,0.04,9.16,0.16,0.16,-0.08
206,-2.11,0.34,8.50,0.16,0.16,-0.08
212,-2.11,0.34,8.50,0.13,0.09,0.06
217,-2.11,0.34,8.50,0.10,0.01,0.05
221,-0.11,-1.04,10.45,0.10,0.01,0.05
226,-3.37,-2.30,8.88,0.10,0.01,0.05
231,-2.22,-2.45,9.27,0.10,0.01,0.05
236,-2.22,-2.45,9.27,0.19,-0.01,0.13
241,-2.22,-2.45,9.27,0.21,0.00,0.27
246,-2.22,-2.45,9.27,0.22,0.02,0.33
251,0.69,0.30,10.61,0.22,0.02,0.33
256,1.42,0.77,11.15,0.22,0.02,0.33
261,1.42,0.77,11.15,0.19,-0.11,0.32
266,-0.27,-1.68,9.50,0.19,-0.11,0.32
271,-0.08,-0.88,9.23,0.19,-0.11,0.32
276,-0.08,-0.88,9.23,0.22,-0.03,0.32
282,-0.08,-0.88,9.23,0.21,0.07,0.38
286,-2.99,-0.54,7.89,0.21,0.07,0.38
291,-3.68,1.30,5.98,0.21,0.07,0.38
296,-3.68,1.30,5.98,0.13,0.12,0.41
301,-1.95,-1.42,7.74,0.13,0.12,0.41
306,-1.23,-1.80,6.93,0.13,0.12,0.41
311,-1.23,-1.80,6.93,0.09,-0.14,0.44
317,-1.23,-1.80,6.93,0.11,-0.22,0.51
321,0.69,-1.91,10.07,0.11,-0.22,0.51
326,-0.57,-2.41,13.21,0.11,-0.22,0.51
332,-0.57,-2.41,13.21,0.18,-0.21,0.66
336,-1.65,-1.15,9.42,0.18,-0.21,0.66
341,-0.30,-0.65,11.11,0.18,-0.21,0.66
346,-0.30,-0.65,11.11,0.23,-0.00,0.64
352,-0.30,-0.65,11.11,0.21,0.01,0.64
356,1.34,0.19,12.91,0.21,0.01,0.64
361,1.95,-0.61,9.77,0.21,0.01,0.64
366,1.95,-0.61,9.77,0.12,0.00,0.60
371,0.27,-2.38,10.73,0.12,0.00,0.60
376,-1.15,0.42,6.71,0.12,0.00,0.60
382,-1.15,0.42,6.71,0.04,0.06,0.40
387,-1.15,0.42,6.71,0.00,0.09,0.40
391,-1.42,0.23,6.70,0.00,0.09,0.40
396,0.00,-0.65,9.58,0.00,0.09,0.40
401,0.00,-0.65,9.58,-0.01,-0.09,0.42
406,0.00,-0.65,9.58,0.01,-0.18,0.37
411,2.30,-1.00,11.91,0.01,-0.18,0.37
416,2.30,-0.50,11.11,0.01,-0.18,0.37
421,-0.19,-1.34,9.27,0.01,-0.18,0.37
426,0.15,-0.80,8.66,0.01,-0.18,0.37
431,-0.84,1.19,8.50,0.01,-0.18,0.37
436,-0.84,1.19,8.50,-0.05,0.15,0.23
441,0.80,4.02,8.23,-0.05,0.15,0.23
446,0.96,-1.65,10.15,-0.05,0.15,0.23
452,0.96,-1.65,10.15,-0.12,0.02,0.11
456,1.27,-0.54,11.15,-0.12,0.02,0.11
461,1.27,-0.54,11.15,-0.14,-0.05,-0.03
466,2.84,-2.95,13.79,-0.14,-0.05,-0.03
471,2.03,-2.53,11.60,-0.14,-0.05,-0.03
476,-1.91,-0.15,12.52,-0.14,-0.05,-0.03
481,0.88,-0.38,12.60,-0.14,-0.05,-0.03
487,0.88,-0.38,12.60,-0.04,0.17,0.00
491,-0.61,0.34,10.49,-0.04,0.17,0.00
496,-0.69,-0.84,8.23,-0.04,0.17,0.00
501,0.57,-0.23,7.93,-0.04,0.17,0.00
506,-2.80,1.65,6.85,-0.04,0.17,0.00
511,-2.53,1.04,6.85,-0.04,0.17,0.00
516,-0.84,0.04,6.79,-0.04,0.17,0.00
521,-0.84,0.04,6.79,-0.15,0.02,-0.01
526,0.61,0.23,8.12,-0.15,0.02,-0.01
531,1.91,-0.50,8.93,-0.15,0.02,-0.01
537,2.99,-1.11,9.54,-0.15,0.02,-0.01
541,1.07,-1.27,9.61,-0.15,0.02,-0.01
546,0.23,-0.46,9.12,-0.15,0.02,-0.01
551,-0.15,-1.27,10.00,-0.15,0.02,-0.01
556,-0.15,-1.27,10.00,-0.06,0.01,0.06
561,-3.10,-0.96,11.88,-0.06,0.01,0.06
566,-2.03,-0.46,9.61,-0.06,0.01,0.06
571,0.50,-0.38,12.22,-0.06,0.01,0.06
576,0.42,1.34,9.69,-0.06,0.01,0.06
581,-1.57,1.46,10.80,-0.06,0.01,0.06
586,1.38,0.04,10.39,-0.06,0.01,0.06
592,0.11,0.15,8.50,-0.06,0.01,0.06
596,-3.68,0.80,9.58,-0.06,0.01,0.06
601,-2.18,0.19,10.49,-0.06,0.01,0.06
606,-2.26,0.57,8.77,-0.06,0.01,0.06
611,-2.26,0.57,8.77,-0.07,0.16,0.10
617,-6.32,0.19,8.36,-0.07,0.16,0.10
621,-1.04,-0.23,8.66,-0.07,0.16,0.10
626,-1.04,-1.42,7.63,-0.07,0.16,0.10
631,-3.95,0.69,9.20,-0.07,0.16,0.10
636,-3.64,-1.68,7.43,-0.07,0.16,0.10
641,0.46,-2.03,9.50,-0.07,0.16,0.10
646,-2.61,-2.68,9.08,-0.07,0.16,0.10
651,-5.86,-1.00,9.27,-0.07,0.16,0.10
656,-6.86,-1.57,9.69,-0.07,0.16,0.10
661,-6.86,-1.57,9.69,-0.05,0.04,0.14
666,-0.88,-2.57,10.69,-0.05,0.04,0.14
671,-1.91,-1.27,8.46,-0.05,0.04,0.14
676,0.73,-2.22,10.11,-0.05,0.04,0.14
681,-0.96,-2.53,10.23,-0.05,0.04,0.14
686,-0.96,-2.53,10.23,0.01,-0.05,0.02
691,-2.61,-0.38,8.54,0.01,-0.05,0.02
696,-0.69,0.57,8.58,0.01,-0.05,0.02
701,-2.87,2.68,8.84,0.01,-0.05,0.02
706,-1.15,0.08,9.43,0.01,-0.05,0.02
712,-2.07,-0.69,8.82,0.01,-0.05,0.02
716,-3.41,0.30,8.20,0.01,-0.05,0.02
721,-3.41,0.30,8.20,-0.16,0.06,-0.11
726,-3.41,0.30,8.20,-0.12,-0.05,-0.09
731,-1.19,-1.15,12.07,-0.12,-0.05,-0.09
736,-1.65,-2.41,10.27,-0.12,-0.05,-0.09
742,-1.65,-0.96,10.11,-0.12,-0.05,-0.09
746,1.11,-1.65,9.65,-0.12,-0.05,-0.09
751,-1.27,-0.50,7.09,-0.12,-0.05,-0.09
756,-1.53,0.50,8.01,-0.12,-0.05,-0.09
761,-1.68,0.61,7.20,-0.12,-0.05,-0.09
766,2.64,-0.69,8.81,-0.12,-0.05,-0.09
771,2.57,-0.54,8.16,-0.12,-0.05,-0.09
777,2.34,-1.23,9.58,-0.12,-0.05,-0.09
781,0.30,-0.34,11.00,-0.12,-0.05,-0.09
786,-0.65,-0.11,12.87,-0.12,-0.05,-0.09
791,-0.77,0.61,11.76,-0.12,-0.05,-0.09
797,-0.23,-1.11,11.64,-0.12,-0.05,-0.09
801,-0.88,-0.34,10.07,-0.12,-0.05,-0.09
806,-0.88,-0.34,10.07,-0.09,0.17,-0.19
811,2.61,-0.84,8.85,-0.09,0.17,-0.19
816,2.22,-0.73,8.39,-0.09,0.17,-0.19
821,1.34,0.04,11.15,-0.09,0.17,-0.19
826,0.92,-0.38,10.19,-0.09,0.17,-0.19
832,1.57,0.23,12.61,-0.09,0.17,-0.19
836,-1.61,-1.11,9.80,-0.09,0.17,-0.19
841,-1.61,-1.11,9.80,-0.04,0.08,-0.13
846,-1.61,-1.11,9.80,-0.01,0.12,-0.12
851,-1.99,-1.19,7.31,-0.01,0.12,-0.12
856,-0.92,-0.11,6.36,-0.01,0.12,-0.12
861,2.26,-0.57,8.70,-0.01,0.12,-0.12
866,3.64,-0.54,9.00,-0.01,0.12,-0.12
871,0.80,0.46,8.96,-0.01,0.12,-0.12
876,0.80,0.46,8.96,-0.07,-0.16,-0.08
881,-1.88,0.92,9.65,-0.07,-0.16,-0.08
886,-1.53,-0.65,8.32,-0.07,-0.16,-0.08
891,-2.45,0.15,8.70,-0.07,-0.16,-0.08
896,-0.30,-0.38,10.73,-0.07,-0.16,-0.08
902,0.50,-0.96,10.00,-0.07,-0.16,-0.08
906,-0.57,-0.04,10.19,-0.07,-0.16,-0.08
911,-0.57,-0.04,10.19,-0.03,0.00,-0.06
916,-0.46,-0.08,10.11,-0.03,0.00,-0.06
921,-0.80,-0.27,10.84,-0.03,0.00,-0.06
926,-2.03,-0.54,10.27,-0.03,0.00,-0.06
931,-3.07,-0.04,8.54,-0.03,0.00,-0.06
936,-1.95,-0.61,8.88,-0.03,0.00,-0.06
942,-0.15,0.11,10.39,-0.03,0.00,-0.06
946,-0.15,0.11,10.39,-0.01,0.04,-0.07
951,0.23,-0.04,7.89,-0.01,0.04,-0.07
956,-1.38,0.34,8.96,-0.01,0.04,-0.07
961,-3.03,0.34,10.04,-0.01,0.04,-0.07
966,-3.14,0.96,9.30,-0.01,0.04,-0.07
971,-2.11,1.30,7.43,-0.01,0.04,-0.07
977,-1.27,1.57,10.54,-0.01,0.04,-0.07
981,-1.27,1.57,10.54,-0.02,0.04,-0.04
986,-1.27,1.57,10.54,-0.04,-0.01,-0.06
991,1.15,-0.19,10.88,-0.04,-0.01,-0.06
996,-0.27,0.08,8.58,-0.04,-0.01,-0.06
1001,-1.53,-0.11,8.16,-0.04,-0.01,-0.06
1006,-0.54,-0.34,7.47,-0.04,-0.01,-0.06
1011,-3.03,0.30,8.89,-0.04,-0.01,-0.06
1017,-3.48,1.19,8.96,-0.04,-0.01,-0.06
1021,-0.96,2.18,9.08,-0.04,-0.01,-0.06
1026,-0.46,1.38,10.03,-0.04,-0.01,-0.06
1031,-0.46,0.19,11.04,-0.04,-0.01,-0.06
1036,1.68,0.61,12.64,-0.04,-0.01,-0.06
1041,2.84,1.00,11.42,-0.04,-0.01,-0.06
1046,2.84,1.00,11.42,-0.09,-0.07,0.04
1051,-0.04,-0.27,10.65,-0.09,-0.07,0.04
1057,-1.91,-0.11,10.38,-0.09,-0.07,0.04
1062,-3.83,0.69,9.12,-0.09,-0.07,0.04
1066,-3.83,0.69,9.12,-0.06,0.28,0.05
1072,-4.48,1.65,6.67,-0.06,0.28,0.05
1076,-2.87,-0.04,9.54,-0.06,0.28,0.05
1081,-2.87,-0.04,9.54,-0.11,0.04,-0.03
1086,-2.87,-0.04,9.54,-0.14,-0.10,-0.05
1091,0.77,0.80,11.26,-0.14,-0.10,-0.05
1097,1.99,0.19,9.08,-0.14,-0.10,-0.05
1101,1.99,0.19,9.08,-0.17,-0.22,-0.15
1107,1.99,0.19,9.08,-0.18,-0.14,-0.19
1111,-3.41,-0.38,10.23,-0.18,-0.14,-0.19
1116,-3.41,-0.38,10.23,-0.18,0.06,-0.27
1121,-3.41,-0.38,10.23,-0.18,0.08,-0.27
1126,-1.72,-0.11,9.12,-0.18,0.08,-0.27
1132,-0.88,0.42,9.46,-0.18,0.08,-0.27
1136,-0.88,0.42,9.46,-0.21,0.03,-0.34
1141,1.04,0.50,9.96,-0.21,0.03,-0.34
1146,-2.76,1.80,8.46,-0.21,0.03,-0.34
1151,-3.48,2.41,9.20,-0.21,0.03,-0.34
1156,-1.88,1.65,9.81,-0.21,0.03,-0.34
1161,-0.73,0.80,10.57,-0.21,0.03,-0.34
1166,-0.73,1.57,10.11,-0.21,0.03,-0.34
1172,0.15,1.34,10.39,-0.21,0.03,-0.34
1176,-1.27,1.34,9.08,-0.21,0.03,-0.34
1181,2.34,0.96,10.19,-0.21,0.03,-0.34
1186,2.80,1.19,9.85,-0.21,0.03,-0.34
1191,2.38,1.07,8.04,-0.21,0.03,-0.34
1196,-0.50,0.92,7.73,-0.21,0.03,-0.34
1202,-0.30,-0.57,9.08,-0.21,0.03,-0.34
1206,-0.30,-0.57,9.08,-0.19,0.08,-0.30
1211,-0.92,-0.23,10.80,-0.19,0.08,-0.30
1217,-0.96,-0.04,8.16,-0.19,0.08,-0.30
1221,-0.96,-0.04,8.16,-0.18,0.06,-0.31
1227,-0.96,-0.04,8.16,-0.18,0.01,-0.30
1232,1.84,-1.15,10.34,-0.18,0.01,-0.30
1236,1.84,-1.15,10.34,-0.20,-0.09,-0.34
1241,1.84,-1.15,10.34,-0.20,-0.11,-0.34
1246,1.84,-1.15,10.34,-0.18,-0.08,-0.34
1252,3.14,-0.96,14.05,-0.18,-0.08,-0.34
1256,3.14,-0.96,14.05,-0.11,0.07,-0.30
1261,-0.96,-1.68,11.80,-0.11,0.07,-0.30
1266,1.00,-0.57,9.04,-0.11,0.07,-0.30
1272,0.30,-1.07,10.11,-0.11,0.07,-0.30
1276,0.30,-1.07,10.11,-0.09,0.24,-0.32
1281,-1.84,-0.92,8.08,-0.09,0.24,-0.32
1287,-0.27,-0.42,7.89,-0.09,0.24,-0.32
1291,-0.27,-0.42,7.89,-0.13,0.15,-0.35
1296,-1.65,-0.30,7.77,-0.13,0.15,-0.35
1302,-0.34,-0.80,7.89,-0.13,0.15,-0.35
1306,-0.34,-0.80,7.89,-0.11,-0.04,-0.38
1311,-0.34,-0.80,7.89,-0.10,-0.08,-0.33
1316,1.68,-0.19,10.03,-0.10,-0.08,-0.33
1322,3.45,-0.42,10.15,-0.10,-0.08,-0.33
1326,3.45,-0.42,10.15,-0.07,-0.12,-0.24
1331,-1.91,-0.80,10.27,-0.07,-0.12,-0.24
1337,-2.99,1.04,8.93,-0.07,-0.12,-0.24
1341,-2.99,1.04,8.93,-0.00,0.17,-0.21
1346,-2.99,1.04,8.93,0.01,0.19,-0.19
1351,-0.65,-1.49,9.16,0.01,0.19,-0.19
1356,-0.65,-1.49,9.16,0.02,0.13,-0.16
1362,-0.65,-1.49,9.16,0.03,0.05,-0.12
1368,1.99,-0.92,10.61,0.03,0.05,-0.12
1372,-0.65,-0.73,10.49,0.03,0.05,-0.12
1376,-0.65,-0.73,10.49,-0.01,-0.08,-0.13
1381,-0.65,-0.73,10.49,-0.00,-0.00,-0.11
1386,-2.76,-1.30,11.64,-0.00,-0.00,-0.11
1392,-3.41,-2.18,10.15,-0.00,-0.00,-0.11
1396,-3.41,-2.18,10.15,0.04,0.21,-0.11
1401,-2.30,-1.11,9.50,0.04,0.21,-0.11
1407,-3.91,-0.92,8.35,0.04,0.21,-0.11
1411,-3.91,-0.92,8.35,0.06,0.14,-0.16
1417,-2.45,-2.30,9.12,0.06,0.14,-0.16
1422,-2.64,-2.80,8.54,0.06,0.14,-0.16
1426,-2.64,-2.80,8.54,0.09,-0.05,-0.16
1431,-2.64,-2.80,8.54,0.09,-0.08,-0.19
1436,-1.91,-1.34,10.50,0.09,-0.08,-0.19
1442,-2.22,-2.38,8.84,0.09,-0.08,-0.19
1446,-2.22,-2.38,8.84,0.12,-0.05,-0.14
1451,-1.95,-2.26,8.73,0.12,-0.05,-0.14
1457,-1.61,-2.18,9.80,0.12,-0.05,-0.14
1461,-1.61,-2.18,9.80,0.17,-0.02,-0.19
1466,-1.61,-2.18,9.80,0.17,0.01,-0.17
1471,-3.75,-1.15,8.96,0.17,0.01,-0.17
1477,-1.30,-2.45,8.89,0.17,0.01,-0.17
1481,-1.30,-2.45,8.89,0.16,0.01,-0.13
1488,-1.30,-2.45,8.89,0.19,0.01,-0.17
1492,-0.57,-2.30,10.38,0.19,0.01,-0.17
1496,-0.57,-2.30,10.38,0.19,-0.13,-0.14
1501,-0.57,-2.30,10.38,0.22,-0.21,-0.08
1507,-0.57,-2.30,10.38,0.23,-0.23,-0.04
1512,1.49,-0.73,8.58,0.23,-0.23,-0.04
1516,1.49,-0.73,8.58,0.23,-0.12,-0.02
1521,1.61,-2.68,10.00,0.23,-0.12,-0.02
1526,0.04,-1.95,9.34,0.23,-0.12,-0.02
1532,-4.45,-1.23,8.32,0.23,-0.12,-0.02
1536,-4.45,-1.23,8.32,0.35,0.19,0.10
1541,-0.50,-1.49,7.78,0.35,0.19,0.10
1546,-1.99,-1.34,9.65,0.35,0.19,0.10
1552,-3.37,-0.65,7.05,0.35,0.19,0.10
1556,0.80,-1.91,10.19,0.35,0.19,0.10
1562,3.41,-1.30,9.69,0.35,0.19,0.10
1566,3.41,-1.30,9.69,0.26,-0.34,0.23
1572,1.49,-3.68,10.57,0.26,-0.34,0.23
1577,3.03,-2.18,10.84,0.26,-0.34,0.23
1581,3.03,-2.18,10.84,0.30,-0.23,0.34
1586,3.03,-2.18,10.84,0.29,-0.15,0.38
1591,2.26,-3.79,11.57,0.29,-0.15,0.38
1597,-0.50,-2.07,12.53,0.29,-0.15,0.38
1601,-0.50,-2.07,12.53,0.40,0.08,0.39
1606,-0.50,-2.07,12.53,0.48,0.13,0.38
1612,-0.19,-2.57,11.07,0.48,0.13,0.38
1616,-0.19,-2.57,11.07,0.41,0.15,0.34
1621,-0.19,-2.57,11.07,0.36,0.07,0.39
1626,-0.19,-2.57,11.07,0.33,-0.03,0.43
1632,2.87,-2.80,10.07,0.33,-0.03,0.43
1636,2.87,-2.80,10.07,0.26,-0.28,0.37
1641,2.41,-1.95,11.80,0.26,-0.28,0.37
1646,4.45,-2.57,13.83,0.26,-0.28,0.37
1652,5.29,-3.68,14.98,0.26,-0.28,0.37
1656,5.29,-3.68,14.98,0.26,-0.27,0.46
1661,-3.52,0.88,10.65,0.26,-0.27,0.46
1666,0.27,-1.53,13.75,0.26,-0.27,0.46
1672,-0.61,0.38,9.27,0.26,-0.27,0.46
1676,-0.61,0.38,9.27,0.35,0.26,0.46
1682,-2.30,-1.72,6.09,0.35,0.26,0.46
1687,-2.30,-1.72,6.09,0.30,0.17,0.52
1691,-2.30,-1.72,6.09,0.29,0.01,0.56
1696,0.19,-0.11,8.36,0.29,0.01,0.56
1702,-0.54,1.04,10.61,0.29,0.01,0.56
1707,-0.54,1.04,10.61,0.22,-0.17,0.49
1711,-0.54,1.04,10.61,0.21,-0.15,0.46
1716,-1.53,-1.19,11.92,0.21,-0.15,0.46
1721,-2.45,-1.53,11.07,0.21,-0.15,0.46
1726,-2.45,-1.53,11.07,0.22,0.05,0.39
1732,-2.80,-1.84,9.73,0.22,0.05,0.39
1737,-2.03,1.15,8.04,0.22,0.05,0.39
1741,-2.03,1.15,8.04,0.19,0.08,0.36
1746,-2.03,1.15,8.04,0.14,0.05,0.33
1752,-0.27,0.42,9.27,0.14,0.05,0.33
1757,-0.27,0.42,9.27,0.10,0.04,0.22
1761,-0.27,0.42,9.27,0.09,0.10,0.20
1766,-0.27,0.42,9.27,0.08,0.14,0.17
1772,-1.99,0.80,7.82,0.08,0.14,0.17
1777,-1.99,0.80,7.82,0.09,0.06,0.20
1781,-1.99,0.80,7.82,0.07,-0.02,0.22
1787,0.69,1.57,7.31,0.07,-0.02,0.22
1791,0.69,1.57,7.31,0.04,-0.09,0.22
1797,0.69,1.57,7.31,0.02,-0.07,0.21
1802,-6.40,2.18,7.21,0.02,-0.07,0.21
1807,-6.40,2.18,7.21,0.04,0.13,0.15
1811,-6.40,2.18,7.21,0.04,0.18,0.17
1816,-0.42,1.49,11.99,0.04,0.18,0.17
1822,-1.11,1.04,11.50,0.04,0.18,0.17
1827,-1.11,1.04,11.50,-0.03,-0.02,0.19
1831,-1.11,1.04,11.50,-0.05,-0.09,0.13
1837,1.65,0.34,11.46,-0.05,-0.09,0.13
1841,1.65,0.34,11.46,-0.02,-0.13,0.06
1846,1.65,0.34,11.46,-0.05,-0.06,0.09
1851,-2.14,2.41,8.04,-0.05,-0.06,0.09
1857,-0.61,1.49,10.88,-0.05,-0.06,0.09
1861,-0.61,1.49,10.88,-0.10,0.14,0.07
1866,-0.61,1.49,10.88,-0.10,0.17,-0.02
1872,-0.96,0.84,13.10,-0.10,0.17,-0.02
1877,-0.96,0.84,13.10,-0.11,0.18,-0.05
1881,-0.96,0.84,13.10,-0.10,0.10,0.00
1886,-0.96,0.84,13.10,-0.10,0.06,0.01
1892,-4.06,1.30,10.35,-0.10,0.06,0.01
1896,-4.06,1.30,10.35,-0.12,0.12,-0.12
1902,-4.06,1.30,10.35,-0.13,0.10,-0.15
1907,-1.53,1.84,8.27,-0.13,0.10,-0.15
1912,-1.53,1.84,8.27,-0.16,0.01,-0.13
1917,-1.53,1.84,8.27,-0.17,-0.04,-0.10
1922,1.11,-0.15,9.08,-0.17,-0.04,-0.10
1927,1.11,-0.15,9.08,-0.21,-0.13,-0.15
1931,1.11,-0.15,9.08,-0.20,-0.07,-0.21
1936,-1.57,0.92,8.74,-0.20,-0.07,-0.21
1942,-0.57,-0.08,10.42,-0.20,-0.07,-0.21
1946,-0.57,-0.08,10.42,-0.21,-0.03,-0.17
1952,-0.57,-0.08,10.42,-0.21,-0.12,-0.14
1957,3.79,0.04,9.77,-0.21,-0.12,-0.14
1961,3.79,0.04,9.77,-0.22,-0.29,-0.19
1967,3.79,0.04,9.77,-0.21,-0.30,-0.21
1971,1.57,0.54,12.06,-0.21,-0.30,-0.21
1977,2.41,0.04,12.45,-0.21,-0.30,-0.21
1981,2.41,0.04,12.45,-0.13,0.06,-0.02
1986,2.41,0.04,12.45,-0.11,0.14,0.01
1992,0.84,-0.50,10.15,-0.11,0.14,0.01
1997,0.84,-0.50,10.15,-0.09,0.25,-0.06
2001,0.84,-0.50,10.15,-0.09,0.29,-0.06
2006,0.84,-0.50,10.15,-0.07,0.28,-0.03
2012,-1.30,0.11,7.09,-0.07,0.28,-0.03
2016,-1.30,0.11,7.09,-0.12,0.12,0.04
2021,-1.30,0.11,7.09,-0.13,-0.04,0.02
2026,-1.30,0.11,7.09,-0.16,-0.15,-0.04
2032,-0.19,-1.30,6.89,-0.16,-0.15,-0.04
2036,-0.19,-1.30,6.89,-0.18,-0.25,-0.09
2041,-0.19,-1.30,6.89,-0.16,-0.25,-0.06
2047,-1.57,-1.15,7.93,-0.16,-0.25,-0.06
2051,-1.57,-1.15,7.93,-0.17,-0.14,-0.05
2056,-1.57,-1.15,7.93,-0.14,-0.12,-0.05
2062,0.54,-1.65,11.42,-0.14,-0.12,-0.05
2066,0.54,-1.65,11.42,-0.12,-0.01,-0.08
2072,0.54,-1.65,11.42,-0.11,0.06,-0.07
2077,-3.18,-1.38,10.39,-0.11,0.06,-0.07
2081,-3.18,-1.38,10.39,-0.04,0.17,-0.03
2087,-3.18,-1.38,10.39,-0.02,0.18,-0.01
2091,-3.18,-1.38,10.39,-0.05,0.13,0.01
2097,-1.30,-0.27,7.39,-0.05,0.13,0.01
2101,-1.30,-0.27,7.39,-0.04,0.05,0.03
2106,-1.30,-0.27,7.39,-0.04,0.01,0.01
2112,0.54,-1.00,7.09,-0.04,0.01,0.01
2117,0.54,-1.00,7.09,-0.02,-0.06,0.05
2122,0.54,-1.00,7.09,-0.02,0.00,0.08
2126,0.54,-1.00,7.09,-0.00,0.08,0.08
2132,-12.26,3.07,-2.91,-0.00,0.08,0.08
2136,-12.26,3.07,-2.91,-0.05,0.14,0.05
2141,-12.26,3.07,-2.91,-0.11,-0.05,0.01
2146,-12.26,3.07,-2.91,-0.21,-0.47,0.01
2153,19.65,-2.68,28.16,-0.21,-0.47,0.01
2156,19.65,-2.68,28.16,-0.27,-0.99,0.13
2162,4.10,1.49,22.71,-0.27,-0.99,0.13
2167,-1.38,4.41,15.59,-0.27,-0.99,0.13
2171,-1.38,4.41,15.59,-0.07,1.08,0.06
2176,-1.38,4.41,15.59,0.06,1.36,-0.03
2182,-7.43,0.27,3.71,0.06,1.36,-0.03
2186,-7.43,0.27,3.71,-0.04,1.11,0.02
2191,-7.43,0.27,3.71,-0.07,0.61,0.11
2196,4.14,-1.84,5.86,-0.07,0.61,0.11
2202,-0.30,-1.00,8.43,-0.07,0.61,0.11
2206,-0.30,-1.00,8.43,-0.14,-0.55,-0.00
2211,-0.30,-1.00,8.43,-0.13,-0.47,-0.18
2217,-10.65,1.65,7.78,-0.13,-0.47,-0.18
2221,-10.65,1.65,7.78,-0.10,-0.08,-0.28
2226,-10.65,1.65,7.78,-0.13,0.03,-0.21
2231,-4.75,-0.96,5.98,-0.13,0.03,-0.21
2237,4.86,-4.10,10.73,-0.13,0.03,-0.21
2241,4.86,-4.10,10.73,-0.22,-0.49,-0.28
2246,4.86,-4.10,10.73,-0.26,-0.76,-0.33
2252,8.93,-2.76,17.74,-0.26,-0.76,-0.33
2256,8.93,-2.76,17.74,-0.24,-0.81,-0.40
2261,8.93,-2.76,17.74,-0.12,-0.48,-0.41
2267,8.93,-2.76,17.74,-0.02,0.19,-0.38
2271,8.93,-2.76,17.74,-0.10,0.69,-0.39
2276,8.93,-2.76,17.74,0.02,0.87,-0.42
2281,8.93,-2.76,17.74,0.02,0.83,-0.40
2287,-0.73,-0.92,7.17,0.02,0.83,-0.40
2291,-0.73,-0.92,7.17,-0.03,0.32,-0.36
2296,-0.73,-0.92,7.17,-0.03,0.05,-0.38
2301,-3.45,-0.15,4.59,-0.03,0.05,-0.38
2308,-6.63,1.57,5.67,-0.03,0.05,-0.38
2311,-6.63,1.57,5.67,-0.01,0.04,-0.41
2316,-6.51,0.19,7.05,-0.01,0.04,-0.41
2322,-4.98,-0.77,7.89,-0.01,0.04,-0.41
2327,-4.98,-0.77,7.89,-0.01,0.09,-0.36
2331,-4.98,-0.77,7.89,-0.04,-0.11,-0.33
2337,-4.98,-0.77,7.89,-0.05,-0.38,-0.29
2341,-4.98,-0.77,7.89,-0.09,-0.58,-0.26
2346,-4.98,-0.77,7.89,-0.09,-0.64,-0.25
2351,-1.19,-0.88,8.12,-0.09,-0.64,-0.25
2357,-5.55,-0.15,7.74,-0.09,-0.64,-0.25
2361,-5.55,-0.15,7.74,0.10,0.04,-0.19
2366,-5.55,-0.15,7.74,0.14,0.23,-0.07
2372,4.48,-2.18,3.22,0.14,0.23,-0.07
2376,4.48,-2.18,3.22,0.19,0.26,0.13
2381,4.48,-2.18,3.22,0.19,0.32,0.08
2386,4.48,-2.18,3.22,0.21,0.42,-0.01
2392,-11.64,-2.95,16.66,0.21,0.42,-0.01
2396,-11.64,-2.95,16.66,0.23,0.35,-0.04
2401,-11.64,-2.95,16.66,0.21,0.05,0.04
2406,-11.64,-2.95,16.66,0.21,-0.30,0.11
2413,16.43,-4.52,13.48,0.21,-0.30,0.11
2417,16.43,-4.52,13.48,0.17,-0.69,0.12
2421,-3.79,-3.91,-2.34,0.17,-0.69,0.12
2427,1.65,-2.34,1.30,0.17,-0.69,0.12
2431,1.65,-2.34,1.30,0.24,0.07,0.09
2436,1.65,-2.34,1.30,0.18,0.28,0.08
2442,0.11,-0.27,15.10,0.18,0.28,0.08
2446,0.11,-0.27,15.10,0.16,0.25,0.03
2451,0.11,-0.27,15.10,0.22,0.14,0.03
2457,1.46,-3.33,11.54,0.22,0.14,0.03
2461,1.46,-3.33,11.54,0.23,0.03,0.01
2466,1.46,-3.33,11.54,0.24,-0.08,0.04
2471,1.46,-3.33,11.54,0.22,-0.14,0.08
2477,-0.11,1.04,8.50,0.22,-0.14,0.08
2482,-0.11,1.04,8.50,0.13,0.10,-0.03
2486,-0.11,1.04,8.50,0.15,0.32,-0.07
2492,-0.11,1.04,8.50,0.14,0.49,-0.06
2496,-0.11,1.04,8.50,0.13,0.49,-0.03
2501,-0.11,1.04,8.50,0.06,0.23,0.04
2506,-0.11,1.04,8.50,0.06,-0.24,0.12
2512,11.30,-2.53,12.11,0.06,-0.24,0.12
2516,11.30,-2.53,12.11,0.07,-0.80,0.05
2521,11.30,-2.53,12.11,0.05,-0.79,-0.02
2527,11.30,-2.53,12.11,0.12,-0.52,-0.04
2531,11.30,-2.53,12.11,0.21,-0.08,-0.00
2536,11.30,-2.53,12.11,0.22,0.30,0.08
2541,11.30,-2.53,12.11,0.22,0.58,0.17
2547,-1.19,-0.96,8.89,0.22,0.58,0.17
2551,-1.19,-0.96,8.89,0.18,0.47,0.23
2556,-1.19,-0.96,8.89,0.20,0.24,0.20
2562,-1.19,-0.96,8.89,0.21,-0.04,0.19
2566,-1.19,-0.96,8.89,0.18,-0.22,0.21
2571,-1.19,-0.96,8.89,0.14,-0.20,0.23
2576,-1.19,-0.96,8.89,0.12,-0.07,0.19
2582,-10.27,-0.30,13.18,0.12,-0.07,0.19
2586,-10.27,-0.30,13.18,0.20,0.30,0.10
2591,-10.27,-0.30,13.18,0.21,0.34,0.14
2596,0.38,-3.33,8.58,0.21,0.34,0.14
2601,0.38,-3.33,8.58,0.25,-0.11,0.41
2606,0.38,-3.33,8.58,0.21,-0.40,0.44
2611,0.38,-3.33,8.58,0.19,-0.53,0.37
2617,-6.36,1.88,7.55,0.19,-0.53,0.37
2621,-6.36,1.88,7.55,0.15,-0.18,0.18
2626,-6.36,1.88,7.55,0.19,0.13,0.24
2632,-12.07,-3.56,14.52,0.19,0.13,0.24
2636,-12.07,-3.56,14.52,0.26,0.48,0.44
2641,-12.07,-3.56,14.52,0.24,0.38,0.49
2647,-12.07,-3.56,14.52,0.26,0.12,0.47
2651,-12.07,-3.56,14.52,0.25,-0.14,0.42
2656,-12.07,-3.56,14.52,0.20,-0.33,0.38
2661,-12.07,-3.56,14.52,0.14,-0.49,0.41
2667,-0.46,0.96,8.39,0.14,-0.49,0.41
2671,-0.46,0.96,8.39,0.11,-0.25,0.44
2676,-0.46,0.96,8.39,0.09,-0.01,0.42
2682,-0.46,0.96,8.39,0.12,0.13,0.44
2686,-0.46,0.96,8.39,0.16,0.15,0.51
2691,-0.46,0.96,8.39,0.08,0.08,0.54
2696,-0.46,0.96,8.39,0.08,-0.10,0.54
2702,-1.80,-0.15,7.47,0.08,-0.10,0.54
2706,-1.80,-0.15,7.47,0.07,-0.19,0.38
2711,-1.80,-0.15,7.47,0.10,-0.12,0.34
2716,-1.80,-0.15,7.47,0.08,-0.08,0.42
2721,-1.80,-0.15,7.47,0.12,0.01,0.53
2726,-1.80,-0.15,7.47,0.09,-0.01,0.62
2731,-1.80,-0.15,7.47,0.02,-0.12,0.59
2737,-2.45,0.65,8.77,0.02,-0.12,0.59
2742,-2.45,0.65,8.77,0.06,-0.11,0.33
2746,-2.45,0.65,8.77,0.03,-0.07,0.29
2752,-2.45,0.65,8.77,0.09,-0.08,0.38
2756,-2.45,0.65,8.77,0.04,-0.04,0.49
2761,-2.45,0.65,8.77,-0.05,-0.10,0.52
2766,-2.45,0.65,8.77,-0.04,-0.29,0.47
2772,5.79,2.14,6.20,-0.04,-0.29,0.47
2776,5.79,2.14,6.20,-0.12,-0.51,0.29
2781,5.79,2.14,6.20,-0.03,-0.43,0.27
2787,5.79,2.14,6.20,-0.01,-0.30,0.34
2791,5.79,2.14,6.20,-0.05,-0.16,0.43
2796,5.79,2.14,6.20,-0.12,-0.07,0.44
2801,5.79,2.14,6.20,-0.07,-0.08,0.37
2807,15.55,-3.52,29.27,-0.07,-0.08,0.37
2811,15.55,-3.52,29.27,-0.06,-0.04,0.30
2816,15.55,-3.52,29.27,0.07,0.12,0.35
2822,15.55,-3.52,29.27,0.10,0.38,0.42
2826,15.55,-3.52,29.27,0.12,0.66,0.48
2831,15.55,-3.52,29.27,0.17,0.81,0.50
2837,15.55,-3.52,29.27,0.13,0.84,0.49
2841,15.55,-3.52,29.27,0.06,0.73,0.45
2846,15.55,-3.52,29.27,0.02,0.55,0.38
2851,15.55,-3.52,29.27,-0.08,0.34,0.30
2856,-3.41,1.65,4.98,-0.08,0.34,0.30
2861,-3.41,1.65,4.98,-0.24,0.00,0.08
2866,-3.41,1.65,4.98,-0.27,-0.13,0.05
2871,-3.41,1.65,4.98,-0.26,-0.21,0.05
2876,-9.20,1.80,-4.37,-0.26,-0.21,0.05
2882,-9.20,1.80,-4.37,-0.25,-0.21,0.05
2886,-9.20,1.80,-4.37,-0.40,-0.43,-0.06
2892,16.09,0.08,30.11,-0.40,-0.43,-0.06
2896,16.09,0.08,30.11,-0.58,-1.03,-0.14
2901,16.09,0.08,30.11,-0.56,-1.03,-0.07
2906,16.09,0.08,30.11,-0.11,0.05,0.15
2911,16.09,0.08,30.11,-0.32,1.21,0.34
2916,16.09,0.08,30.11,0.03,1.54,0.20
2921,16.09,0.08,30.11,0.12,1.52,0.09
2927,-7.70,-3.29,5.71,0.12,1.52,0.09
2931,-7.70,-3.29,5.71,0.09,1.02,0.12
2936,-7.70,-3.29,5.71,-0.02,0.50,0.25
2941,-7.70,-3.29,5.71,-0.16,-0.04,0.38
2946,-7.70,-3.29,5.71,-0.30,-0.39,0.37
2951,-7.70,-3.29,5.71,-0.40,-0.51,0.23
2956,-7.70,-3.29,5.71,-0.43,-0.39,-0.02
2962,-6.78,2.99,10.57,-0.43,-0.39,-0.02
2966,-6.78,2.99,10.57,-0.47,0.17,-0.45
2971,-6.78,2.99,10.57,-0.43,0.43,-0.45
2977,-6.78,2.99,10.57,-0.39,0.58,-0.38
2981,-6.78,2.99,10.57,-0.46,0.44,-0.32
2986,-6.78,2.99,10.57,-0.47,0.13,-0.34
2991,-6.78,2.99,10.57,-0.55,-0.18,-0.47
2997,4.21,1.42,7.81,-0.55,-0.18,-0.47
3001,4.21,1.42,7.81,-0.51,-0.35,-0.72
3006,4.21,1.42,7.81,-0.38,-0.01,-0.74
3011,4.21,1.42,7.81,-0.40,0.37,-0.69
3016,4.21,1.42,7.81,-0.38,0.61,-0.59
3021,4.21,1.42,7.81,-0.27,0.70,-0.51
3027,4.21,1.42,7.81,-0.28,0.61,-0.44
3031,4.21,1.42,7.81,-0.39,0.29,-0.43
3036,4.21,1.42,7.81,-0.27,-0.06,-0.45
3041,4.21,1.42,7.81,-0.28,-0.19,-0.48
3047,4.21,1.42,7.81,-0.32,-0.05,-0.48
3051,4.21,1.42,7.81,-0.30,0.14,-0.49
3056,4.21,1.42,7.81,-0.31,0.21,-0.58
3061,4.21,1.42,7.81,-0.33,0.26,-0.72
3067,-16.55,4.25,-5.82,-0.33,0.26,-0.72
3071,-16.55,4.25,-5.82,-0.38,0.19,-0.88
3076,-16.55,4.25,-5.82,-0.35,-0.26,-0.78
3082,16.32,-2.34,18.12,-0.35,-0.26,-0.78
3087,19.50,-4.25,20.69,-0.35,-0.26,-0.78
3091,19.50,-4.25,20.69,-0.63,-1.33,-0.64
3096,19.50,-4.25,20.69,-0.10,-0.88,-0.69
3101,19.50,-4.25,20.69,-0.11,0.54,-0.68
3106,19.50,-4.25,20.69,-0.41,1.29,-0.70
3111,19.50,-4.25,20.69,-0.05,1.50,-0.78
3117,-14.64,3.83,1.30,-0.05,1.50,-0.78
3121,-14.64,3.83,1.30,-0.10,1.35,-0.71
3126,-14.64,3.83,1.30,-0.01,0.92,-0.62
3132,-14.64,3.83,1.30,-0.00,0.61,-0.57
3136,-14.64,3.83,1.30,-0.08,0.29,-0.54
3141,-14.64,3.83,1.30,-0.17,-0.31,-0.54
3146,-14.64,3.83,1.30,-0.22,-0.99,-0.60
3152,13.98,-6.17,13.60,-0.22,-0.99,-0.60
3156,13.98,-6.17,13.60,-0.86,-2.26,-0.81
3161,13.98,-6.17,13.60,-1.07,-2.77,-0.83
3166,13.98,-6.17,13.60,0.53,-2.43,-0.79
3171,13.98,-6.17,13.60,0.84,0.32,-0.69
3176,13.98,-6.17,13.60,-0.87,2.37,-0.53
3181,13.98,-6.17,13.60,0.12,2.88,-0.66
3187,-14.33,1.30,-23.55,0.12,2.88,-0.66
3191,-14.33,1.30,-23.55,0.20,2.41,-0.56
3197,-14.33,1.30,-23.55,0.06,1.75,-0.43
3201,-14.33,1.30,-23.55,0.13,1.07,-0.34
3206,-14.33,1.30,-23.55,0.01,0.30,-0.30
3211,-3.83,4.45,-6.63,0.01,0.30,-0.30
3216,-3.83,4.45,-6.63,-0.15,-0.90,-0.45
3222,-10.04,2.38,-3.68,-0.15,-0.90,-0.45
3226,-10.04,2.38,-3.68,-0.30,-1.30,-0.89
3231,-10.04,2.38,-3.68,-0.34,-1.67,-0.82
3237,-10.04,2.38,-3.68,-0.26,-2.04,-0.56
3241,-10.04,2.38,-3.68,-0.23,-2.22,-0.29
3246,-10.04,2.38,-3.68,-0.22,-2.26,-0.11
3251,-10.04,2.38,-3.68,0.84,-0.89,-0.10
3257,-9.89,0.04,-8.31,0.84,-0.89,-0.10
3261,-9.89,0.04,-8.31,-0.04,1.76,0.16
3266,-9.89,0.04,-8.31,0.11,1.89,0.25
3272,-9.89,0.04,-8.31,-0.01,1.89,0.38
3276,-9.89,0.04,-8.31,0.32,1.54,0.44
3281,-9.89,0.04,-8.31,0.21,0.74,0.47
3286,-9.89,0.04,-8.31,0.10,-0.14,0.43
3292,7.97,-5.05,6.63,0.10,-0.14,0.43
3296,7.97,-5.05,6.63,-0.10,-1.31,0.16
3301,7.97,-5.05,6.63,0.02,-1.49,-0.02
3307,1.76,-4.06,8.54,0.02,-1.49,-0.02
3311,1.76,-4.06,8.54,0.35,-0.95,-0.18
3317,1.76,-4.06,8.54,0.60,0.09,-0.08
3321,1.76,-4.06,8.54,0.21,0.92,0.02
3327,-26.73,-0.84,13.37,0.21,0.92,0.02
3331,-26.73,-0.84,13.37,0.34,1.33,-0.09
3336,-26.73,-0.84,13.37,0.37,0.92,0.06
3342,6.36,-3.14,12.52,0.37,0.92,0.06
3346,6.36,-3.14,12.52,0.39,-0.57,0.59
3351,6.36,-3.14,12.52,0.18,-1.07,0.70
3356,6.36,-3.14,12.52,-0.12,-1.34,0.63
3362,12.91,-4.67,6.55,-0.12,-1.34,0.63
3366,12.91,-4.67,6.55,0.61,-0.92,0.41
3371,12.91,-4.67,6.55,0.72,0.41,0.62
3377,-10.53,-1.80,6.28,0.72,0.41,0.62
3381,-10.53,-1.80,6.28,0.67,1.53,0.45
3386,-10.53,-1.80,6.28,0.56,1.51,0.29
3392,-10.53,-1.80,6.28,0.50,1.31,0.24
3397,-25.32,2.45,9.04,0.50,1.31,0.24
3401,-25.32,2.45,9.04,0.28,0.88,0.19
3406,-25.32,2.45,9.04,0.23,0.56,0.21
3412,-0.77,-8.66,14.60,0.23,0.56,0.21
3416,-0.77,-8.66,14.60,0.22,-0.80,0.44
3421,-0.77,-8.66,14.60,0.09,-1.27,0.44
3427,-0.77,-8.66,14.60,-0.03,-1.58,0.32
3432,19.34,1.68,12.38,-0.03,-1.58,0.32
3437,19.34,1.68,12.38,-0.11,-1.41,-0.04
3441,19.34,1.68,12.38,0.14,-1.08,-0.21
3447,-1.53,-2.61,3.99,0.14,-1.08,-0.21
3451,-1.53,-2.61,3.99,0.40,0.84,-0.08
3456,-1.53,-2.61,3.99,0.12,1.33,0.01
3462,-1.53,-2.61,3.99,0.19,1.38,0.12
3466,-1.53,-2.61,3.99,0.19,1.07,0.28
3471,-1.53,-2.61,3.99,0.27,0.93,0.33
3476,-1.53,-2.61,3.99,0.21,0.78,0.31
3482,-7.12,-2.99,11.45,0.21,0.78,0.31
3486,-7.12,-2.99,11.45,0.34,0.19,0.23
3491,-7.12,-2.99,11.45,0.23,0.14,0.14
3497,-7.12,-2.99,11.45,0.15,-0.03,0.03
3501,-7.12,-2.99,11.45,-0.05,-0.53,-0.03
3506,-7.12,-2.99,11.45,-0.22,-0.92,-0.07
3511,-7.12,-2.99,11.45,-0.31,-1.16,-0.08
3517,7.59,-1.95,8.74,-0.31,-1.16,-0.08
3521,7.59,-1.95,8.74,-0.20,-1.05,-0.10
3526,7.59,-1.95,8.74,-0.19,-0.93,-0.04
3532,7.59,-1.95,8.74,-0.15,-0.82,0.09
3536,7.59,-1.95,8.74,0.00,-0.63,0.17
3541,7.59,-1.95,8.74,0.02,-0.29,0.16
3547,7.59,-1.95,8.74,-0.10,0.03,0.06
3552,1.04,-3.71,18.34,-0.10,0.03,0.06
3556,1.04,-3.71,18.34,-0.01,0.17,-0.12
3561,1.04,-3.71,18.34,0.01,0.15,-0.10
3567,8.89,-2.38,7.16,0.01,0.15,-0.10
3571,8.89,-2.38,7.16,0.09,0.12,0.04
3577,8.89,-2.38,7.16,0.08,0.20,0.10
3581,8.89,-2.38,7.16,0.05,0.27,0.08
3587,-5.40,-1.00,7.17,0.05,0.27,0.08
3591,-5.40,-1.00,7.17,0.04,0.42,-0.15
3596,-5.40,-1.00,7.17,0.08,0.48,-0.20
3602,-6.55,-2.26,1.95,0.08,0.48,-0.20
3606,-6.55,-2.26,1.95,0.09,0.23,-0.07
3611,-6.55,-2.26,1.95,0.05,-0.01,-0.01
3616,-6.55,-2.26,1.95,-0.03,-0.41,-0.03
3622,8.88,-0.34,7.28,-0.03,-0.41,-0.03
3626,8.88,-0.34,7.28,-0.15,-0.95,-0.25
3631,8.88,-0.34,7.28,-0.18,-0.95,-0.30
3637,-2.45,-1.19,11.72,-0.18,-0.95,-0.30
3641,-2.45,-1.19,11.72,0.02,-0.39,-0.20
3646,-2.45,-1.19,11.72,0.04,-0.09,-0.10
3651,-2.45,-1.19,11.72,0.06,0.18,0.02
3657,-1.88,-1.38,15.05,0.06,0.18,0.02
3661,-1.88,-1.38,15.05,0.13,0.39,0.12
3666,-1.88,-1.38,15.05,0.15,0.39,0.10
3672,-0.77,-2.03,11.34,0.15,0.39,0.10
3676,-0.77,-2.03,11.34,0.20,0.24,0.09
3681,-0.77,-2.03,11.34,0.10,0.09,0.13
3687,-0.77,-2.03,11.34,0.07,-0.06,0.18
3691,-0.77,-2.03,11.34,0.03,-0.19,0.20
3697,-0.77,-2.03,11.34,-0.04,-0.22,0.16
3701,-0.77,-2.03,11.34,-0.00,-0.16,0.13
3707,2.41,-2.38,7.66,-0.00,-0.16,0.13
3711,2.41,-2.38,7.66,0.04,-0.04,0.24
3716,2.41,-2.38,7.66,0.06,0.01,0.29
3722,2.41,-2.38,7.66,0.06,0.12,0.26
3726,2.41,-2.38,7.66,0.06,0.19,0.20
3731,2.41,-2.38,7.66,0.09,0.17,0.20
3737,2.41,-2.38,7.66,0.06,0.14,0.27
3742,2.49,-0.27,12.98,0.06,0.14,0.27
3746,2.49,-0.27,12.98,0.05,0.04,0.46
3751,2.49,-0.27,12.98,0.05,0.04,0.43
3757,-5.32,-1.57,5.29,0.05,0.04,0.43
3761,-5.32,-1.57,5.29,0.10,0.18,0.23
3766,-5.32,-1.57,5.29,0.07,0.27,0.23
3771,-5.32,-1.57,5.29,0.11,0.28,0.29
3777,0.34,-1.61,5.90,0.11,0.28,0.29
3781,0.34,-1.61,5.90,0.02,-0.10,0.37
3786,0.34,-1.61,5.90,-0.07,-0.35,0.30
3792,4.75,-1.07,10.96,-0.07,-0.35,0.30
3796,4.75,-1.07,10.96,-0.12,-0.64,0.13
3801,4.75,-1.07,10.96,-0.06,-0.55,0.07
3806,4.75,-1.07,10.96,-0.02,-0.29,0.02
3812,-2.87,-0.46,14.79,-0.02,-0.29,0.02
3817,-2.87,-0.46,14.79,0.04,0.16,0.04
3821,-2.87,-0.46,14.79,0.04,0.23,0.07
3827,0.34,-1.15,8.23,0.04,0.23,0.07
3831,0.34,-1.15,8.23,0.01,0.11,0.11
3836,0.34,-1.15,8.23,-0.01,0.01,0.08
3841,0.34,-1.15,8.23,-0.00,-0.02,0.03
3847,-5.52,1.11,5.86,-0.00,-0.02,0.03
3851,-5.52,1.11,5.86,-0.01,0.09,-0.05
3856,-5.52,1.11,5.86,0.03,0.14,-0.01
3862,-6.44,0.61,15.14,0.03,0.14,-0.01
3866,-6.44,0.61,15.14,0.06,0.20,0.10
3871,-6.44,0.61,15.14,0.03,0.17,0.08
3876,-6.44,0.61,15.14,0.03,0.12,0.02
3882,-1.80,0.69,9.69,0.03,0.12,0.02
3886,-1.80,0.69,9.69,-0.06,0.01,-0.13
3892,-1.80,0.69,9.69,-0.04,-0.04,-0.12
3897,-3.18,-3.18,7.36,-0.04,-0.04,-0.12
3901,-3.18,-3.18,7.36,-0.02,-0.02,-0.08
3906,-3.18,-3.18,7.36,0.00,-0.01,-0.06
3912,-3.18,-3.18,7.36,0.00,-0.03,-0.04
3916,-3.18,-3.18,7.36,-0.05,-0.10,-0.02
3921,-3.18,-3.18,7.36,-0.02,-0.17,-0.04
3927,-3.18,-3.18,7.36,-0.05,-0.21,-0.09
3932,2.07,0.15,7.39,-0.05,-0.21,-0.09
3936,2.07,0.15,7.39,-0.02,-0.09,-0.11
3941,2.07,0.15,7.39,0.03,0.11,-0.07
3947,2.07,0.15,7.39,0.05,0.23,-0.00
3951,2.07,0.15,7.39,0.04,0.26,0.04
3956,2.07,0.15,7.39,0.09,0.27,-0.00
3962,2.07,0.15,7.39,0.07,0.18,-0.09
3967,-5.36,1.00,-1.80,0.07,0.18,-0.09
3971,-5.36,1.00,-1.80,-0.11,-0.38,-0.13
3976,-5.36,1.00,-1.80,-0.30,-0.92,-0.05
3981,31.64,-6.51,40.22,-0.30,-0.92,-0.05
3987,31.80,-5.29,40.95,-0.30,-0.92,-0.05
3991,31.80,-5.29,40.95,0.61,-0.51,0.04
3996,31.80,-5.29,40.95,0.06,1.25,0.04
4002,-15.70,-4.06,-0.57,0.06,1.25,0.04
4006,-15.70,-4.06,-0.57,0.52,2.05,-0.18
4011,-15.70,-4.06,-0.57,0.57,1.97,-0.05
4017,-3.56,-1.99,-1.34,0.57,1.97,-0.05
4021,-3.56,-1.99,-1.34,0.28,1.00,0.37
4026,-3.56,-1.99,-1.34,0.12,0.20,0.46
4031,-3.56,-1.99,-1.34,0.05,-0.53,0.40
4037,-6.29,3.18,6.21,0.05,-0.53,0.40
4041,-6.29,3.18,6.21,-0.12,-0.88,-0.02
4047,-6.29,3.18,6.21,-0.15,-0.74,-0.14
4052,-5.29,-1.46,15.14,-0.15,-0.74,-0.14
4056,-5.29,-1.46,15.14,0.00,-0.39,0.02
4061,-5.29,-1.46,15.14,-0.01,-0.35,0.22
4066,-5.29,-1.46,15.14,0.08,-0.32,0.37
4072,6.40,1.27,6.13,0.08,-0.32,0.37
4076,6.40,1.27,6.13,0.02,-0.40,0.36
4081,6.40,1.27,6.13,-0.06,-0.52,0.25
4087,6.40,1.27,6.13,-0.07,-0.40,0.10
4091,6.40,1.27,6.13,-0.08,-0.13,-0.01
4096,6.40,1.27,6.13,-0.11,0.11,-0.03
4101,-0.57,-4.10,12.41,-0.11,0.11,-0.03
4107,-1.34,-3.91,11.84,-0.11,0.11,-0.03
4111,-1.34,-3.91,11.84,0.08,0.19,0.09
4116,-1.34,-3.91,11.84,0.12,0.19,0.03
4122,12.26,-1.07,4.29,0.12,0.19,0.03
4126,12.26,-1.07,4.29,0.06,-0.27,0.05
4131,12.26,-1.07,4.29,-0.04,-0.30,0.05
4137,-9.00,4.33,10.80,-0.04,-0.30,0.05
4141,-9.00,4.33,10.80,-0.06,0.21,-0.06
4146,-9.00,4.33,10.80,-0.01,0.38,-0.05
4151,-9.00,4.33,10.80,0.03,0.43,0.01
4156,0.46,-3.29,11.11,0.03,0.43,0.01
4161,0.46,-3.29,11.11,0.09,0.08,0.12
4166,0.46,-3.29,11.11,0.07,-0.10,0.07
4172,7.55,1.53,8.04,0.07,-0.10,0.07
4176,7.55,1.53,8.04,-0.05,-0.32,-0.06
4181,7.55,1.53,8.04,-0.06,-0.24,-0.06
4186,7.55,1.53,8.04,-0.08,-0.02,-0.04
4192,-1.65,-0.69,9.39,-0.08,-0.02,-0.04
4196,-1.65,-0.69,9.39,-0.08,0.27,0.01
4201,-1.65,-0.69,9.39,-0.06,0.21,0.02
4207,-1.65,-0.69,9.39,-0.05,0.12,0.01
4211,-1.65,-0.69,9.39,-0.03,0.22,-0.02
4216,-1.65,-0.69,9.39,-0.01,0.41,-0.06
4221,-1.65,-0.69,9.39,0.06,0.63,-0.11
4227,-28.12,7.01,14.33,0.06,0.63,-0.11
4231,-28.12,7.01,14.33,-0.12,0.92,-0.22
4236,-28.12,7.01,14.33,-0.13,0.45,-0.19
4242,15.48,-0.77,10.00,-0.13,0.45,-0.19
4246,15.48,-0.77,10.00,-0.43,-0.87,-0.10
4251,15.48,-0.77,10.00,-0.36,-1.18,-0.13
4257,15.48,-0.77,10.00,-0.36,-1.22,-0.23
4261,15.48,-0.77,10.00,-0.26,-0.94,-0.32
4266,15.48,-0.77,10.00,-0.20,-0.48,-0.37
4271,15.48,-0.77,10.00,-0.17,-0.09,-0.38
4277,-6.55,-3.83,15.36,-0.17,-0.09,-0.38
4281,-6.55,-3.83,15.36,-0.18,0.20,-0.23
4286,-6.55,-3.83,15.36,-0.18,0.05,-0.12
4292,-6.55,-3.83,15.36,-0.10,-0.13,-0.10
4296,-6.55,-3.83,15.36,-0.09,-0.29,-0.13
4301,-6.55,-3.83,15.36,-0.06,-0.32,-0.19
4306,-6.55,-3.83,15.36,-0.11,-0.20,-0.23
4312,-2.38,4.33,7.28,-0.11,-0.20,-0.23
4316,-2.38,4.33,7.28,-0.15,0.34,-0.34
4321,-2.38,4.33,7.28,-0.20,0.54,-0.43
4327,-2.38,4.33,7.28,-0.19,0.62,-0.48
4331,-2.38,4.33,7.28,-0.12,0.54,-0.44
4336,-2.38,4.33,7.28,-0.13,0.33,-0.32
4341,-2.38,4.33,7.28,-0.08,0.03,-0.21
4347,-2.38,4.33,7.28,-0.13,-0.25,-0.17
4351,-2.38,4.33,7.28,-0.16,-0.41,-0.24
4356,-2.38,4.33,7.28,-0.21,-0.43,-0.34
4361,-1.76,1.11,7.85,-0.21,-0.43,-0.34
4367,-2.26,-1.46,9.69,-0.21,-0.43,-0.34
4371,-2.26,-1.46,9.69,-0.14,0.02,-0.24
4377,-2.26,-1.46,9.69,-0.12,0.14,-0.15
4381,-2.26,-1.46,9.69,-0.09,0.16,-0.12
4386,-2.26,-1.46,9.69,-0.08,0.04,-0.12
4391,-2.26,-1.46,9.69,-0.08,-0.12,-0.12
4397,3.41,-0.54,10.65,-0.08,-0.12,-0.12
4401,3.41,-0.54,10.65,-0.09,-0.21,-0.14
4406,3.41,-0.54,10.65,-0.09,-0.12,-0.11
4411,3.41,-0.54,10.65,-0.06,0.04,-0.06
4417,-2.91,-0.27,12.18,-0.06,0.04,-0.06
4421,-2.91,-0.27,12.18,-0.05,0.22,0.03
4426,-2.91,-0.27,12.18,-0.06,0.21,0.02
4432,1.53,-1.68,9.42,-0.06,0.21,0.02
4436,2.26,-1.61,7.93,-0.06,0.21,0.02
4441,2.26,-1.61,7.93,-0.10,-0.11,-0.05
4447,2.26,-1.61,7.93,-0.10,-0.16,-0.04
4451,2.26,-1.61,7.93,-0.08,-0.14,0.02
4456,2.26,-1.61,7.93,-0.04,-0.05,0.08
4461,2.26,-1.61,7.93,-0.02,0.06,0.12
4467,2.26,-1.61,7.93,0.01,0.15,0.12
4471,2.26,-1.61,7.93,0.01,0.18,0.10
4476,2.26,-1.61,7.93,0.02,0.16,0.11
4481,2.26,-1.61,7.93,-0.01,0.12,0.13
4487,0.69,-1.88,8.01,-0.01,0.12,0.13
4491,0.69,-1.88,8.01,-0.04,-0.12,0.17
4496,0.69,-1.88,8.01,-0.04,-0.19,0.21
4502,1.53,-0.50,12.26,-0.04,-0.19,0.21
4506,1.53,-0.50,12.26,-0.02,-0.13,0.32
4511,1.53,-0.50,12.26,-0.01,-0.01,0.37
4517,1.53,-0.50,12.26,-0.00,0.15,0.39
4521,1.53,-0.50,12.26,0.02,0.28,0.39
4526,1.53,-0.50,12.26,0.01,0.33,0.38
4531,1.53,-0.50,12.26,0.01,0.29,0.38
4537,0.23,-2.76,6.93,0.01,0.29,0.38
4541,0.23,-2.76,6.93,-0.01,0.00,0.42
4546,0.23,-2.76,6.93,0.00,-0.10,0.42
4552,0.23,-2.76,6.93,-0.00,-0.12,0.39
4556,0.23,-2.76,6.93,-0.00,-0.12,0.34
4561,0.23,-2.76,6.93,-0.01,-0.13,0.28
4566,0.23,-2.76,6.93,-0.01,-0.09,0.23
4572,-2.45,-0.46,8.16,-0.01,-0.09,0.23
4576,-2.45,-0.46,8.16,-0.06,-0.06,0.16
4581,-2.45,-0.46,8.16,-0.08,-0.03,0.07
4587,-2.45,-0.46,8.16,-0.11,-0.04,-0.01
4591,-2.45,-0.46,8.16,-0.10,-0.07,-0.06
4596,-2.45,-0.46,8.16,-0.07,-0.06,-0.06
4601,-2.45,-0.46,8.16,-0.08,-0.03,-0.04
4607,-2.45,-0.46,8.16,-0.08,0.03,-0.04
4611,-2.45,-0.46,8.16,-0.08,0.10,-0.08
4616,-2.45,-0.46,8.16,-0.09,0.17,-0.15
4621,-4.71,0.30,10.00,-0.09,0.17,-0.15
4627,-2.87,0.27,7.12,-0.09,0.17,-0.15
4631,-2.87,0.27,7.12,-0.08,0.12,-0.16
4637,-2.87,0.27,7.12,-0.08,0.01,-0.12
4641,-2.87,0.27,7.12,-0.08,-0.07,-0.10
4646,-2.87,0.27,7.12,-0.07,-0.12,-0.11
4651,-2.87,0.27,7.12,-0.08,-0.12,-0.14
4657,-1.46,-0.15,9.23,-0.08,-0.12,-0.14
4661,-1.46,-0.15,9.23,-0.05,-0.05,-0.14
4666,-1.46,-0.15,9.23,-0.03,-0.02,-0.11
4671,-1.46,-0.15,9.23,-0.03,-0.01,-0.08
4676,-1.46,-0.15,9.23,-0.02,0.00,-0.08
4681,-1.46,-0.15,9.23,-0.02,0.02,-0.10
4686,-1.46,-0.15,9.23,-0.02,0.05,-0.11
4692,-1.38,-0.08,8.12,-0.02,0.05,-0.11
4696,-2.14,-0.50,8.04,-0.02,0.05,-0.11
4701,-2.14,-0.50,8.04,-0.00,0.04,-0.06
4707,-2.14,-0.50,8.04,-0.02,-0.02,-0.06
4711,-2.14,-0.50,8.04,-0.03,-0.08,-0.09
4716,-2.14,-0.50,8.04,-0.03,-0.12,-0.13
4721,-2.14,-0.50,8.04,-0.05,-0.16,-0.17
4727,-2.14,-0.50,8.04,-0.05,-0.18,-0.18
4731,-2.14,-0.50,8.04,-0.06,-0.17,-0.19
4736,-2.14,-0.50,8.04,-0.07,-0.18,-0.20
4741,-2.14,-0.50,8.04,-0.06,-0.18,-0.23
4746,2.80,-2.72,9.08,-0.06,-0.18,-0.23
4751,2.80,-2.72,9.08,-0.09,-0.23,-0.27
4756,2.80,-2.72,9.08,-0.07,-0.23,-0.30
4761,1.04,0.00,11.49,-0.07,-0.23,-0.30
4766,1.04,0.00,11.49,-0.02,-0.01,-0.32
4771,1.04,0.00,11.49,0.03,0.11,-0.29
4777,1.04,0.00,11.49,0.02,0.22,-0.25
4782,1.04,0.00,11.49,0.04,0.30,-0.24
4786,-0.42,-0.08,11.38,0.04,0.30,-0.24
4791,-0.42,-0.08,11.38,0.05,0.25,-0.27
4797,1.91,-2.26,12.76,0.05,0.25,-0.27
4801,1.91,-2.26,12.76,0.04,-0.03,-0.26
4806,3.68,0.46,12.68,0.04,-0.03,-0.26
4812,3.68,0.46,12.68,0.03,-0.17,-0.25
4816,3.68,0.46,12.68,0.03,-0.11,-0.27
4821,3.68,0.46,12.68,0.02,0.00,-0.29
4827,3.68,0.46,12.68,0.01,0.09,-0.29
4831,3.68,0.46,12.68,-0.01,0.12,-0.30
4836,3.68,0.46,12.68,0.00,0.10,-0.33
4841,3.68,0.46,12.68,0.01,0.06,-0.36
4846,3.68,0.46,12.68,-0.03,0.02,-0.37
4851,3.68,0.46,12.68,-0.02,-0.02,-0.36
4856,3.68,0.46,12.68,-0.01,-0.04,-0.36
4861,3.68,0.46,12.68,-0.03,0.03,-0.40
4867,3.68,0.46,12.68,-0.03,0.11,-0.46
4871,-2.72,1.95,7.27,-0.03,0.11,-0.46
4876,-1.07,1.68,9.69,-0.03,0.11,-0.46
4881,-1.07,1.68,9.69,-0.03,0.10,-0.38
4886,-1.07,1.68,9.69,-0.04,0.00,-0.38
4892,-1.07,1.68,9.69,-0.07,-0.08,-0.43
4897,-1.11,0.19,9.50,-0.07,-0.08,-0.43
4901,-0.88,0.30,10.38,-0.07,-0.08,-0.43
4906,-1.07,-0.27,10.31,-0.07,-0.08,-0.43
4911,-1.07,-0.27,10.31,0.01,0.03,-0.44
4917,-3.07,0.27,8.62,0.01,0.03,-0.44
4922,-3.07,0.27,8.62,0.03,0.20,-0.35
4827,3.68,0.46,12.68,0.01,0.09,-0.29
4831,3.68,0.46,12.68,-0.01,0.12,-0.30
4836,3.68,0.46,12.68,0.00,0.10,-0.33
4841,3.68,0.46,12.68,0.01,0.06,-0.36
4846,3.68,0.46,12.68,-0.03,0.02,-0.37
4851,3.68,0.46,12.68,-0.02,-0.02,-0.36
4856,3.68,0.46,12.68,-0.01,-0.04,-0.36
4861,3.68,0.46,12.68,-0.03,0.03,-0.40
4867,3.68,0.46,12.68,-0.03,0.11,-0.46
4871,-2.72,1.95,7.27,-0.03,0.11,-0.46
4876,-1.07,1.68,9.69,-0.03,0.11,-0.46
4881,-1.07,1.68,9.69,-0.03,0.10,-0.38
4886,-1.07,1.68,9.69,-0.04,0.00,-0.38
4892,-1.07,1.68,9.69,-0.07,-0.08,-0.43
4897,-1.11,0.19,9.50,-0.07,-0.08,-0.43
4901,-0.88,0.30,10.38,-0.07,-0.08,-0.43
