timestamp,accX,accY,accZ,gyroX,gyroY,gyroZ
Left
8,3.98,-0.57,7.97,0.00,-0.34,-0.03
18,3.98,-0.57,7.97,-0.00,0.04,-0.02
21,3.98,-0.57,7.97,0.01,0.43,-0.08
22,-1.42,-2.80,6.29,0.01,0.43,-0.08
26,-1.42,-2.80,6.29,0.08,0.09,0.09
31,-0.04,-2.64,7.59,0.08,0.09,0.09
36,-0.04,-2.64,7.59,0.04,-0.09,0.08
42,0.54,-3.41,9.46,0.04,-0.09,0.08
46,0.54,-3.41,9.46,-0.00,-0.30,0.08
51,0.54,-3.41,9.46,-0.03,-0.30,0.07
57,0.54,-3.41,9.46,0.05,-0.16,0.07
61,0.54,-3.41,9.46,0.03,0.18,0.09
66,0.54,-3.41,9.46,-0.00,0.38,0.07
71,0.54,-3.41,9.46,0.03,0.36,0.04
77,-3.68,-1.04,4.79,0.03,0.36,0.04
81,-3.68,-1.04,4.79,0.03,0.11,-0.01
86,-3.68,-1.04,4.79,0.04,-0.07,-0.00
92,-3.68,-1.04,4.79,0.02,-0.22,0.04
96,-3.68,-1.04,4.79,0.02,-0.28,0.11
101,-3.68,-1.04,4.79,0.07,-0.26,0.14
106,-3.68,-1.04,4.79,0.09,-0.10,0.11
112,-0.19,-0.08,9.54,0.09,-0.10,0.11
116,-0.19,-0.08,9.54,0.04,0.08,0.07
121,-0.19,-0.08,9.54,0.05,0.02,0.09
127,-0.54,-0.77,9.73,0.05,0.02,0.09
131,-0.54,-0.77,9.73,-0.00,-0.05,0.05
136,-0.54,-0.77,9.73,-0.00,-0.09,0.02
141,-0.54,-0.77,9.73,0.01,-0.06,0.04
147,2.57,-1.76,11.41,0.01,-0.06,0.04
151,2.57,-1.76,11.41,0.01,0.12,0.07
156,2.57,-1.76,11.41,0.05,0.13,0.06
162,-0.73,0.30,10.34,0.05,0.13,0.06
166,-0.73,0.30,10.34,0.06,0.12,0.07
171,-0.73,0.30,10.34,0.05,0.08,0.05
177,-0.73,0.30,10.34,0.04,0.08,0.04
182,-0.88,1.11,8.12,0.04,0.08,0.04
186,-0.88,1.11,8.12,0.02,0.10,0.00
191,-0.88,1.11,8.12,-0.00,0.10,-0.07
197,1.57,-0.19,7.70,-0.00,0.10,-0.07
201,1.57,-0.19,7.70,-0.05,-0.08,-0.18
206,1.57,-0.19,7.70,-0.08,-0.16,-0.19
211,1.57,-0.19,7.70,-0.07,-0.15,-0.19
217,-0.73,0.61,9.54,-0.07,-0.15,-0.19
221,-0.73,0.61,9.54,-0.05,0.14,-0.30
226,-0.73,0.61,9.54,-0.08,0.25,-0.29
232,-2.72,1.19,12.48,-0.08,0.25,-0.29
236,-2.72,1.19,12.48,-0.08,0.22,-0.31
241,-2.72,1.19,12.48,-0.09,0.19,-0.33
246,-2.72,1.19,12.48,-0.08,0.12,-0.36
252,1.49,-0.88,8.62,-0.08,0.12,-0.36
256,1.49,-0.88,8.62,-0.03,-0.06,-0.27
261,1.49,-0.88,8.62,0.01,-0.08,-0.18
267,-0.61,2.18,6.97,0.01,-0.08,-0.18
271,-0.61,2.18,6.97,-0.02,-0.02,-0.16
276,-0.61,2.18,6.97,-0.05,-0.01,-0.21
282,-0.61,2.18,6.97,-0.06,0.01,-0.27
286,-0.61,2.18,6.97,-0.10,0.10,-0.32
291,-0.61,2.18,6.97,-0.10,0.18,-0.37
296,-0.61,2.18,6.97,-0.12,0.14,-0.43
302,2.87,-0.50,9.04,-0.12,0.14,-0.43
306,2.87,-0.50,9.04,-0.14,-0.11,-0.38
311,2.87,-0.50,9.04,-0.14,-0.22,-0.27
317,2.87,-0.50,9.04,-0.14,-0.27,-0.21
321,2.87,-0.50,9.04,-0.05,-0.14,-0.23
326,2.87,-0.50,9.04,-0.05,0.10,-0.27
331,2.87,-0.50,9.04,-0.05,0.21,-0.28
337,-2.14,-0.57,8.70,-0.05,0.21,-0.28
341,-2.14,-0.57,8.70,-0.00,0.09,-0.18
346,-2.14,-0.57,8.70,0.03,0.01,-0.14
352,-2.14,-0.57,8.70,0.01,-0.06,-0.15
356,-2.14,-0.57,8.70,0.00,-0.12,-0.16
361,-2.14,-0.57,8.70,-0.01,-0.18,-0.17
366,-2.14,-0.57,8.70,-0.03,-0.22,-0.18
372,0.38,-0.23,8.93,-0.03,-0.22,-0.18
376,0.38,-0.23,8.93,-0.05,-0.21,-0.23
381,0.38,-0.23,8.93,-0.03,-0.09,-0.22
387,0.34,-0.19,11.11,-0.03,-0.09,-0.22
391,0.34,-0.19,11.11,-0.02,0.11,-0.20
396,0.34,-0.19,11.11,-0.01,-0.00,-0.23
401,0.34,-0.19,11.11,-0.00,-0.10,-0.20
407,1.04,-1.72,8.35,-0.00,-0.10,-0.20
411,1.04,-1.72,8.35,0.03,0.03,-0.16
416,1.04,-1.72,8.35,0.01,0.14,-0.21
422,-2.11,-0.61,9.65,0.01,0.14,-0.21
426,-2.11,-0.61,9.65,0.03,0.06,-0.25
431,-2.11,-0.61,9.65,0.03,0.01,-0.26
436,-2.11,-0.61,9.65,0.02,-0.01,-0.26
442,-0.38,-0.84,10.00,0.02,-0.01,-0.26
446,-0.38,-0.84,10.00,0.00,-0.03,-0.30
451,-0.38,-0.84,10.00,-0.00,-0.01,-0.33
457,0.57,-0.57,8.78,-0.00,-0.01,-0.33
461,0.57,-0.57,8.78,0.02,0.00,-0.38
466,0.57,-0.57,8.78,0.03,0.01,-0.38
471,0.57,-0.57,8.78,0.03,0.06,-0.37
477,-0.80,0.92,12.02,0.03,0.06,-0.37
481,-0.80,0.92,12.02,-0.00,0.02,-0.39
486,-0.80,0.92,12.02,-0.04,-0.07,-0.40
492,3.48,-1.34,10.27,-0.04,-0.07,-0.40
496,3.48,-1.34,10.27,0.02,-0.05,-0.25
501,3.48,-1.34,10.27,0.04,0.11,-0.24
506,3.48,-1.34,10.27,0.08,0.24,-0.25
512,-5.94,-0.11,5.98,0.08,0.24,-0.25
516,-5.94,-0.11,5.98,0.18,0.27,-0.28
521,-5.94,-0.11,5.98,0.15,0.21,-0.33
527,-4.48,0.27,7.93,0.15,0.21,-0.33
531,-4.48,0.27,7.93,0.06,-0.03,-0.48
536,-4.48,0.27,7.93,0.02,-0.17,-0.53
542,-4.48,0.27,7.93,-0.02,-0.32,-0.55
546,-4.48,0.27,7.93,-0.06,-0.43,-0.57
551,-4.48,0.27,7.93,-0.03,-0.42,-0.56
556,-4.48,0.27,7.93,-0.01,-0.13,-0.55
562,3.14,-0.23,13.02,-0.01,-0.13,-0.55
566,3.14,-0.23,13.02,-0.05,0.21,-0.62
571,3.14,-0.23,13.02,0.04,0.07,-0.53
577,3.14,-0.23,13.02,0.07,-0.02,-0.39
581,3.14,-0.23,13.02,0.10,-0.03,-0.29
586,3.14,-0.23,13.02,0.12,0.06,-0.28
591,3.14,-0.23,13.02,0.13,0.14,-0.25
597,-1.07,-1.46,10.54,0.13,0.14,-0.25
601,-1.07,-1.46,10.54,0.22,0.19,-0.17
606,-1.07,-1.46,10.54,0.23,0.19,-0.13
612,-1.07,-1.46,10.54,0.24,0.15,-0.10
616,-1.07,-1.46,10.54,0.22,0.08,-0.11
621,-1.07,-1.46,10.54,0.20,-0.02,-0.13
626,-1.07,-1.46,10.54,0.17,-0.17,-0.15
632,2.03,-1.57,8.12,0.17,-0.17,-0.15
636,2.03,-1.57,8.12,0.12,-0.42,-0.10
641,2.03,-1.57,8.12,0.19,-0.36,-0.03
646,0.30,-1.57,10.07,0.19,-0.36,-0.03
652,0.30,-1.38,9.27,0.19,-0.36,-0.03
656,0.30,-1.38,9.27,0.23,0.14,0.00
661,0.30,-1.38,9.27,0.28,0.04,0.05
667,-2.03,-1.61,7.51,0.28,0.04,0.05
671,-2.03,-1.61,7.51,0.27,-0.16,0.08
676,-2.03,-1.61,7.51,0.29,-0.21,0.09
682,-0.19,-1.76,10.04,0.29,-0.21,0.09
686,-0.19,-1.76,10.04,0.30,-0.01,0.20
691,-0.19,-1.76,10.04,0.28,0.05,0.18
696,-0.19,-1.76,10.04,0.29,0.00,0.17
701,0.04,-2.64,8.88,0.29,0.00,0.17
706,0.04,-2.64,8.88,0.33,-0.14,0.19
711,0.04,-2.64,8.88,0.34,-0.08,0.20
717,0.08,-1.88,9.08,0.34,-0.08,0.20
721,0.08,-1.88,9.08,0.34,-0.02,0.24
726,0.08,-1.88,9.08,0.35,-0.02,0.26
731,0.08,-1.88,9.08,0.33,-0.01,0.25
737,0.08,-1.34,10.41,0.33,-0.01,0.25
741,0.08,-1.34,10.41,0.32,-0.01,0.20
746,0.08,-1.34,10.41,0.31,-0.01,0.21
752,0.08,-1.34,10.41,0.33,-0.02,0.25
756,0.08,-1.34,10.41,0.33,-0.05,0.27
761,0.08,-1.34,10.41,0.34,-0.08,0.26
766,0.08,-1.34,10.41,0.34,-0.10,0.24
772,0.50,-1.30,10.15,0.34,-0.10,0.24
776,0.50,-1.30,10.15,0.34,0.02,0.24
781,0.50,-1.30,10.15,0.33,0.06,0.23
787,-3.10,0.54,10.11,0.33,0.06,0.23
791,-3.10,0.54,10.11,0.33,0.08,0.18
796,-3.10,0.54,10.11,0.31,0.03,0.15
802,1.38,0.30,9.27,0.31,0.03,0.15
806,1.38,0.30,9.27,0.27,-0.16,0.15
811,1.38,0.30,9.27,0.24,-0.22,0.19
816,1.38,0.30,9.27,0.24,-0.21,0.24
821,4.86,0.11,11.80,0.24,-0.21,0.24
826,4.86,0.11,11.80,0.24,0.13,0.31
831,4.86,0.11,11.80,0.27,0.25,0.30
837,-1.34,1.38,7.43,0.27,0.25,0.30
841,-1.34,1.38,7.43,0.32,0.13,0.21
846,-1.34,1.38,7.43,0.30,0.06,0.17
851,-1.34,1.38,7.43,0.31,-0.01,0.15
857,-0.34,1.46,7.23,0.31,-0.01,0.15
861,-0.34,1.46,7.23,0.23,-0.22,0.03
866,-0.34,1.46,7.23,0.16,-0.33,-0.04
872,-0.34,1.46,7.23,0.13,-0.36,-0.12
876,-0.34,1.46,7.23,0.11,-0.19,-0.23
881,-0.34,1.46,7.23,0.05,0.06,-0.33
886,-0.34,1.46,7.23,0.04,0.17,-0.35
892,-0.84,0.30,9.93,0.04,0.17,-0.35
896,-0.84,0.30,9.93,0.09,0.05,-0.44
901,-0.84,0.30,9.93,0.10,0.01,-0.49
906,2.34,-2.14,6.55,0.10,0.01,-0.49
911,2.34,-2.14,6.55,0.12,-0.11,-0.51
916,2.34,-2.14,6.55,0.12,-0.18,-0.46
921,2.34,-2.14,6.55,0.14,-0.24,-0.41
927,-0.54,-1.11,10.61,0.14,-0.24,-0.41
931,-0.54,-1.11,10.61,0.16,0.02,-0.53
937,-0.54,-1.11,10.61,0.14,0.14,-0.56
942,-4.48,-3.56,9.46,0.14,0.14,-0.56
946,-4.48,-3.56,9.46,0.21,0.05,-0.60
951,-4.48,-3.56,9.46,0.25,-0.05,-0.62
956,-4.48,-3.56,9.46,0.28,-0.16,-0.57
961,-1.27,-6.93,5.86,0.28,-0.16,-0.57
966,-1.27,-6.93,5.86,0.39,-0.30,-0.43
971,-1.27,-6.93,5.86,0.43,-0.12,-0.38
977,-3.07,-5.40,8.39,0.43,-0.12,-0.38
981,-3.07,-5.40,8.39,0.51,0.10,-0.26
986,-3.07,-5.40,8.39,0.58,0.04,-0.14
992,-3.07,-5.40,8.39,0.62,-0.06,-0.03
996,-3.07,-5.40,8.39,0.64,-0.15,0.09
1001,-3.07,-5.40,8.39,0.64,-0.25,0.23
1006,-3.07,-5.40,8.39,0.67,-0.32,0.38
1011,-3.07,-5.40,8.39,0.74,-0.27,0.57
1016,-3.07,-5.40,8.39,0.75,-0.08,0.75
1021,-3.07,-5.40,8.39,0.78,0.04,0.87
1026,-4.29,0.42,8.27,0.78,0.04,0.87
1032,-4.71,0.80,7.78,0.78,0.04,0.87
1036,-4.71,0.80,7.78,0.91,0.01,1.23
1041,-4.71,0.80,7.78,0.91,-0.06,1.33
1047,-1.72,-0.69,9.20,0.91,-0.06,1.33
1051,-1.72,-0.69,9.20,0.88,-0.34,1.50
1056,-1.72,-0.69,9.20,0.82,-0.45,1.55
1062,-0.77,-3.79,11.15,0.82,-0.45,1.55
1066,-0.77,-3.79,11.15,0.76,-0.43,1.64
1071,-0.77,-3.79,11.15,0.79,-0.32,1.63
1076,-0.77,-3.79,11.15,0.83,-0.23,1.60
1081,-0.61,-9.61,11.80,0.83,-0.23,1.60
1086,-0.61,-9.61,11.80,0.94,-0.11,1.71
1091,-0.61,-9.61,11.80,1.00,-0.13,1.76
1097,-1.68,-3.03,5.71,1.00,-0.13,1.76
1101,-1.68,-3.03,5.71,1.07,-0.16,1.76
1106,-1.68,-3.03,5.71,1.07,-0.13,1.71
1112,-1.68,-3.03,5.71,0.97,-0.11,1.60
1116,-1.68,-3.03,5.71,0.92,-0.18,1.42
1121,-1.68,-3.03,5.71,0.84,-0.33,1.27
1126,-1.68,-3.03,5.71,0.74,-0.54,1.17
1131,-1.68,-3.03,5.71,0.63,-0.77,1.12
1136,6.66,-3.91,12.14,0.63,-0.77,1.12
1141,6.66,-3.91,12.14,0.64,-0.85,1.11
1146,6.66,-3.91,12.14,0.58,-0.20,1.09
1151,6.66,-3.91,12.14,0.51,0.19,1.00
1156,6.66,-3.91,12.14,0.52,0.08,0.96
1161,6.66,-3.91,12.14,0.58,-0.24,1.04
1167,9.31,-1.84,18.70,0.58,-0.24,1.04
1171,9.31,-1.84,18.70,0.85,-0.25,1.55
1176,9.31,-1.84,18.70,0.91,0.06,1.82
1181,9.31,-1.84,18.70,0.96,0.29,2.02
1186,9.31,-1.84,18.70,1.06,0.51,2.15
1191,9.31,-1.84,18.70,1.07,0.68,2.19
1196,9.31,-1.84,18.70,1.01,0.78,2.15
1201,-5.05,12.52,2.11,1.01,0.78,2.15
1206,-5.05,12.52,2.11,0.77,0.78,1.95
1211,-5.05,12.52,2.11,0.68,0.57,1.85
1216,-5.05,12.52,2.11,0.56,0.31,1.73
1221,-5.05,12.52,2.11,0.40,0.04,1.60
1226,-5.05,12.52,2.11,0.16,-0.31,1.40
1231,-5.05,12.52,2.11,0.05,-0.68,1.18
1236,1.53,-0.30,15.32,0.05,-0.68,1.18
1241,1.53,-0.30,15.32,-0.12,-1.12,0.83
1246,1.53,-0.30,15.32,-0.14,-1.21,0.77
1251,1.53,-0.30,15.32,0.07,-1.04,0.84
1256,10.15,-0.38,23.21,0.07,-1.04,0.84
1262,10.15,-0.38,23.21,0.32,-0.02,1.07
1267,10.15,-0.38,23.21,0.32,0.92,1.13
1271,10.15,-0.38,23.21,0.35,0.75,1.14
1276,10.15,-0.38,23.21,0.38,0.52,1.13
1281,10.15,-0.38,23.21,0.33,0.32,1.10
1286,-2.72,1.04,5.52,0.33,0.32,1.10
1291,0.19,1.72,6.89,0.33,0.32,1.10
1296,0.19,1.72,6.89,0.09,-0.00,0.83
1301,0.19,1.72,6.89,-0.03,-0.01,0.69
1306,0.19,1.72,6.89,-0.11,0.03,0.54
1311,0.19,1.72,6.89,-0.17,0.06,0.43
1316,0.19,1.72,6.89,-0.19,0.11,0.37
1321,0.19,0.80,10.15,-0.19,0.11,0.37
1326,0.19,0.80,10.15,-0.16,0.14,0.31
1331,0.19,0.80,10.15,-0.10,0.12,0.35
1336,0.19,0.80,10.15,-0.03,0.13,0.42
1341,0.19,0.80,10.15,0.04,0.18,0.52
1346,0.19,0.80,10.15,0.07,0.23,0.61
1351,0.19,0.80,10.15,0.11,0.30,0.66
1357,0.27,0.04,10.15,0.11,0.30,0.66
1361,-0.42,-1.42,9.46,0.11,0.30,0.66
1366,-0.42,-1.42,9.46,0.14,0.30,0.61
1371,-0.42,-1.42,9.46,0.10,0.25,0.57
1376,-0.42,-1.42,9.46,0.05,0.21,0.53
1381,-0.42,-1.42,9.46,0.01,0.15,0.47
1386,-0.42,-1.42,9.46,-0.03,0.08,0.43
1391,-0.42,-1.42,9.46,-0.04,0.03,0.43
1396,-0.42,-1.42,9.46,-0.02,0.06,0.45
1401,-0.42,-1.42,9.46,-0.02,0.12,0.46
1406,-0.42,-1.42,9.46,-0.01,0.16,0.46
1411,1.88,-0.08,6.51,-0.01,0.16,0.46
1416,1.88,-0.08,6.51,0.08,0.25,0.53
1421,1.88,-0.08,6.51,0.12,0.33,0.59
1426,-4.25,1.30,9.16,0.12,0.33,0.59
1431,-4.25,1.30,9.16,0.13,0.47,0.58
1436,-4.25,1.30,9.16,0.11,0.49,0.52
1441,-4.25,1.30,9.16,0.10,0.43,0.47
1446,-4.25,1.30,9.16,0.05,0.34,0.48
1451,-4.25,1.30,9.16,0.06,0.26,0.52
1456,-4.25,1.30,9.16,0.06,0.29,0.53
1462,-7.16,1.53,10.57,0.06,0.29,0.53
1466,-7.16,1.53,10.57,-0.03,0.25,0.35
1471,-8.12,-1.49,12.98,-0.03,0.25,0.35
1476,-8.12,-1.49,12.98,-0.06,0.05,0.20
1481,-8.12,-1.49,12.98,-0.10,-0.25,0.21
1486,-8.12,-1.49,12.98,-0.01,-0.57,0.31
1491,-8.12,-1.49,12.98,0.14,-0.75,0.46
1496,-8.12,-1.49,12.98,0.24,-0.75,0.58
1501,-8.12,-1.49,12.98,0.45,0.07,0.69
1506,-8.12,-1.49,12.98,0.13,0.86,0.75
1511,-8.12,-1.49,12.98,0.34,1.08,0.69
1516,-8.12,-1.49,12.98,0.26,1.04,0.62
1521,-8.12,-1.49,12.98,0.23,0.85,0.56
1526,-8.12,-1.49,12.98,0.24,0.57,0.54
1531,-8.12,-1.49,12.98,0.18,0.24,0.59
1536,1.15,-2.41,10.35,0.18,0.24,0.59
1541,1.15,-2.41,10.35,0.12,-0.33,0.80
1547,2.26,5.90,8.36,0.12,-0.33,0.80
1551,0.19,4.79,6.70,0.12,-0.33,0.80
1556,-1.34,3.29,6.78,0.12,-0.33,0.80
1561,-1.34,3.29,6.78,-0.03,-0.37,0.52
1566,-1.34,3.29,6.78,0.04,-0.33,0.54
1571,-1.34,3.29,6.78,0.13,-0.27,0.63
1576,-1.34,3.29,6.78,0.17,-0.24,0.79
1582,1.72,-1.00,12.14,0.17,-0.24,0.79
1587,1.72,-1.00,12.14,0.11,-0.23,0.94
1591,4.60,-1.30,16.62,0.11,-0.23,0.94
1596,6.51,-1.23,18.42,0.11,-0.23,0.94
1601,6.51,-1.23,18.42,-0.02,-0.18,0.68
1606,6.51,-1.23,18.42,0.03,0.00,0.63
1611,6.51,-1.23,18.42,0.07,0.26,0.69
1616,6.51,-1.23,18.42,0.14,0.45,0.80
1621,-2.61,-0.34,8.81,0.14,0.45,0.80
1626,-2.61,-0.34,8.81,0.28,0.63,0.97
1632,-2.61,-0.34,8.81,0.31,0.62,1.02
1637,-2.61,-0.34,8.81,0.32,0.54,1.03
1641,0.61,-1.68,8.43,0.32,0.54,1.03
1646,0.73,0.15,8.96,0.32,0.54,1.03
1651,0.73,0.15,8.96,0.17,0.02,1.01
1656,0.73,0.15,8.96,0.11,-0.07,1.00
1661,0.73,0.15,8.96,0.11,-0.08,0.98
1666,0.73,0.15,8.96,0.12,-0.07,0.98
1672,-4.37,5.67,11.91,0.12,-0.07,0.98
1676,-4.37,5.67,11.91,0.04,0.12,0.97
1681,-0.15,-4.79,9.77,0.04,0.12,0.97
1686,-0.15,-4.79,9.77,0.14,0.02,0.89
1691,-0.15,-4.79,9.77,0.21,-0.07,0.89
1696,-0.15,-4.79,9.77,0.21,-0.11,0.96
1702,-0.15,-4.79,9.77,0.16,-0.11,1.03
1707,-0.15,-4.79,9.77,0.10,-0.08,1.03
1711,0.57,-2.14,8.46,0.10,-0.08,1.03
1716,0.11,-3.71,8.82,0.10,-0.08,1.03
1721,0.11,-3.71,8.82,0.12,0.08,0.75
1726,0.11,-3.71,8.82,0.14,0.14,0.75
1731,0.11,-3.71,8.82,0.17,0.20,0.76
1737,0.11,-3.71,8.82,0.21,0.22,0.79
1741,0.11,-3.71,8.82,0.22,0.21,0.81
1746,2.61,3.48,10.73,0.22,0.21,0.81
1751,1.53,3.33,10.80,0.22,0.21,0.81
1756,1.53,3.33,10.80,0.10,0.33,0.75
1761,1.53,3.33,10.80,0.08,0.40,0.72
1766,1.53,3.33,10.80,0.10,0.46,0.71
1770,1.53,3.33,10.80,0.10,0.49,0.73
1776,-1.11,0.57,9.30,0.10,0.49,0.73
1782,-1.11,0.57,9.30,0.14,0.49,0.76
1787,-1.11,0.57,9.30,0.16,0.34,0.80
1791,1.61,4.56,8.88,0.16,0.34,0.80
1796,2.57,3.29,9.73,0.16,0.34,0.80
1801,2.57,3.29,9.73,0.03,0.15,0.73
1807,2.57,3.29,9.73,-0.02,0.14,0.71
1811,1.95,2.34,11.84,-0.02,0.14,0.71
1815,0.96,2.30,10.88,-0.02,0.14,0.71
1822,0.96,2.30,10.88,-0.04,0.38,0.68
1827,0.96,2.30,10.88,-0.04,0.47,0.67
1831,-2.53,2.30,7.97,-0.04,0.47,0.67
1836,-2.49,2.76,9.46,-0.04,0.47,0.67
1841,-2.49,2.76,9.46,0.01,0.50,0.55
1846,1.34,1.57,8.96,0.01,0.50,0.55
1850,0.50,2.18,8.54,0.01,0.50,0.55
1857,0.50,2.18,8.54,-0.12,0.24,0.42
1861,0.50,2.18,8.54,-0.15,0.20,0.40
1866,1.68,-0.77,8.04,-0.15,0.20,0.40
1871,1.34,-0.65,7.70,-0.15,0.20,0.40
1876,1.34,-0.65,7.70,-0.13,0.20,0.28
1881,-7.70,2.53,10.61,-0.13,0.20,0.28
1886,-8.12,2.30,10.30,-0.13,0.20,0.28
1891,-8.16,1.19,11.07,-0.13,0.20,0.28
1896,-8.16,1.19,11.07,-0.12,0.69,-0.03
1901,-3.68,-0.88,12.03,-0.12,0.69,-0.03
1905,-0.46,-2.72,11.57,-0.12,0.69,-0.03
1911,-0.46,-2.72,11.57,-0.18,0.38,-0.13
1917,-0.46,-2.72,11.57,-0.20,0.12,-0.07
1921,4.60,0.96,7.09,-0.20,0.12,-0.07
1926,2.11,2.45,6.74,-0.20,0.12,-0.07
1931,2.11,2.45,6.74,-0.13,-0.15,0.06
1937,2.11,2.45,6.74,-0.11,-0.03,0.07
1941,-0.42,4.06,10.07,-0.11,-0.03,0.07
1946,0.46,1.42,11.22,-0.11,-0.03,0.07
1951,2.38,-0.15,11.04,-0.11,-0.03,0.07
1956,2.38,-0.15,11.04,-0.05,0.37,0.23
1962,2.38,-0.15,11.04,-0.06,0.30,0.26
1966,3.03,2.03,9.54,-0.06,0.30,0.26
1971,3.83,1.04,9.00,-0.06,0.30,0.26
1977,3.83,1.04,9.00,-0.08,0.09,0.25
1981,3.83,1.04,9.00,-0.10,0.05,0.21
1986,2.18,-0.19,10.88,-0.10,0.05,0.21
1991,1.76,-0.96,9.80,-0.10,0.05,0.21
1996,1.76,-0.96,9.80,-0.08,0.05,0.22
2001,-0.57,-1.65,10.41,-0.08,0.05,0.22
2005,-1.00,-2.07,10.30,-0.08,0.05,0.22
2012,-1.00,-2.07,10.30,0.04,0.14,0.40
2016,-1.00,-2.07,10.30,0.05,0.12,0.41
2021,1.11,-1.57,7.93,0.05,0.12,0.41
2026,-0.04,-2.38,7.20,0.05,0.12,0.41
2032,-0.04,-2.38,7.20,0.02,-0.05,0.44
2036,0.00,-2.38,9.73,0.02,-0.05,0.44
2040,-0.77,-2.14,9.58,0.02,-0.05,0.44
2046,-0.77,-2.14,9.58,0.07,-0.01,0.42
2051,-0.77,-2.14,9.58,0.10,0.06,0.48
2056,-0.77,-2.14,9.58,0.10,0.09,0.52
2061,-0.80,-1.38,7.93,0.10,0.09,0.52
2066,1.42,-1.65,8.88,0.10,0.09,0.52
2071,1.53,-1.84,8.23,0.10,0.09,0.52
2076,1.53,-1.84,8.23,0.10,-0.05,0.59
2081,1.53,-1.84,8.23,0.12,-0.08,0.64
2086,1.53,-1.84,8.23,0.14,-0.05,0.71
2091,0.08,0.61,10.45,0.14,-0.05,0.71
2096,-1.42,1.88,11.76,0.14,-0.05,0.71
2101,-1.42,1.88,11.76,0.15,0.20,0.78
2106,-1.42,-0.57,11.26,0.15,0.20,0.78
2110,0.42,-1.46,11.92,0.15,0.20,0.78
2116,0.42,-1.46,11.92,0.14,0.24,0.85
2121,0.42,-1.46,11.92,0.16,0.16,0.89
2126,0.57,-2.11,11.38,0.16,0.16,0.89
2131,1.38,-1.46,10.03,0.16,0.16,0.89
2136,1.38,-1.46,10.03,0.21,0.04,0.96
2141,0.34,0.80,8.04,0.21,0.04,0.96
2146,0.61,0.61,8.31,0.21,0.04,0.96
2150,-0.65,-0.23,8.88,0.21,0.04,0.96
2156,-0.65,-0.23,8.88,0.15,0.12,0.91
2161,-1.04,-0.50,10.65,0.15,0.12,0.91
2166,0.15,-0.73,11.26,0.15,0.12,0.91
2171,0.65,-1.30,11.80,0.15,0.12,0.91
2176,0.42,-2.03,10.80,0.15,0.12,0.91
2181,0.61,-1.53,10.69,0.15,0.12,0.91
2186,0.88,-1.04,10.23,0.15,0.12,0.91
2191,0.88,-1.04,10.23,0.14,0.04,0.83
2196,-0.65,1.53,7.74,0.14,0.04,0.83
2201,-0.23,1.27,8.31,0.14,0.04,0.83
2206,-0.23,1.27,8.31,0.16,0.16,0.83
2211,-0.61,1.19,9.69,0.16,0.16,0.83
2216,-0.92,0.38,10.39,0.16,0.16,0.83
2221,-2.18,0.27,11.11,0.16,0.16,0.83
2226,-1.34,-0.04,9.80,0.16,0.16,0.83
2231,-0.57,-0.50,9.38,0.16,0.16,0.83
2236,-1.04,0.19,9.23,0.16,0.16,0.83
2241,-1.04,0.19,9.23,0.09,0.10,0.66
2246,-1.04,0.19,9.23,0.05,0.06,0.64
2252,1.61,0.42,9.08,0.05,0.06,0.64
2256,0.38,1.00,11.34,0.05,0.06,0.64
2260,-1.11,1.38,11.61,0.05,0.06,0.64
2266,-1.11,1.38,11.61,0.05,0.14,0.59
2272,-1.11,1.38,11.61,0.05,0.24,0.59
2276,-2.07,0.96,10.84,0.05,0.24,0.59
2281,-4.21,0.96,9.81,0.05,0.24,0.59
2285,-3.52,0.54,9.20,0.05,0.24,0.59
2292,-3.52,0.54,9.20,0.12,0.37,0.53
2296,-1.38,-0.04,7.17,0.12,0.37,0.53
2300,-1.38,-0.04,7.17,0.08,0.07,0.48
2306,-2.07,1.34,9.69,0.08,0.07,0.48
2311,-0.77,0.84,8.73,0.08,0.07,0.48
2316,-0.65,0.08,10.27,0.08,0.07,0.48
2321,0.23,1.15,11.03,0.08,0.07,0.48
2326,0.23,1.15,11.03,-0.04,-0.05,0.35
2331,1.42,-0.34,10.23,-0.04,-0.05,0.35
2336,1.38,-1.27,10.04,-0.04,-0.05,0.35
2341,-0.57,0.34,9.65,-0.04,-0.05,0.35
2346,-1.15,0.84,9.84,-0.04,-0.05,0.35
2350,-1.72,1.19,8.12,-0.04,-0.05,0.35
2357,-1.72,1.19,8.12,0.08,0.35,0.44
2361,-1.72,1.19,8.12,0.08,0.37,0.41
2366,-0.11,0.42,10.19,0.08,0.37,0.41
2371,0.88,0.80,10.38,0.08,0.37,0.41
2376,-0.92,1.04,10.65,0.08,0.37,0.41
2381,-0.27,2.14,10.73,0.08,0.37,0.41
2386,1.38,1.30,9.96,0.08,0.37,0.41
2391,0.65,2.38,9.23,0.08,0.37,0.41
2396,0.65,2.38,9.23,-0.01,0.06,0.45
2401,-0.30,1.38,9.81,-0.01,0.06,0.45
2406,0.42,0.15,9.88,-0.01,0.06,0.45
2411,0.38,0.73,9.96,-0.01,0.06,0.45
2416,-0.19,0.34,10.92,-0.01,0.06,0.45
2420,-0.19,0.34,10.92,0.04,0.15,0.59
2426,0.23,1.07,10.49,0.04,0.15,0.59
2431,0.19,1.00,9.34,0.04,0.15,0.59
2436,0.46,1.65,10.15,0.04,0.15,0.59
2441,0.46,1.65,10.15,0.04,0.22,0.64
2445,-1.65,0.73,9.43,0.04,0.22,0.64
2451,-1.65,0.73,9.43,0.04,0.25,0.65
2455,-1.65,0.73,9.43,0.05,0.21,0.65
2460,-1.46,0.88,8.28,0.05,0.21,0.65
2467,-1.76,0.34,7.36,0.05,0.21,0.65
2471,-1.30,0.23,7.73,0.05,0.21,0.65
2476,-1.30,0.23,7.73,-0.01,-0.01,0.65
2481,0.61,-1.04,9.30,-0.01,-0.01,0.65
2486,1.91,-1.04,10.46,-0.01,-0.01,0.65
2491,1.57,-1.23,11.84,-0.01,-0.01,0.65
2496,2.11,-0.88,12.10,-0.01,-0.01,0.65
2501,2.30,-1.00,12.91,-0.01,-0.01,0.65
2506,2.72,-0.50,12.68,-0.01,-0.01,0.65
2512,2.30,-1.65,11.57,-0.01,-0.01,0.65
2516,0.23,-1.30,10.15,-0.01,-0.01,0.65
2521,0.92,-0.23,9.46,-0.01,-0.01,0.65
2526,0.77,-0.88,9.50,-0.01,-0.01,0.65
2531,1.15,-1.91,9.27,-0.01,-0.01,0.65
2536,0.04,-1.57,9.42,-0.01,-0.01,0.65
2541,0.04,-1.57,9.42,0.13,0.22,0.93
2546,0.04,-1.57,9.42,0.10,0.18,0.91
2551,0.11,-1.65,9.73,0.10,0.18,0.91
2556,-1.72,-0.96,9.35,0.10,0.18,0.91
2561,-1.72,-0.96,9.35,0.09,0.14,0.84
2566,-1.72,-0.96,9.35,0.08,0.14,0.79
2571,-0.08,1.04,9.16,0.08,0.14,0.79
2576,0.15,0.27,9.69,0.08,0.14,0.79
2582,1.11,-0.08,9.50,0.08,0.14,0.79
2586,2.57,0.34,10.19,0.08,0.14,0.79
2591,2.18,0.73,11.26,0.08,0.14,0.79
2596,1.57,0.50,10.99,0.08,0.14,0.79
2601,0.69,0.80,11.15,0.08,0.14,0.79
2606,0.34,0.69,12.02,0.08,0.14,0.79
2611,0.34,0.69,12.02,0.01,0.31,0.78
2616,0.38,-0.80,11.19,0.01,0.31,0.78
2621,1.00,0.00,11.11,0.01,0.31,0.78
2626,0.88,-0.15,11.03,0.01,0.31,0.78
2631,-0.15,0.88,10.03,0.01,0.31,0.78
2636,0.80,1.30,9.50,0.01,0.31,0.78
2642,1.07,1.53,9.92,0.01,0.31,0.78
2646,1.07,1.53,9.92,-0.07,0.28,0.73
2651,-0.34,1.30,9.81,-0.07,0.28,0.73
2656,0.54,0.38,10.91,-0.07,0.28,0.73
2661,0.92,0.15,12.03,-0.07,0.28,0.73
2666,0.34,0.34,11.95,-0.07,0.28,0.73
2671,-0.88,1.15,12.79,-0.07,0.28,0.73
2676,-0.69,0.84,11.42,-0.07,0.28,0.73
2681,-0.69,0.84,11.42,-0.08,0.35,0.67
2686,-0.69,0.84,11.42,-0.05,0.33,0.66
2690,0.34,1.15,8.82,-0.05,0.33,0.66
2695,0.34,1.15,8.82,-0.07,0.31,0.68
2701,0.34,1.15,8.82,-0.09,0.29,0.68
2707,0.34,1.15,8.82,-0.10,0.27,0.67
2711,-1.42,1.91,8.62,-0.10,0.27,0.67
2716,-1.42,1.91,8.62,-0.13,0.30,0.61
2721,-1.57,0.65,8.08,-0.13,0.30,0.61
2726,-3.68,-0.08,8.28,-0.13,0.30,0.61
2731,-3.83,-0.19,8.08,-0.13,0.30,0.61
2737,-2.91,0.69,7.73,-0.13,0.30,0.61
2741,-1.27,-0.84,7.59,-0.13,0.30,0.61
2746,-0.80,-0.77,8.24,-0.13,0.30,0.61
2751,-0.42,-0.46,10.04,-0.13,0.30,0.61
2756,1.46,0.08,11.03,-0.13,0.30,0.61
2761,2.49,-0.46,13.48,-0.13,0.30,0.61
2766,2.49,-0.46,13.48,-0.21,0.12,0.37
2771,1.91,0.11,15.55,-0.21,0.12,0.37
2776,1.38,-0.38,14.29,-0.21,0.12,0.37
2782,0.42,-0.57,13.71,-0.21,0.12,0.37
2786,0.42,-0.57,13.71,-0.08,0.61,0.45
2791,-3.79,-0.23,7.39,-0.08,0.61,0.45
2796,-3.56,0.69,6.93,-0.08,0.61,0.45
2801,-5.86,1.61,4.41,-0.08,0.61,0.45
2806,-6.66,1.65,4.71,-0.08,0.61,0.45
2811,-7.09,1.07,3.87,-0.08,0.61,0.45
2817,-4.60,0.42,5.36,-0.08,0.61,0.45
2821,-4.60,0.42,5.36,-0.19,0.14,0.05
2826,-4.60,0.42,5.36,-0.24,-0.07,0.02
2831,0.15,0.65,8.24,-0.24,-0.07,0.02
2836,-0.50,1.49,8.82,-0.24,-0.07,0.02
2841,-1.04,2.53,9.43,-0.24,-0.07,0.02
2846,-0.38,3.14,8.50,-0.24,-0.07,0.02
2851,-0.38,3.14,8.50,-0.29,-0.09,-0.06
2855,-0.38,3.14,8.50,-0.23,0.02,-0.04
2861,-0.19,0.57,9.65,-0.23,0.02,-0.04
2866,-1.07,0.38,8.73,-0.23,0.02,-0.04
2871,-1.07,0.38,8.73,-0.09,0.29,0.12
2876,0.23,-0.27,9.77,-0.09,0.29,0.12
2881,0.08,1.19,9.27,-0.09,0.29,0.12
2886,0.80,0.50,9.88,-0.09,0.29,0.12
2892,2.99,0.54,9.65,-0.09,0.29,0.12
2896,3.26,0.11,10.77,-0.09,0.29,0.12
2901,3.22,0.38,11.22,-0.09,0.29,0.12
2906,3.03,1.42,11.11,-0.09,0.29,0.12
2913,2.49,1.61,11.49,-0.09,0.29,0.12
2917,2.22,1.65,11.30,-0.09,0.29,0.12
2921,2.22,1.65,11.30,-0.11,0.24,0.30
2926,2.22,1.65,11.30,-0.10,0.26,0.32
2931,2.26,-2.41,11.19,-0.10,0.26,0.32
2937,1.34,-1.49,9.43,-0.10,0.26,0.32
2941,1.34,-1.49,9.43,0.03,0.25,0.50
2946,1.34,-1.49,9.43,0.06,0.26,0.53
2951,-0.88,0.80,5.60,0.06,0.26,0.53
2957,-1.46,0.42,6.47,0.06,0.26,0.53
2961,-1.46,0.42,6.47,-0.02,0.06,0.45
2966,2.22,-1.19,10.19,-0.02,0.06,0.45
2972,2.99,-1.57,11.34,-0.02,0.06,0.45
2976,2.99,-1.57,11.34,-0.13,-0.30,0.41
2981,4.29,-1.99,13.25,-0.13,-0.30,0.41
2986,3.22,-1.07,12.64,-0.13,-0.30,0.41
2991,0.80,-0.19,12.22,-0.13,-0.30,0.41
2998,0.38,0.61,11.30,-0.13,-0.30,0.41
3001,-0.92,-0.42,9.69,-0.13,-0.30,0.41
3006,-0.92,-0.42,9.69,0.02,0.36,0.52
3011,-0.92,-0.42,9.69,0.04,0.39,0.54
3016,-2.41,-1.72,9.00,0.04,0.39,0.54
3021,-1.57,-2.95,9.42,0.04,0.39,0.54
3027,0.04,-2.26,9.85,0.04,0.39,0.54
3031,2.49,-1.99,9.16,0.04,0.39,0.54
3037,3.64,-1.15,9.00,0.04,0.39,0.54
3041,3.64,-1.15,9.00,-0.03,-0.28,0.60
3046,3.64,-1.15,9.00,-0.05,-0.30,0.62
3051,3.22,-0.11,7.39,-0.05,-0.30,0.62
3057,-0.11,0.65,7.13,-0.05,-0.30,0.62
3061,-0.11,0.65,7.13,0.04,0.07,0.68
3066,-0.11,0.65,7.13,0.06,0.22,0.65
3072,-3.83,0.11,10.57,0.06,0.22,0.65
3076,-3.83,0.11,10.57,0.08,0.38,0.54
3081,-3.83,0.11,10.57,0.06,0.41,0.54
3086,-3.83,0.11,10.57,0.04,0.31,0.55
3090,0.15,-1.19,11.22,0.04,0.31,0.55
3095,0.15,-1.19,11.22,-0.00,0.09,0.55
3101,-0.34,-1.27,10.31,-0.00,0.09,0.55
3107,1.49,-1.00,9.46,-0.00,0.09,0.55
3112,3.33,-0.04,9.27,-0.00,0.09,0.55
3116,3.33,-0.04,9.27,0.03,0.06,0.57
3121,-4.52,2.84,9.27,0.03,0.06,0.57
3127,-2.41,1.23,11.34,0.03,0.06,0.57
3131,-2.41,1.23,11.34,0.01,0.40,0.43
3136,-6.93,0.92,11.07,0.01,0.40,0.43
3141,3.33,-3.07,10.15,0.01,0.40,0.43
3146,3.33,-3.07,10.15,-0.02,0.08,0.42
3151,3.33,-3.07,10.15,-0.04,-0.12,0.51
3156,4.02,1.27,7.89,-0.04,-0.12,0.51
3162,3.52,1.99,7.59,-0.04,-0.12,0.51
3166,3.52,1.99,7.59,0.01,0.11,0.58
3171,-7.97,5.71,8.66,0.01,0.11,0.58
3176,-6.24,3.52,9.54,0.01,0.11,0.58
3181,-5.52,0.46,10.50,0.01,0.11,0.58
3186,-5.52,0.46,10.50,-0.07,0.47,0.26
3192,-1.27,-4.83,11.00,-0.07,0.47,0.26
3196,-1.27,-4.83,11.00,-0.04,0.07,0.41
3201,-1.27,-4.83,11.00,-0.03,-0.10,0.48
3206,-1.27,-4.83,11.00,-0.04,-0.20,0.50
3212,-0.46,3.87,8.54,-0.04,-0.20,0.50
3216,-0.46,3.87,8.54,-0.14,-0.06,0.34
3221,1.46,2.41,8.62,-0.14,-0.06,0.34
3226,1.76,-0.50,11.45,-0.14,-0.06,0.34
3232,0.08,-2.64,11.68,-0.14,-0.06,0.34
3236,0.08,-2.64,11.68,-0.08,0.18,0.42
3241,1.61,-2.45,12.26,-0.08,0.18,0.42
3247,2.14,-0.84,12.57,-0.08,0.18,0.42
3251,2.14,-0.84,12.57,0.05,0.25,0.68
3256,-1.68,2.53,9.77,0.05,0.25,0.68
3261,-1.04,2.53,8.50,0.05,0.25,0.68
3265,-1.04,2.53,8.50,-0.00,0.41,0.47
3272,-0.30,2.03,7.59,-0.00,0.41,0.47
3276,-1.57,-0.11,7.89,-0.00,0.41,0.47
3282,-0.73,0.15,8.96,-0.00,0.41,0.47
3286,-0.73,0.15,8.96,-0.07,-0.04,0.60
3291,0.57,0.00,10.80,-0.07,-0.04,0.60
3297,-1.30,-0.65,10.80,-0.07,-0.04,0.60
3301,-1.30,-0.65,10.80,-0.15,-0.08,0.52
3306,-1.30,-0.65,10.80,-0.11,-0.05,0.47
3312,2.07,-2.34,9.43,-0.11,-0.05,0.47
3317,2.30,-1.07,10.34,-0.11,-0.05,0.47
3321,2.30,-1.07,10.34,-0.05,0.03,0.61
3326,2.30,-1.07,10.34,-0.02,0.08,0.65
3332,1.27,-0.30,11.49,-0.02,0.08,0.65
3336,1.27,-0.30,11.49,-0.03,0.20,0.65
3341,1.27,-0.30,11.49,-0.03,0.21,0.66
3346,1.27,-0.30,11.49,-0.03,0.22,0.68
3352,0.61,-0.38,9.39,-0.03,0.22,0.68
3356,0.61,-0.38,9.39,-0.03,0.19,0.70
3361,-0.57,1.11,8.39,-0.03,0.19,0.70
3367,0.92,1.38,8.74,-0.03,0.19,0.70
3371,0.92,1.38,8.74,-0.08,0.14,0.69
3376,1.72,0.42,10.69,-0.08,0.14,0.69
3382,0.15,1.27,10.84,-0.08,0.14,0.69
3386,0.15,1.27,10.84,-0.15,0.12,0.71
3391,0.15,1.27,10.84,-0.15,0.13,0.69
3396,0.84,1.23,11.41,-0.15,0.13,0.69
3401,1.76,-0.11,11.22,-0.15,0.13,0.69
3405,1.76,-0.11,11.22,-0.14,0.22,0.74
3411,1.76,-0.11,11.22,-0.14,0.24,0.76
3415,-0.42,1.49,7.86,-0.14,0.24,0.76
3421,-0.42,1.49,7.86,-0.11,0.25,0.77
3427,-1.61,1.34,7.66,-0.11,0.25,0.77
3431,-1.15,0.65,7.35,-0.11,0.25,0.77
3437,-0.96,0.23,8.43,-0.11,0.25,0.77
3441,-0.96,0.23,8.43,-0.21,0.06,0.60
3446,-0.96,0.23,8.43,-0.24,-0.02,0.58
3452,1.80,0.92,12.26,-0.24,-0.02,0.58
3456,1.80,0.92,12.26,-0.29,-0.02,0.54
3461,1.80,0.92,12.26,-0.31,0.06,0.51
3466,1.80,0.92,12.26,-0.30,0.16,0.47
3472,-0.38,2.11,11.19,-0.30,0.16,0.47
3476,-0.38,2.11,11.19,-0.30,0.41,0.40
3481,-0.34,1.04,8.62,-0.30,0.41,0.40
3486,-0.04,1.19,9.08,-0.30,0.41,0.40
3492,-0.38,0.57,8.43,-0.30,0.41,0.40
3496,-0.38,0.57,8.43,-0.30,0.39,0.31
3501,-0.96,1.42,7.70,-0.30,0.39,0.31
3506,-1.34,2.03,8.04,-0.30,0.39,0.31
3512,-1.00,2.07,7.70,-0.30,0.39,0.31
3516,-2.68,2.38,7.93,-0.30,0.39,0.31
3522,-3.07,2.84,6.59,-0.30,0.39,0.31
3526,-3.07,2.84,6.59,-0.40,0.20,-0.04
3532,-3.07,2.84,6.59,-0.43,0.15,-0.11
3538,-1.15,2.26,9.43,-0.43,0.15,-0.11
3541,-1.15,2.26,9.43,-0.47,0.12,-0.18
3546,-1.15,2.26,9.43,-0.49,0.09,-0.19
3551,1.27,1.11,11.22,-0.49,0.09,-0.19
3557,0.34,2.38,11.84,-0.49,0.09,-0.19
3561,0.34,2.38,11.84,-0.47,0.18,-0.22
3566,0.34,2.38,11.84,-0.44,0.25,-0.24
3573,-0.34,1.95,9.93,-0.44,0.25,-0.24
3576,-0.34,1.95,9.93,-0.42,0.34,-0.25
3581,-0.34,1.95,9.93,-0.40,0.34,-0.25
3586,-0.34,1.95,9.93,-0.39,0.33,-0.23
3592,0.84,2.14,9.81,-0.39,0.33,-0.23
3596,0.84,2.14,9.81,-0.38,0.26,-0.19
3601,0.84,2.14,9.81,-0.38,0.26,-0.18
3606,0.84,2.14,9.81,-0.46,0.28,-0.20
3612,-0.69,0.73,8.04,-0.46,0.28,-0.20
3616,-0.69,0.73,8.04,-0.40,0.18,-0.28
3621,-0.69,0.73,8.04,-0.38,0.15,-0.26
3627,0.65,1.07,9.84,-0.38,0.15,-0.26
3631,0.65,1.07,9.84,-0.43,0.04,-0.19
3636,0.65,1.07,9.84,-0.37,0.05,-0.16
3642,-0.80,1.11,7.93,-0.37,0.05,-0.16
3646,-0.80,1.11,7.93,-0.36,0.05,-0.19
3651,-0.80,1.11,7.93,-0.38,0.04,-0.16
3656,-0.69,-0.80,8.89,-0.38,0.04,-0.16
3662,-1.15,-0.50,8.54,-0.38,0.04,-0.16
3666,-1.15,-0.50,8.54,-0.30,0.05,-0.15
3671,-1.15,-0.50,8.54,-0.30,0.06,-0.11
3677,-1.80,-0.69,7.82,-0.30,0.06,-0.11
3681,-1.80,-0.69,7.82,-0.25,0.11,-0.09
3687,-1.80,-0.69,7.82,-0.27,0.09,-0.11
3692,0.80,-2.34,9.35,-0.27,0.09,-0.11
3696,0.80,-2.34,9.35,-0.27,-0.03,-0.09
3701,0.80,-2.34,9.35,-0.25,-0.07,-0.04
3706,0.80,-2.34,9.35,-0.21,-0.08,0.02
3712,1.19,-1.15,12.52,-0.21,-0.08,0.02
3716,1.19,-1.15,12.52,-0.18,0.04,0.12
3721,1.19,-1.15,12.52,-0.15,0.12,0.15
3726,1.19,-1.15,12.52,-0.13,0.19,0.18
3732,-0.30,-0.34,9.58,-0.13,0.19,0.18
3736,-0.30,-0.34,9.58,-0.12,0.24,0.24
3741,-0.30,-0.34,9.58,-0.08,0.18,0.28
3747,0.08,-1.88,8.39,-0.08,0.18,0.28
3751,0.08,-1.88,8.39,-0.07,0.01,0.38
3756,0.08,-1.88,8.39,-0.08,-0.05,0.40
3762,-1.88,0.92,10.07,-0.08,-0.05,0.40
3766,-1.88,0.92,10.07,-0.14,-0.10,0.33
3772,-1.88,0.92,10.07,-0.18,-0.12,0.29
3776,1.27,0.30,10.41,-0.18,-0.12,0.29
3782,2.87,-2.49,10.15,-0.18,-0.12,0.29
3786,2.87,-2.49,10.15,-0.20,-0.12,0.32
3791,2.87,-2.49,10.15,-0.16,-0.06,0.34
3797,-0.54,-0.54,9.23,-0.16,-0.06,0.34
3801,-0.54,-0.54,9.23,-0.09,0.11,0.31
3806,-0.54,-0.54,9.23,-0.12,0.13,0.29
3811,-0.65,-0.34,9.85,-0.12,0.13,0.29
3817,0.65,0.00,10.39,-0.12,0.13,0.29
3821,0.65,0.00,10.39,-0.13,0.09,0.29
3826,0.65,0.00,10.39,-0.15,0.08,0.28
3832,-1.61,1.30,8.92,-0.15,0.08,0.28
3837,-1.61,1.30,8.92,-0.13,0.12,0.23
3841,-1.61,1.30,8.92,-0.15,0.11,0.20
3846,-1.61,1.30,8.92,-0.19,0.08,0.15
3852,-0.77,0.54,9.23,-0.19,0.08,0.15
3856,-0.77,0.54,9.23,-0.22,-0.01,0.09
3861,-0.77,0.54,9.23,-0.23,-0.02,0.06
3866,-0.77,0.54,9.23,-0.23,0.00,0.04
3872,-1.27,0.69,10.39,-0.23,0.00,0.04
3876,-1.27,0.69,10.39,-0.23,0.14,-0.01
3881,-1.27,0.69,10.39,-0.23,0.17,-0.04
3887,-1.42,0.11,8.54,-0.23,0.17,-0.04
3891,-1.42,0.11,8.54,-0.19,0.16,-0.07
3896,-1.42,0.11,8.54,-0.19,0.14,-0.07
3902,-1.95,0.73,7.70,-0.19,0.14,-0.07
3906,-1.95,0.73,7.70,-0.20,0.09,-0.06
3911,-1.95,0.73,7.70,-0.21,0.03,-0.08
3917,1.42,-0.11,9.77,-0.21,0.03,-0.08
3921,1.42,-0.11,9.77,-0.22,-0.09,-0.05
3926,1.42,-0.11,9.77,-0.22,-0.09,-0.02
3931,1.42,-0.11,9.77,-0.20,-0.05,-0.01
3937,-0.30,0.04,11.54,-0.20,-0.05,-0.01
3941,-0.30,0.04,11.54,-0.15,0.13,0.01
3946,-0.30,0.04,11.54,-0.11,0.21,0.01
3952,-1.68,0.88,8.73,-0.11,0.21,0.01
3956,-1.68,0.88,8.73,-0.10,0.24,0.03
3961,-1.68,0.88,8.73,-0.11,0.18,0.04
3966,-1.68,0.88,8.73,-0.13,0.10,0.06
3973,0.34,0.77,8.93,-0.13,0.10,0.06
3976,0.34,0.77,8.93,-0.18,-0.00,0.07
3981,0.34,0.77,8.93,-0.16,-0.01,0.05
3986,0.34,0.77,8.93,-0.17,0.00,0.05
3992,-0.77,0.84,7.93,-0.17,0.00,0.05
3996,-0.77,0.84,7.93,-0.16,0.01,0.07
4001,-0.77,0.84,7.93,-0.18,0.01,0.06
4006,-1.99,2.03,8.54,-0.18,0.01,0.06
4011,-0.92,1.72,9.50,-0.18,0.01,0.06
4017,-0.92,1.72,9.50,-0.22,0.04,0.02
4022,-1.61,0.38,9.34,-0.22,0.04,0.02
4026,-1.61,0.38,9.34,-0.25,0.04,0.01
4031,-1.61,0.38,9.34,-0.26,-0.02,-0.00
4036,-0.46,0.42,9.84,-0.26,-0.02,-0.00
4043,-0.88,0.00,10.27,-0.26,-0.02,-0.00
4046,-0.88,0.00,10.27,-0.26,-0.02,-0.01
4051,-0.88,0.00,10.27,-0.26,0.01,-0.03
4057,-0.04,-0.61,9.23,-0.26,0.01,-0.03
4061,-0.04,-0.61,9.23,-0.23,0.04,-0.03
4066,-0.04,-0.61,9.23,-0.24,0.04,-0.04
4071,-0.04,0.30,10.69,-0.24,0.04,-0.04
4077,-0.65,-0.15,10.11,-0.24,0.04,-0.04
4081,-0.65,-0.15,10.11,-0.21,0.12,-0.08
4086,-0.65,-0.15,10.11,-0.22,0.13,-0.07
4092,-1.30,-0.23,9.69,-0.22,0.13,-0.07
4096,-1.30,-0.23,9.69,-0.22,0.11,-0.10
4101,-1.30,-0.23,9.69,-0.22,0.09,-0.10
4107,-1.30,-0.23,9.69,-0.23,0.05,-0.08
4111,-1.30,-0.23,9.69,-0.24,0.03,-0.07
4116,-1.30,-0.23,9.69,-0.23,0.00,-0.07
4121,-1.30,-0.23,9.69,-0.24,-0.02,-0.05
4127,1.07,0.23,8.35,-0.24,-0.02,-0.05
4131,1.07,0.23,8.35,-0.26,-0.07,-0.03
4137,1.07,0.23,8.35,-0.25,-0.06,-0.03
4142,-1.04,-0.46,9.50,-0.25,-0.06,-0.03
4146,-1.04,-0.46,9.50,-0.23,0.01,-0.02
4151,-1.04,-0.46,9.50,-0.23,0.02,-0.01
4156,-0.30,-1.49,9.58,-0.23,0.02,-0.01
4162,-0.11,-1.61,9.20,-0.23,0.02,-0.01
4166,-0.11,-1.61,9.20,-0.20,-0.03,-0.01
4171,-0.11,-1.61,9.20,-0.21,-0.06,-0.01
4177,1.72,-1.34,11.11,-0.21,-0.06,-0.01
4181,1.72,-1.34,11.11,-0.19,-0.06,-0.01
4186,1.72,-1.34,11.11,-0.18,-0.01,-0.02
4191,1.72,-1.34,11.11,-0.17,0.06,-0.00
4197,-0.34,-0.30,9.69,-0.17,0.06,-0.00
4201,-0.34,-0.30,9.69,-0.15,0.18,0.00
4206,-0.34,-0.30,9.69,-0.14,0.20,-0.01
4212,-1.42,-0.92,8.81,-0.14,0.20,-0.01
4216,-1.42,-0.92,8.81,-0.15,0.14,-0.01
4221,-1.42,-0.92,8.81,-0.14,0.05,-0.02
4226,-1.42,-0.92,8.81,-0.17,-0.02,-0.02
4232,0.42,0.42,9.42,-0.17,-0.02,-0.02
4236,0.42,0.42,9.42,-0.20,-0.08,-0.03
4241,0.42,0.42,9.42,-0.21,-0.07,-0.04
4247,0.11,1.19,9.27,-0.21,-0.07,-0.04
4251,0.11,1.19,9.27,-0.21,-0.03,-0.07
4256,0.11,1.19,9.27,-0.21,-0.00,-0.06
4261,0.11,1.19,9.27,-0.21,0.04,-0.06
4267,-0.57,0.08,9.04,-0.21,0.04,-0.06
4271,-0.57,0.08,9.04,-0.19,0.09,-0.07
4276,-0.57,0.08,9.04,-0.19,0.09,-0.07
4282,-0.42,-0.42,9.69,-0.19,0.09,-0.07
4286,-0.42,-0.42,9.69,-0.18,0.06,-0.04
4291,-0.42,-0.42,9.69,-0.19,0.03,-0.05
4297,0.34,-0.27,9.80,-0.19,0.03,-0.05
4301,0.34,-0.27,9.80,-0.18,0.01,-0.08
4306,0.34,-0.27,9.80,-0.19,0.04,-0.07
4311,0.34,-0.27,9.80,-0.17,0.06,-0.05
4316,-0.46,-1.11,10.15,-0.17,0.06,-0.05
4321,-0.46,-1.11,10.15,-0.16,0.06,-0.04
4326,-0.46,-1.11,10.15,-0.17,0.04,-0.06
4332,-0.96,-0.11,9.73,-0.17,0.04,-0.06
4336,-0.96,-0.11,9.73,-0.16,0.06,-0.08
4341,-0.96,-0.11,9.73,-0.17,0.06,-0.08
4346,-0.96,-0.11,9.73,-0.16,0.06,-0.09
4352,-0.46,-1.38,8.42,-0.16,0.06,-0.09
4356,-0.46,-1.38,8.42,-0.14,0.02,-0.09
4361,-0.46,-1.38,8.42,-0.14,0.02,-0.09
4367,-0.46,-1.38,8.42,-0.13,0.03,-0.10
4371,-0.46,-1.38,8.42,-0.15,0.04,-0.12
4376,-0.46,-1.38,8.42,-0.14,0.04,-0.14
4381,-0.46,-1.38,8.42,-0.14,0.00,-0.15
4387,-1.23,-1.57,9.20,-0.14,0.00,-0.15
4391,-1.23,-1.57,9.20,-0.12,-0.09,-0.16
4396,-1.23,-1.57,9.20,-0.13,-0.14,-0.15
4401,-1.23,-1.57,9.20,-0.12,-0.14,-0.16
4407,-1.00,-2.53,12.48,-0.12,-0.14,-0.16
4411,-1.00,-2.53,12.48,-0.07,0.00,-0.17
4416,-1.00,-2.53,12.48,-0.05,0.09,-0.17
4422,-3.60,-1.00,9.93,-0.05,0.09,-0.17
4426,-3.60,-1.00,9.93,-0.01,0.18,-0.14
4431,-3.60,-1.00,9.93,-0.00,0.15,-0.10
4436,-3.60,-1.00,9.93,-0.02,0.09,-0.09
4441,-3.60,-1.00,9.93,-0.02,0.05,-0.10
4446,-3.60,-1.00,9.93,-0.01,0.02,-0.12
4451,-3.60,-1.00,9.93,-0.00,-0.03,-0.10
4457,-2.61,-2.11,8.66,-0.00,-0.03,-0.10
4461,-2.61,-2.11,8.66,0.04,-0.04,-0.01
4466,-2.61,-2.11,8.66,0.06,-0.04,0.03
4472,-1.76,0.11,9.65,0.06,-0.04,0.03
4476,-1.76,0.11,9.65,0.08,-0.06,0.08
4481,-1.76,0.11,9.65,0.05,-0.09,0.06
4487,-1.76,0.11,9.65,0.04,-0.11,0.04
4491,-1.76,0.11,9.65,0.04,-0.13,0.04
4496,-1.76,0.11,9.65,0.03,-0.14,0.04
4501,-1.76,0.11,9.65,0.04,-0.14,0.06
4507,0.38,-1.38,9.89,0.04,-0.14,0.06
4511,0.38,-1.38,9.89,0.07,-0.09,0.12
4516,0.38,-1.38,9.89,0.07,-0.05,0.11
4522,0.38,-1.38,9.89,0.07,-0.03,0.06
4526,0.38,-1.38,9.89,0.07,-0.01,0.01
4531,0.38,-1.38,9.89,0.07,0.00,0.00
4536,0.38,-1.38,9.89,0.08,-0.00,0.04
4542,0.92,-0.96,8.85,0.08,-0.00,0.04
4546,0.92,-0.96,8.85,0.08,0.00,0.04
4551,0.92,-0.96,8.85,0.06,0.02,-0.01
4556,0.92,-0.96,8.85,0.07,0.04,-0.03
4561,0.92,-0.96,8.85,0.05,0.03,-0.01
4566,0.92,-0.96,8.85,0.04,0.00,0.01
4571,0.92,-0.96,8.85,0.04,-0.02,0.00
4577,0.61,-0.11,10.41,0.04,-0.02,0.00
4581,0.61,-0.11,10.41,0.03,-0.04,-0.03
4586,0.61,-0.11,10.41,0.05,-0.02,-0.02
4592,0.61,-0.11,10.41,0.04,-0.02,0.02
4596,0.61,-0.11,10.41,0.02,-0.04,0.02
4601,0.61,-0.11,10.41,0.01,-0.06,-0.00
4606,0.61,-0.11,10.41,-0.01,-0.06,-0.02
4612,-0.15,0.38,9.69,-0.01,-0.06,-0.02
4616,-0.15,0.38,9.69,-0.00,0.01,-0.02
4621,-0.15,0.38,9.69,-0.00,0.05,-0.01
4627,-0.15,0.38,9.69,-0.02,0.06,0.00
4631,-0.15,0.38,9.69,-0.03,0.04,0.01
4636,-0.15,0.38,9.69,-0.04,0.01,-0.00
4641,-0.15,0.38,9.69,-0.04,-0.03,-0.02
4647,1.04,-1.76,11.07,-0.04,-0.03,-0.02
4651,1.04,-1.76,11.07,-0.02,-0.06,-0.02
4656,1.04,-1.76,11.07,0.01,-0.03,0.01
4662,1.04,-1.76,11.07,0.03,0.03,0.05
4666,1.04,-1.76,11.07,0.05,0.07,0.06
4671,1.04,-1.76,11.07,0.06,0.08,0.07
4676,1.04,-1.76,11.07,0.05,0.07,0.06
4681,1.04,-1.76,11.07,0.05,0.03,0.06
4686,1.04,-1.76,11.07,0.06,-0.02,0.09
4691,1.04,-1.76,11.07,0.06,-0.04,0.10
4696,1.04,-1.76,11.07,0.05,-0.06,0.12
4701,1.04,-1.76,11.07,0.07,-0.06,0.12
4706,1.04,-1.76,11.07,0.05,-0.02,0.12
4711,1.04,-1.76,11.07,0.06,0.00,0.12
4716,1.04,-1.76,11.07,0.05,-0.01,0.14
4721,1.04,-1.76,11.07,0.05,-0.02,0.14
4726,1.04,-1.76,11.07,0.03,-0.04,0.13
4731,-1.00,-0.65,8.01,0.03,-0.04,0.13
4736,-1.00,-0.65,8.01,0.02,-0.01,0.17
4741,-1.00,-0.65,8.01,0.02,0.02,0.17
4746,-1.00,-0.65,8.01,0.01,0.01,0.16
4751,-1.00,-0.65,8.01,0.01,0.02,0.16
4756,-1.00,-0.65,8.01,-0.00,0.01,0.16
4761,-1.00,-0.65,8.01,0.03,0.01,0.18
4767,-1.04,-0.23,8.88,0.03,0.01,0.18
4771,-1.04,-0.23,8.88,0.03,0.03,0.21
4776,-1.04,-0.23,8.88,0.02,0.03,0.21
4781,-1.04,-0.23,8.88,0.02,-0.02,0.21
4786,-1.04,-0.23,8.88,-0.01,-0.05,0.21
4791,-1.04,-0.23,8.88,-0.02,-0.06,0.19
4796,-1.04,-0.23,8.88,-0.04,-0.06,0.15
4802,-1.42,0.27,9.58,-0.04,-0.06,0.15
4806,-1.42,0.27,9.58,-0.05,0.05,0.12
4811,-1.42,0.27,9.58,-0.06,0.11,0.11
4816,-1.42,0.27,9.58,-0.05,0.13,0.09
4821,-1.42,0.27,9.58,-0.05,0.12,0.08
4826,-1.42,0.27,9.58,-0.05,0.08,0.08
4831,-1.42,0.27,9.58,-0.08,0.02,0.07
4837,-1.04,1.53,7.51,-0.08,0.02,0.07
4841,-1.04,1.53,7.51,-0.13,-0.08,0.04
4846,-1.04,1.53,7.51,-0.14,-0.12,0.03
4851,-1.04,1.53,7.51,-0.14,-0.14,0.04
4856,-1.04,1.53,7.51,-0.14,-0.17,0.07
4861,-1.04,1.53,7.51,-0.15,-0.14,0.08
4866,-1.04,1.53,7.51,-0.15,-0.07,0.07
4872,-0.65,0.69,11.00,-0.15,-0.07,0.07
4876,-0.65,0.69,11.00,-0.12,0.11,0.02
4881,-0.65,0.69,11.00,-0.13,0.15,0.00
4886,-0.65,0.69,11.00,-0.12,0.15,0.02
4891,-0.65,0.69,11.00,-0.14,0.10,0.01
4896,-0.65,0.69,11.00,-0.15,0.06,-0.00
4901,-0.65,0.69,11.00,-0.18,0.02,-0.05
4907,0.65,0.46,8.78,-0.18,0.02,-0.05
4911,0.65,0.46,8.78,-0.20,0.01,-0.12
4916,0.65,0.46,8.78,-0.21,0.04,-0.14
4921,0.65,0.46,8.78,-0.20,0.05,-0.17
4926,0.65,0.46,8.78,-0.18,0.03,-0.18
4831,-1.42,0.27,9.58,-0.08,0.02,0.07
4837,-1.04,1.53,7.51,-0.08,0.02,0.07
4841,-1.04,1.53,7.51,-0.13,-0.08,0.04
4846,-1.04,1.53,7.51,-0.14,-0.12,0.03
4851,-1.04,1.53,7.51,-0.14,-0.14,0.04
4856,-1.04,1.53,7.51,-0.14,-0.17,0.07
4861,-1.04,1.53,7.51,-0.15,-0.14,0.08
4866,-1.04,1.53,7.51,-0.15,-0.07,0.07
4872,-0.65,0.69,11.00,-0.15,-0.07,0.07
4876,-0.65,0.69,11.00,-0.12,0.11,0.02
4881,-0.65,0.69,11.00,-0.13,0.15,0.00
4886,-0.65,0.69,11.00,-0.12,0.15,0.02
4891,-0.65,0.69,11.00,-0.14,0.10,0.01
4896,-0.65,0.69,11.00,-0.15,0.06,-0.00
4901,-0.65,0.69,11.00,-0.18,0.02,-0.05
