timestamp,accX,accY,accZ,gyroX,gyroY,gyroZ
Left
5,1.19,-0.42,12.48,0.07,0.04,0.58
18,1.19,-0.42,12.48,0.08,0.13,0.59
20,1.19,-0.42,12.48,0.20,-0.06,0.06
22,1.19,-0.42,12.48,0.28,0.04,0.16
25,-0.61,-1.15,9.12,0.28,0.04,0.16
30,-0.61,-1.15,9.12,0.29,0.10,0.21
35,-2.80,-0.96,8.42,0.29,0.10,0.21
41,-3.41,-0.61,9.12,0.29,0.10,0.21
46,-3.41,-0.61,9.12,0.34,0.18,0.20
50,-3.41,-0.61,9.12,0.33,0.13,0.17
56,-3.41,-0.61,9.12,0.31,0.02,0.17
60,-3.41,-0.61,9.12,0.28,-0.14,0.20
65,-3.41,-0.61,9.12,0.23,-0.26,0.23
71,-3.41,-0.61,9.12,0.17,-0.33,0.23
76,-3.41,-0.61,9.12,0.12,-0.32,0.18
80,-3.41,-0.61,9.12,0.12,-0.24,0.14
86,-3.41,-0.61,9.12,0.13,-0.11,0.12
91,-0.15,-2.38,9.81,0.13,-0.11,0.12
95,-0.15,-2.38,9.81,0.24,0.12,0.16
100,-0.15,-2.38,9.81,0.28,0.16,0.21
106,-0.15,-2.38,9.81,0.31,0.15,0.22
110,-0.15,-2.38,9.81,0.32,0.10,0.22
116,-0.15,-2.38,9.81,0.30,0.04,0.19
121,-0.15,-2.38,9.81,0.28,-0.03,0.17
126,-1.38,-1.04,9.16,0.28,-0.03,0.17
130,-2.03,-0.11,10.54,0.28,-0.03,0.17
136,-2.03,-0.11,10.54,0.22,-0.06,0.12
141,-2.03,-0.11,10.54,0.19,-0.06,0.08
146,-2.03,-0.11,10.54,0.18,-0.10,0.06
150,-2.03,-0.11,10.54,0.16,-0.13,0.07
156,-2.03,-0.11,10.54,0.14,-0.18,0.10
161,1.42,0.61,9.80,0.14,-0.18,0.10
166,1.42,0.61,9.80,0.16,-0.08,0.15
171,1.42,0.61,9.80,0.19,0.02,0.12
176,1.42,0.61,9.80,0.25,0.13,0.09
180,1.42,0.61,9.80,0.28,0.20,0.10
185,1.42,0.61,9.80,0.28,0.20,0.14
191,1.42,0.61,9.80,0.27,0.11,0.17
196,1.42,0.61,9.80,0.22,-0.04,0.17
201,1.42,0.61,9.80,0.20,-0.16,0.14
206,1.42,0.61,9.80,0.16,-0.23,0.12
210,1.42,0.61,9.80,0.13,-0.24,0.12
216,1.19,1.11,10.31,0.13,-0.24,0.12
221,1.19,1.11,10.31,0.14,-0.10,0.12
226,1.19,1.11,10.31,0.15,-0.00,0.11
230,1.19,1.11,10.31,0.17,0.11,0.08
235,1.19,1.11,10.31,0.19,0.16,0.06
240,1.19,1.11,10.31,0.19,0.12,0.04
246,1.19,1.11,10.31,0.18,0.05,0.04
250,1.19,1.11,10.31,0.16,-0.06,0.06
255,1.19,1.11,10.31,0.15,-0.13,0.09
260,1.19,1.11,10.31,0.13,-0.13,0.09
266,-1.80,0.84,9.20,0.13,-0.13,0.09
270,-1.80,0.84,9.20,0.15,0.04,0.01
276,-1.80,0.84,9.20,0.15,0.10,-0.04
281,-1.80,0.84,9.20,0.16,0.11,-0.04
285,-0.34,-0.04,9.30,0.16,0.11,-0.04
290,-0.34,-0.04,9.30,0.14,-0.00,0.03
296,-0.34,-0.04,9.30,0.13,-0.05,0.03
300,-0.34,-0.04,9.30,0.13,-0.04,0.00
305,-0.34,-0.04,9.30,0.13,-0.04,-0.03
310,-0.34,-0.04,9.30,0.12,-0.01,-0.05
316,-0.34,-0.04,9.30,0.12,-0.01,-0.04
320,-0.34,-0.04,9.30,0.11,-0.06,-0.02
326,-0.34,-0.04,9.30,0.11,-0.14,-0.01
330,-0.34,-0.04,9.30,0.09,-0.17,0.02
336,-0.34,-0.04,9.30,0.09,-0.12,0.04
340,-0.34,-0.04,9.30,0.09,-0.04,0.03
346,-0.34,-0.04,9.30,0.12,0.06,0.01
350,-0.34,-0.04,9.30,0.15,0.15,-0.00
355,-0.34,-0.04,9.30,0.17,0.19,0.01
360,-0.34,-0.04,9.30,0.17,0.17,0.04
366,-0.34,-0.04,9.30,0.18,0.09,0.06
371,-0.34,-0.04,9.30,0.16,-0.02,0.06
375,-0.23,-0.27,9.65,0.16,-0.02,0.06
380,-0.23,-0.27,9.65,0.14,-0.15,0.06
386,-0.27,2.26,9.50,0.14,-0.15,0.06
391,-0.27,2.26,9.50,0.13,-0.07,0.06
395,-1.30,0.77,9.46,0.13,-0.07,0.06
401,-1.30,0.77,9.46,0.13,0.05,0.01
406,-1.30,0.77,9.46,0.13,0.09,-0.02
410,-4.75,-0.88,7.05,0.13,0.09,-0.02
415,-4.75,-0.88,7.05,0.19,0.08,-0.04
421,-3.64,-0.88,6.51,0.19,0.08,-0.04
425,-1.27,-1.46,7.78,0.19,0.08,-0.04
430,0.57,-1.04,8.46,0.19,0.08,-0.04
436,0.57,-1.04,8.46,0.11,-0.30,-0.10
441,0.57,-1.04,8.46,0.09,-0.37,-0.09
446,0.57,-1.04,8.46,0.09,-0.38,-0.04
451,0.57,-1.04,8.46,0.13,-0.27,0.04
456,0.46,-0.11,12.41,0.13,-0.27,0.04
461,-2.45,-0.08,10.04,0.13,-0.27,0.04
465,-2.49,-0.30,8.54,0.13,-0.27,0.04
471,-2.49,-0.30,8.54,0.34,0.36,0.09
477,-1.84,-3.14,7.05,0.34,0.36,0.09
481,-0.15,-1.76,6.86,0.34,0.36,0.09
485,1.38,-1.30,8.54,0.34,0.36,0.09
491,1.38,-1.30,8.54,0.33,-0.16,0.26
496,1.38,-1.30,8.54,0.27,-0.27,0.27
501,1.38,-1.30,8.54,0.21,-0.30,0.25
506,0.08,-0.65,11.99,0.21,-0.30,0.25
511,0.38,-2.53,11.22,0.21,-0.30,0.25
515,0.54,-2.38,10.57,0.21,-0.30,0.25
521,0.54,-2.38,10.57,0.29,-0.05,0.34
526,0.54,-2.38,10.57,0.32,-0.04,0.44
531,1.68,-1.30,9.20,0.32,-0.04,0.44
535,0.77,-1.65,9.92,0.32,-0.04,0.44
541,0.77,-1.65,9.92,0.38,-0.04,0.58
546,0.77,-1.65,9.92,0.41,0.01,0.59
551,-2.11,-0.42,8.54,0.41,0.01,0.59
555,-1.88,-1.15,9.38,0.41,0.01,0.59
561,-1.88,-1.15,9.38,0.40,-0.01,0.57
566,-1.88,-1.15,9.38,0.38,-0.11,0.57
570,-1.88,-1.15,9.38,0.34,-0.21,0.61
576,-1.88,-1.15,9.38,0.31,-0.26,0.64
581,1.34,-0.84,11.22,0.31,-0.26,0.64
585,0.69,-0.57,11.03,0.31,-0.26,0.64
591,0.69,-0.57,11.03,0.30,-0.11,0.62
596,0.69,-0.57,11.03,0.32,0.02,0.59
601,0.69,-0.57,11.03,0.36,0.15,0.57
606,-3.48,-2.03,7.12,0.36,0.15,0.57
610,-1.88,-0.92,6.36,0.36,0.15,0.57
615,-1.88,-0.92,6.36,0.41,0.12,0.62
620,-1.49,-0.11,5.48,0.41,0.12,0.62
626,-1.49,-0.11,5.48,0.38,-0.02,0.62
631,2.87,0.65,9.12,0.38,-0.02,0.62
636,3.26,0.23,12.64,0.38,-0.02,0.62
640,3.48,0.92,13.67,0.38,-0.02,0.62
646,3.48,0.92,13.67,0.09,-0.25,0.46
651,-0.84,1.88,14.78,0.09,-0.25,0.46
655,-0.96,1.19,14.55,0.09,-0.25,0.46
661,-0.96,1.19,14.55,0.18,0.25,0.52
666,-0.96,1.19,14.55,0.21,0.37,0.50
671,1.23,-2.07,9.00,0.21,0.37,0.50
675,-1.57,-1.34,7.17,0.21,0.37,0.50
681,-1.57,-1.34,7.17,0.28,0.25,0.55
685,-1.15,1.46,5.64,0.28,0.25,0.55
690,-2.61,2.41,5.78,0.28,0.25,0.55
696,-2.61,2.41,5.78,0.26,0.02,0.49
701,-2.61,2.41,5.78,0.19,0.00,0.39
705,-0.73,1.76,10.35,0.19,0.00,0.39
710,-2.22,1.30,10.84,0.19,0.00,0.39
716,-2.22,1.30,10.84,0.00,-0.07,0.19
721,-2.22,1.30,10.84,0.00,-0.05,0.15
725,-1.57,1.27,9.50,0.00,-0.05,0.15
730,-2.18,1.72,7.93,0.00,-0.05,0.15
736,-2.18,1.72,7.93,-0.00,0.03,0.02
741,-2.18,1.72,7.93,0.00,0.05,-0.06
746,-2.18,1.72,7.93,0.01,0.07,-0.12
751,-2.18,1.72,7.93,0.03,0.05,-0.13
756,-0.80,-1.34,9.81,0.03,0.05,-0.13
760,1.00,-0.65,10.19,0.03,0.05,-0.13
766,0.57,0.11,9.34,0.03,0.05,-0.13
771,-2.45,2.03,9.54,0.03,0.05,-0.13
775,-0.38,0.96,10.23,0.03,0.05,-0.13
781,-0.38,0.96,10.23,0.07,0.14,-0.10
786,-0.38,0.96,10.23,0.04,0.12,-0.14
790,0.04,-0.50,10.23,0.04,0.12,-0.14
795,-0.34,-0.30,10.19,0.04,0.12,-0.14
801,-0.34,-0.30,10.19,0.08,0.01,-0.03
806,-0.34,-0.30,10.19,0.09,0.01,0.01
810,-0.73,1.04,9.39,0.09,0.01,0.01
815,-3.14,2.18,7.66,0.09,0.01,0.01
821,-3.14,2.18,7.66,0.10,0.06,-0.02
825,-1.76,-0.96,5.59,0.10,0.06,-0.02
830,-3.52,-0.80,5.86,0.10,0.06,-0.02
836,-3.52,-0.80,5.86,0.17,-0.07,-0.01
841,-3.52,-0.80,5.86,0.16,-0.12,0.01
845,-0.27,-1.68,9.38,0.16,-0.12,0.01
851,-0.42,-0.57,10.45,0.16,-0.12,0.01
855,-0.46,-1.46,11.80,0.16,-0.12,0.01
860,-0.46,-1.46,11.80,0.11,-0.25,0.10
866,-0.46,-1.46,11.80,0.12,-0.20,0.13
871,-0.46,-1.46,11.80,0.15,-0.12,0.18
875,0.54,-1.84,11.45,0.15,-0.12,0.18
880,-0.04,-2.07,10.73,0.15,-0.12,0.18
886,-0.04,-2.07,10.73,0.30,0.16,0.38
891,-0.04,-2.07,10.73,0.35,0.19,0.43
896,-1.76,-1.95,7.59,0.35,0.19,0.43
900,-0.96,-1.65,8.23,0.35,0.19,0.43
906,-0.96,-1.65,8.23,0.41,0.03,0.59
910,-2.57,-0.46,8.78,0.41,0.03,0.59
915,-1.84,-0.46,9.35,0.41,0.03,0.59
921,-1.84,-0.46,9.35,0.29,-0.16,0.53
926,-1.84,-0.46,9.35,0.26,-0.21,0.51
930,1.07,-2.61,10.23,0.26,-0.21,0.51
937,1.07,-2.61,10.23,0.26,-0.31,0.61
941,1.07,-2.61,10.23,0.26,-0.29,0.67
945,2.49,-1.42,10.38,0.26,-0.29,0.67
950,0.96,-1.76,11.19,0.26,-0.29,0.67
956,-0.08,-1.49,10.88,0.26,-0.29,0.67
960,-1.42,-1.65,10.54,0.26,-0.29,0.67
965,-2.34,-1.11,10.00,0.26,-0.29,0.67
971,-2.34,-1.11,10.00,0.45,0.21,0.84
976,-2.34,-1.11,10.00,0.44,0.22,0.84
981,1.65,-2.95,10.92,0.44,0.22,0.84
985,1.65,-2.95,10.92,0.37,-0.07,0.91
990,2.53,-2.11,10.69,0.37,-0.07,0.91
996,2.53,-2.11,10.69,0.34,-0.13,0.94
1000,0.27,0.27,11.41,0.34,-0.13,0.94
1005,-1.53,0.88,10.31,0.34,-0.13,0.94
1011,-1.53,0.88,10.31,0.31,0.06,0.83
1015,-3.87,-1.19,8.31,0.31,0.06,0.83
1020,-2.64,-3.18,8.27,0.31,0.06,0.83
1026,-1.00,-2.64,7.70,0.31,0.06,0.83
1030,1.11,-2.26,9.69,0.31,0.06,0.83
1035,2.18,-1.76,10.27,0.31,0.06,0.83
1040,5.05,-1.23,10.96,0.31,0.06,0.83
1045,5.05,-1.23,10.96,0.20,-0.25,0.80
1051,5.05,-1.23,10.96,0.16,-0.23,0.80
1055,5.05,-1.23,10.96,0.18,0.07,0.81
1060,1.57,0.42,12.02,0.18,0.07,0.81
1065,-2.76,1.34,12.02,0.18,0.07,0.81
1071,-2.76,1.34,12.02,0.31,0.47,0.78
1077,-3.41,-1.38,9.77,0.31,0.47,0.78
1080,-2.26,-2.22,8.66,0.31,0.47,0.78
1085,-0.38,-1.27,8.73,0.31,0.47,0.78
1090,-0.11,0.15,9.69,0.31,0.47,0.78
1096,0.15,0.54,7.55,0.31,0.47,0.78
1100,-0.54,2.22,7.39,0.31,0.47,0.78
1105,-0.04,3.71,8.01,0.31,0.47,0.78
1110,1.19,2.53,9.65,0.31,0.47,0.78
1116,1.19,1.76,9.04,0.31,0.47,0.78
1120,0.04,1.34,10.39,0.31,0.47,0.78
1126,-0.19,-0.04,10.73,0.31,0.47,0.78
1130,1.11,-1.07,12.06,0.31,0.47,0.78
1135,0.34,0.61,10.91,0.31,0.47,0.78
1140,-2.14,0.27,10.80,0.31,0.47,0.78
1146,-2.26,0.65,11.07,0.31,0.47,0.78
1150,-0.61,1.30,10.11,0.31,0.47,0.78
1155,-1.19,1.34,9.23,0.31,0.47,0.78
1160,-1.68,0.38,9.50,0.31,0.47,0.78
1166,-1.68,0.38,9.50,0.05,0.21,0.38
1170,-0.42,0.19,7.70,0.05,0.21,0.38
1175,-0.19,0.04,9.43,0.05,0.21,0.38
1181,2.03,-0.08,11.98,0.05,0.21,0.38
1185,2.95,-0.30,13.11,0.05,0.21,0.38
1190,1.23,0.73,13.25,0.05,0.21,0.38
1196,1.27,0.80,13.56,0.05,0.21,0.38
1201,1.27,0.80,13.56,-0.05,0.15,0.39
1205,-4.29,2.68,8.78,-0.05,0.15,0.39
1210,-3.33,1.15,7.73,-0.05,0.15,0.39
1216,-3.56,0.88,6.74,-0.05,0.15,0.39
1221,-3.41,-0.73,5.90,-0.05,0.15,0.39
1225,-3.41,-0.73,5.90,0.04,0.12,0.30
1230,-3.41,-0.73,5.90,0.00,-0.05,0.29
1236,0.04,0.61,6.89,0.00,-0.05,0.29
1241,-1.65,1.72,9.96,0.00,-0.05,0.29
1245,-1.65,1.72,9.96,-0.13,-0.12,0.21
1250,-1.65,1.72,9.96,-0.15,-0.06,0.16
1255,1.38,0.04,11.64,-0.15,-0.06,0.16
1260,1.23,-1.07,13.07,-0.15,-0.06,0.16
1266,0.69,-0.80,12.26,-0.15,-0.06,0.16
1270,1.95,-0.77,11.45,-0.15,-0.06,0.16
1275,1.61,0.19,9.73,-0.15,-0.06,0.16
1280,0.88,1.07,9.77,-0.15,-0.06,0.16
1286,-1.00,1.49,9.93,-0.15,-0.06,0.16
1290,1.04,0.80,9.16,-0.15,-0.06,0.16
1295,1.04,0.23,9.73,-0.15,-0.06,0.16
1301,0.15,0.92,9.54,-0.15,-0.06,0.16
1305,0.11,-0.61,11.26,-0.15,-0.06,0.16
1310,2.34,-0.38,10.19,-0.15,-0.06,0.16
1315,0.46,-0.23,11.04,-0.15,-0.06,0.16
1321,-1.00,-0.04,10.15,-0.15,-0.06,0.16
1326,0.84,0.23,8.82,-0.15,-0.06,0.16
1330,0.84,0.23,8.82,-0.02,0.06,0.41
1335,-1.04,0.27,8.92,-0.02,0.06,0.41
1340,0.19,0.38,7.74,-0.02,0.06,0.41
1345,-0.61,-0.15,7.47,-0.02,0.06,0.41
1350,-1.68,-0.46,6.59,-0.02,0.06,0.41
1356,-1.76,-0.30,7.70,-0.02,0.06,0.41
1361,-1.15,-1.95,7.77,-0.02,0.06,0.41
1365,-1.15,-1.95,7.77,-0.02,0.03,0.26
1370,-1.15,-1.95,7.77,-0.04,0.01,0.24
1375,3.14,-1.99,11.84,-0.04,0.01,0.24
1380,2.49,-1.34,11.42,-0.04,0.01,0.24
1385,2.11,-1.61,13.11,-0.04,0.01,0.24
1391,2.49,-1.27,12.91,-0.04,0.01,0.24
1396,-1.38,-0.84,12.34,-0.04,0.01,0.24
1400,-1.38,-0.84,12.34,0.07,0.35,0.31
1405,-2.34,-1.49,9.96,0.07,0.35,0.31
1410,-1.65,-1.95,8.20,0.07,0.35,0.31
1415,-2.14,-1.99,7.01,0.07,0.35,0.31
1422,-0.50,-2.95,6.51,0.07,0.35,0.31
1425,0.84,-1.23,6.55,0.07,0.35,0.31
1430,0.88,0.46,6.93,0.07,0.35,0.31
1435,2.38,1.00,9.20,0.07,0.35,0.31
1441,3.48,1.57,10.57,0.07,0.35,0.31
1446,2.34,1.49,11.68,0.07,0.35,0.31
1450,2.34,1.49,11.68,-0.01,-0.06,0.54
1455,-0.57,1.49,12.18,-0.01,-0.06,0.54
1460,-2.26,1.80,10.96,-0.01,-0.06,0.54
1465,-2.26,1.38,10.07,-0.01,-0.06,0.54
1470,-3.10,1.23,8.96,-0.01,-0.06,0.54
1475,-0.23,0.08,9.38,-0.01,-0.06,0.54
1480,-0.23,0.08,9.38,0.10,0.29,0.64
1485,-0.23,0.08,9.38,0.07,0.15,0.66
1491,-0.23,0.08,9.38,0.03,0.02,0.68
1496,-1.34,1.04,7.82,0.03,0.02,0.68
1500,-1.34,1.04,7.82,0.04,0.07,0.63
1505,-1.34,1.04,7.82,0.04,0.12,0.58
1511,-1.84,0.65,7.86,0.04,0.12,0.58
1516,-0.73,-0.46,9.39,0.04,0.12,0.58
1520,-0.73,-0.46,9.39,-0.03,0.03,0.53
1525,0.04,0.27,9.42,-0.03,0.03,0.53
1530,0.50,-0.08,10.45,-0.03,0.03,0.53
1535,0.73,0.54,10.41,-0.03,0.03,0.53
1540,-0.27,0.61,10.65,-0.03,0.03,0.53
1546,0.50,-0.08,11.26,-0.03,0.03,0.53
1551,2.03,-0.42,11.64,-0.03,0.03,0.53
1555,2.03,-0.42,11.64,-0.09,0.15,0.40
1561,0.15,-0.96,10.27,-0.09,0.15,0.40
1566,0.08,-0.27,9.80,-0.09,0.15,0.40
1570,0.08,-0.27,9.80,-0.02,0.23,0.38
1575,-0.04,-0.27,9.00,-0.02,0.23,0.38
1581,-1.04,0.19,10.80,-0.02,0.23,0.38
1586,-1.84,1.27,11.76,-0.02,0.23,0.38
1590,-1.84,1.27,11.76,-0.09,0.15,0.33
1595,-1.76,0.15,10.41,-0.09,0.15,0.33
1600,-1.80,0.84,11.26,-0.09,0.15,0.33
1605,-1.23,1.91,9.38,-0.09,0.15,0.33
1612,0.27,0.38,8.54,-0.09,0.15,0.33
1615,-0.19,1.00,8.08,-0.09,0.15,0.33
1620,-1.95,1.42,8.12,-0.09,0.15,0.33
1626,-1.80,1.42,7.31,-0.09,0.15,0.33
1630,-1.80,1.42,7.31,-0.08,0.09,0.15
1635,-3.14,0.42,8.32,-0.08,0.09,0.15
1642,-4.02,0.11,9.04,-0.08,0.09,0.15
1645,-4.02,0.11,9.04,-0.11,0.09,0.07
1650,-1.23,-0.54,10.49,-0.11,0.09,0.07
1655,-1.95,-1.00,11.34,-0.11,0.09,0.07
1662,-0.27,-0.65,11.03,-0.11,0.09,0.07
1665,0.50,0.57,9.69,-0.11,0.09,0.07
1670,-0.30,1.15,9.92,-0.11,0.09,0.07
1677,-0.15,0.69,9.43,-0.11,0.09,0.07
1681,-0.08,-1.00,8.78,-0.11,0.09,0.07
1686,-1.23,-1.23,10.57,-0.11,0.09,0.07
1690,-1.23,-1.23,10.57,0.04,0.26,0.20
1695,-1.23,-1.23,10.57,0.06,0.25,0.27
1700,-2.38,0.15,8.23,0.06,0.25,0.27
1705,-2.18,-0.65,9.12,0.06,0.25,0.27
1710,-1.38,0.19,8.58,0.06,0.25,0.27
1718,-2.34,0.88,8.93,0.06,0.25,0.27
1721,-1.07,-0.34,7.85,0.06,0.25,0.27
1725,-1.07,-0.34,7.85,0.00,-0.03,0.30
1730,-1.07,-0.34,7.85,0.03,-0.05,0.34
1737,-0.84,-1.91,7.55,0.03,-0.05,0.34
1742,0.73,-2.38,9.27,0.03,-0.05,0.34
1745,0.73,-2.38,9.27,0.05,-0.11,0.45
1751,0.73,-2.38,9.27,0.06,-0.07,0.48
1757,1.00,-1.88,12.10,0.06,-0.07,0.48
1760,1.00,-1.88,12.10,0.11,0.05,0.52
1765,1.00,-1.88,12.10,0.12,0.13,0.56
1770,1.00,-1.88,12.10,0.15,0.17,0.59
1775,-0.80,-2.07,8.82,0.15,0.17,0.59
1782,-1.04,-1.53,8.66,0.15,0.17,0.59
1785,1.30,-2.45,9.80,0.15,0.17,0.59
1790,2.11,-3.26,10.73,0.15,0.17,0.59
1797,2.03,-2.80,11.57,0.15,0.17,0.59
1801,2.03,-2.80,11.57,0.15,-0.06,0.77
1805,2.18,-1.11,14.14,0.15,-0.06,0.77
1810,2.34,-0.73,13.91,0.15,-0.06,0.77
1817,0.00,0.19,10.73,0.15,-0.06,0.77
1820,-1.76,0.38,7.43,0.15,-0.06,0.77
1825,-1.99,-0.50,6.32,0.15,-0.06,0.77
1830,-1.00,-0.57,5.82,0.15,-0.06,0.77
1837,-0.19,-1.34,6.40,0.15,-0.06,0.77
1841,1.38,-1.84,10.15,0.15,-0.06,0.77
1847,3.71,-1.27,12.87,0.15,-0.06,0.77
1850,3.71,-1.27,12.87,0.05,-0.20,0.74
1856,4.10,0.50,16.43,0.05,-0.20,0.74
1862,3.10,0.54,16.47,0.05,-0.20,0.74
1865,3.10,0.54,16.47,0.01,0.11,0.74
1870,3.10,0.54,16.47,0.04,0.28,0.73
1875,-0.11,0.15,13.06,0.04,0.28,0.73
1880,-0.11,0.15,13.06,0.10,0.43,0.72
1887,-0.11,0.15,13.06,0.15,0.51,0.71
1892,-2.26,-2.53,7.12,0.15,0.51,0.71
1895,-2.26,-2.53,7.12,0.27,0.36,0.73
1900,-2.26,-2.53,7.12,0.25,0.25,0.72
1905,-2.26,-2.53,7.12,0.19,0.13,0.67
1910,-2.38,0.69,6.25,0.19,0.13,0.67
1916,-1.88,1.04,6.71,0.19,0.13,0.67
1920,-1.88,1.04,6.71,-0.05,-0.09,0.36
1925,-0.50,0.77,8.04,-0.05,-0.09,0.36
1932,-0.57,0.96,8.88,-0.05,-0.09,0.36
1935,-0.57,0.96,8.88,-0.10,-0.07,0.22
1941,0.61,-0.08,13.71,-0.10,-0.07,0.22
1947,-1.00,-0.50,12.76,-0.10,-0.07,0.22
1950,-1.00,-0.50,12.76,-0.05,0.19,0.24
1955,-1.00,-0.50,12.76,-0.02,0.28,0.22
1960,-1.80,1.04,9.69,-0.02,0.28,0.22
1967,-2.57,1.07,8.39,-0.02,0.28,0.22
1970,-2.57,1.07,8.39,0.10,0.41,0.23
1976,-1.53,0.38,5.74,0.10,0.41,0.23
1982,-0.84,0.96,7.36,0.10,0.41,0.23
1985,-0.84,0.96,7.36,0.06,0.17,0.22
1990,-0.84,0.96,7.36,0.02,0.07,0.22
1995,-0.65,1.38,8.16,0.02,0.07,0.22
2001,-0.34,2.07,9.00,0.02,0.07,0.22
2005,-0.34,2.07,9.00,-0.06,0.00,0.14
2011,-0.34,2.07,9.00,-0.07,0.05,0.10
2017,1.23,1.38,8.89,-0.07,0.05,0.10
2020,1.23,1.38,8.89,-0.10,0.03,0.10
2025,1.23,1.38,8.89,-0.10,0.01,0.14
2031,1.23,1.38,8.89,-0.10,-0.01,0.17
2037,3.29,0.23,10.11,-0.10,-0.01,0.17
2040,3.29,0.23,10.11,-0.10,-0.06,0.20
2045,1.04,0.77,11.68,-0.10,-0.06,0.20
2052,0.34,0.57,11.00,-0.10,-0.06,0.20
2055,0.34,0.57,11.00,0.00,0.21,0.32
2060,0.34,0.57,11.00,0.05,0.31,0.33
2065,-4.06,1.11,9.92,0.05,0.31,0.33
2070,-2.95,0.23,8.96,0.05,0.31,0.33
2077,-2.57,-0.08,8.01,0.05,0.31,0.33
2081,-0.42,-0.96,8.20,0.05,0.31,0.33
2086,1.49,-1.00,8.16,0.05,0.31,0.33
2090,1.49,-1.00,8.16,-0.07,-0.32,0.25
2096,1.49,-1.00,8.16,-0.05,-0.33,0.28
2102,1.00,1.68,9.88,-0.05,-0.33,0.28
2105,1.00,1.68,9.88,-0.06,-0.17,0.26
2110,1.00,1.68,9.88,-0.08,-0.07,0.23
2116,0.54,-0.34,12.30,-0.08,-0.07,0.23
2122,0.84,-0.84,12.56,-0.08,-0.07,0.23
2125,0.84,-0.84,12.56,-0.01,0.08,0.26
2131,0.84,-0.84,12.56,0.01,0.09,0.34
2137,0.00,0.00,11.26,0.01,0.09,0.34
2140,0.00,0.00,11.26,0.07,0.12,0.43
2145,0.00,0.00,11.26,0.06,0.12,0.43
2151,0.00,0.00,11.26,0.04,0.12,0.42
2157,0.57,1.42,9.43,0.04,0.12,0.42
2160,0.57,1.42,9.43,0.03,0.09,0.42
2165,-0.34,-1.38,9.96,0.03,0.09,0.42
2171,1.15,-0.46,10.69,0.03,0.09,0.42
2177,-0.73,-1.68,10.42,0.03,0.09,0.42
2181,-0.73,-1.68,10.42,0.06,0.05,0.57
2185,0.42,-0.77,10.57,0.06,0.05,0.57
2190,1.04,0.04,10.11,0.06,0.05,0.57
2197,0.23,-0.96,9.73,0.06,0.05,0.57
2201,0.23,-0.96,9.73,0.07,0.12,0.61
2207,0.46,-1.88,8.85,0.07,0.12,0.61
2210,0.46,-1.88,8.85,0.11,0.13,0.64
2215,0.46,-1.88,8.85,0.13,0.15,0.67
2221,-0.96,-1.53,6.93,0.13,0.15,0.67
2227,-1.61,-1.91,6.93,0.13,0.15,0.67
2231,-1.61,-1.91,6.93,0.14,0.07,0.65
2236,-1.61,-1.91,6.93,0.11,0.03,0.62
2242,0.61,-1.23,10.45,0.11,0.03,0.62
2246,0.61,-1.23,10.45,0.04,-0.04,0.56
2251,0.61,-1.23,10.45,0.02,-0.04,0.56
2257,2.68,-2.80,14.82,0.02,-0.04,0.56
2260,2.68,-2.80,14.82,0.04,0.05,0.60
2265,2.68,-2.80,14.82,0.11,0.14,0.66
2271,2.68,-2.80,14.82,0.10,0.28,0.72
2276,0.50,0.84,11.68,0.10,0.28,0.72
2281,0.50,0.84,11.68,0.18,0.48,0.73
2285,0.50,0.84,11.68,0.20,0.51,0.71
2290,0.50,0.84,11.68,0.22,0.46,0.73
2295,-3.68,-0.46,6.97,0.22,0.46,0.73
2300,-3.68,-0.46,6.97,0.24,0.37,0.79
2306,-4.56,0.77,8.70,0.24,0.37,0.79
2312,-4.56,1.61,6.74,0.24,0.37,0.79
2316,-4.56,1.61,6.74,0.04,0.05,0.57
2321,-4.56,1.61,6.74,-0.03,-0.09,0.53
2327,2.45,-1.30,9.89,-0.03,-0.09,0.53
2331,2.45,-1.30,9.89,-0.09,-0.24,0.54
2335,2.45,-1.30,9.89,-0.07,-0.20,0.55
2341,1.27,1.23,12.41,-0.07,-0.20,0.55
2347,-0.54,1.04,11.26,-0.07,-0.20,0.55
2351,-0.54,1.04,11.26,-0.01,0.23,0.52
2356,-0.54,1.04,11.26,0.01,0.34,0.54
2362,0.04,-0.69,12.18,0.01,0.34,0.54
2365,0.04,-0.69,12.18,0.03,0.40,0.64
2370,0.04,-0.69,12.18,0.04,0.39,0.66
2376,-0.11,1.46,9.30,0.04,0.39,0.66
2382,-0.23,2.76,9.00,0.04,0.39,0.66
2385,-0.23,2.76,9.00,-0.03,0.26,0.59
2391,-0.23,2.76,9.00,-0.06,0.19,0.58
2397,-0.50,1.65,9.08,-0.06,0.19,0.58
2401,-0.50,1.65,9.08,-0.09,0.13,0.58
2405,-0.50,1.65,9.08,-0.12,0.14,0.57
2411,-0.50,1.65,9.08,-0.13,0.14,0.54
2417,-0.08,1.15,9.58,-0.13,0.14,0.54
2421,-0.08,1.15,9.58,-0.16,0.07,0.53
2426,-0.08,1.15,9.58,-0.17,0.05,0.53
2432,-0.27,1.80,8.23,-0.17,0.05,0.53
2436,-0.27,1.80,8.23,-0.19,0.08,0.44
2442,-0.27,1.80,8.23,-0.19,0.15,0.38
2445,-3.71,0.69,8.81,-0.19,0.15,0.38
2450,-3.29,0.80,9.46,-0.19,0.15,0.38
2457,-2.26,-0.42,9.69,-0.19,0.15,0.38
2461,-2.26,-0.42,9.69,-0.21,0.10,0.24
2467,1.11,-0.46,10.57,-0.21,0.10,0.24
2471,1.11,-0.46,10.57,-0.25,-0.02,0.25
2476,1.11,-0.46,10.57,-0.26,-0.02,0.22
2482,0.69,0.46,10.46,-0.26,-0.02,0.22
2485,0.69,0.46,10.46,-0.24,0.12,0.11
2490,0.69,0.46,10.46,-0.18,0.25,0.10
2496,0.69,0.46,10.46,-0.14,0.32,0.12
2502,-1.42,-0.34,11.49,-0.14,0.32,0.12
2505,-1.42,-0.34,11.49,-0.12,0.36,0.16
2511,-1.42,-0.34,11.49,-0.14,0.31,0.16
2517,-2.64,2.22,9.00,-0.14,0.31,0.16
2521,-2.64,2.22,9.00,-0.17,0.20,0.06
2527,-2.64,2.22,9.00,-0.18,0.16,0.01
2532,-2.64,2.22,9.00,-0.19,0.12,-0.02
2535,-2.64,2.22,9.00,-0.18,0.09,-0.04
2540,-2.64,2.22,9.00,-0.17,0.07,-0.04
2545,-2.64,2.22,9.00,-0.17,0.04,-0.04
2551,-2.64,2.22,9.00,-0.16,0.02,-0.02
2557,-2.68,0.46,9.30,-0.16,0.02,-0.02
2561,-2.68,0.46,9.30,-0.13,0.04,-0.02
2566,-2.68,0.46,9.30,-0.12,0.06,-0.03
2572,-1.53,0.50,8.70,-0.12,0.06,-0.03
2576,-1.53,0.50,8.70,-0.12,0.08,-0.02
2581,-1.53,0.50,8.70,-0.11,0.08,0.01
2587,0.11,0.80,8.70,-0.11,0.08,0.01
2591,0.11,0.80,8.70,-0.08,0.09,0.08
2596,0.11,0.80,8.70,-0.06,0.09,0.12
2601,0.00,-1.15,9.65,-0.06,0.09,0.12
2607,0.73,-0.50,9.54,-0.06,0.09,0.12
2611,0.73,-0.50,9.54,0.01,0.13,0.18
2616,0.73,-0.50,9.54,0.06,0.15,0.21
2622,-3.10,0.08,6.20,0.06,0.15,0.21
2625,-3.10,0.08,6.20,0.07,0.12,0.18
2631,-3.10,0.08,6.20,0.05,0.02,0.14
2636,3.29,-1.38,10.11,0.05,0.02,0.14
2642,3.41,-1.61,11.64,0.05,0.02,0.14
2646,3.41,-1.61,11.64,-0.07,-0.34,0.20
2651,3.41,-1.61,11.64,-0.07,-0.32,0.22
2657,2.26,1.00,12.14,-0.07,-0.32,0.22
2661,2.26,1.00,12.14,0.00,-0.04,0.20
2665,2.26,1.00,12.14,0.06,0.14,0.16
2671,2.26,1.00,12.14,0.10,0.27,0.15
2677,-1.65,0.00,9.38,0.10,0.27,0.15
2681,-1.65,0.00,9.38,0.13,0.30,0.18
2686,-1.65,0.00,9.38,0.11,0.22,0.18
2692,-0.65,-0.69,8.58,0.11,0.22,0.18
2696,-0.65,-0.69,8.58,0.11,0.04,0.16
2701,-0.65,-0.69,8.58,0.09,-0.01,0.15
2706,0.15,0.77,7.85,0.09,-0.01,0.15
2712,-0.23,0.57,7.59,0.09,-0.01,0.15
2716,-0.23,0.57,7.59,0.05,-0.14,0.15
2721,-0.23,0.57,7.59,0.03,-0.16,0.16
2727,0.57,-0.57,9.20,0.03,-0.16,0.16
2731,0.57,-0.57,9.20,0.08,-0.12,0.24
2736,0.57,-0.57,9.20,0.12,-0.08,0.31
2742,0.42,-0.61,10.15,0.12,-0.08,0.31
2745,0.42,-0.61,10.15,0.17,0.05,0.37
2751,0.42,-0.61,10.15,0.20,0.11,0.38
2756,0.42,-0.61,10.15,0.21,0.14,0.41
2762,-1.04,-1.27,9.34,0.21,0.14,0.41
2766,-1.04,-1.27,9.34,0.20,0.07,0.47
2771,-1.04,-1.27,9.34,0.20,0.00,0.47
2777,0.57,-2.30,10.50,0.20,0.00,0.47
2781,0.57,-2.30,10.50,0.21,-0.07,0.52
2786,0.57,-2.30,10.50,0.22,-0.04,0.56
2791,0.57,-2.30,10.50,0.24,0.00,0.55
2797,-2.76,-1.95,9.39,0.24,0.00,0.55
2801,-2.76,-1.95,9.39,0.28,0.11,0.52
2805,-2.76,-1.95,9.39,0.28,0.10,0.52
2810,-2.76,-1.95,9.39,0.27,0.08,0.54
2816,0.42,-2.11,9.31,0.27,0.08,0.54
2821,0.42,-2.11,9.31,0.27,-0.02,0.58
2826,0.42,-2.11,9.31,0.25,-0.04,0.60
2832,-1.61,-0.80,7.97,0.25,-0.04,0.60
2836,-1.61,-0.80,7.97,0.24,-0.00,0.57
2841,-1.61,-0.80,7.97,0.24,0.01,0.56
2846,-3.22,-0.96,10.07,0.24,0.01,0.56
2850,-3.22,-0.96,10.07,0.22,0.05,0.58
2855,-0.34,-2.45,10.84,0.22,0.05,0.58
2861,-0.34,-2.45,10.84,0.25,-0.08,0.66
2867,-0.38,-0.80,12.07,0.25,-0.08,0.66
2871,-0.38,-0.80,12.07,0.28,-0.06,0.75
2876,-0.38,-0.80,12.07,0.30,-0.01,0.79
2882,0.65,-0.04,10.23,0.30,-0.01,0.79
2886,0.65,-0.04,10.23,0.33,0.09,0.84
2891,0.65,-0.04,10.23,0.35,0.13,0.85
2897,-0.57,-1.07,10.19,0.35,0.13,0.85
2900,-0.57,-1.07,10.19,0.35,0.17,0.90
2905,-0.57,-1.07,10.19,0.34,0.16,0.94
2911,-0.57,-1.07,10.19,0.32,0.13,0.96
2917,-2.18,0.57,9.50,0.32,0.13,0.96
2921,-2.18,0.57,9.50,0.24,0.07,0.89
2926,-2.18,0.57,9.50,0.23,0.01,0.86
2932,-2.18,0.57,9.50,0.19,-0.03,0.86
2936,-2.18,0.57,9.50,0.18,-0.04,0.86
2941,-2.18,0.57,9.50,0.19,-0.05,0.87
2946,0.15,-0.96,10.84,0.19,-0.05,0.87
2952,-0.27,0.92,11.45,0.19,-0.05,0.87
2956,-0.27,0.92,11.45,0.22,0.08,0.94
2961,-0.27,0.92,11.45,0.23,0.16,0.96
2967,-1.49,0.61,9.77,0.23,0.16,0.96
2971,-1.49,0.61,9.77,0.21,0.26,0.93
2976,-1.49,0.61,9.77,0.21,0.26,0.93
2981,-1.61,0.27,9.96,0.21,0.26,0.93
2987,-0.54,-0.23,10.38,0.21,0.26,0.93
2991,-0.54,-0.23,10.38,0.14,0.12,0.97
2996,-0.54,-0.23,10.38,0.11,0.06,0.95
3002,0.11,-0.34,11.19,0.11,0.06,0.95
3005,0.11,-0.34,11.19,0.06,0.04,0.90
3011,0.11,-0.34,11.19,0.05,0.07,0.89
3016,0.11,-0.34,11.19,0.04,0.11,0.89
3022,0.50,0.08,11.22,0.04,0.11,0.89
3026,0.50,0.08,11.22,0.03,0.15,0.86
3031,0.50,0.08,11.22,0.03,0.14,0.85
3037,3.03,-0.61,14.79,0.03,0.14,0.85
3041,3.03,-0.61,14.79,0.05,0.13,0.86
3046,3.03,-0.61,14.79,0.05,0.19,0.88
3052,3.03,-0.61,14.79,0.05,0.26,0.85
3056,3.03,-0.61,14.79,0.01,0.33,0.80
3061,3.03,-0.61,14.79,-0.00,0.40,0.72
3066,3.03,-0.61,14.79,-0.03,0.42,0.70
3070,-0.57,-1.07,10.30,-0.03,0.42,0.70
3075,-0.57,-1.07,10.30,-0.06,0.40,0.70
3080,-0.57,-1.07,10.30,-0.09,0.26,0.71
3087,-0.57,-1.07,10.30,-0.11,0.19,0.67
3091,-1.04,2.11,8.24,-0.11,0.19,0.67
3096,-1.04,2.11,8.24,-0.14,0.15,0.60
3101,-1.04,2.11,8.24,-0.16,0.13,0.59
3107,0.38,1.76,9.23,-0.16,0.13,0.59
3111,0.38,1.76,9.23,-0.19,0.12,0.63
3116,0.38,1.76,9.23,-0.18,0.17,0.63
3121,0.38,1.76,9.23,-0.17,0.21,0.62
3126,0.38,1.76,9.23,-0.17,0.29,0.62
3131,0.38,1.76,9.23,-0.16,0.37,0.63
3136,0.38,1.76,9.23,-0.15,0.45,0.64
3141,-1.42,1.04,10.27,-0.15,0.45,0.64
3146,-1.42,1.04,10.27,-0.15,0.52,0.61
3151,-1.42,1.04,10.27,-0.15,0.50,0.58
3157,-1.42,1.04,10.27,-0.17,0.43,0.56
3161,-1.42,1.04,10.27,-0.16,0.34,0.54
3166,-1.42,1.04,10.27,-0.17,0.25,0.54
3171,-1.42,1.04,10.27,-0.19,0.17,0.54
3177,-3.98,0.69,1.15,-0.19,0.17,0.54
3181,-3.98,0.69,1.15,-0.28,0.09,0.48
3186,-3.98,0.69,1.15,-0.32,0.00,0.45
3192,-3.98,0.69,1.15,-0.34,-0.10,0.46
3196,-3.98,0.69,1.15,-0.31,-0.16,0.53
3201,-3.98,0.69,1.15,-0.23,-0.09,0.60
3205,-3.98,0.69,1.15,-0.20,0.09,0.64
3211,0.04,3.71,10.34,-0.20,0.09,0.64
3216,0.04,3.71,10.34,-0.20,0.55,0.57
3221,0.04,3.71,10.34,-0.17,0.71,0.52
3227,0.04,3.71,10.34,-0.17,0.76,0.50
3231,0.04,3.71,10.34,-0.15,0.69,0.53
3236,0.04,3.71,10.34,-0.19,0.54,0.58
3241,0.04,3.71,10.34,-0.21,0.38,0.62
3246,0.04,3.71,10.34,-0.28,0.20,0.63
3251,0.04,3.71,10.34,-0.32,0.08,0.57
3256,0.04,3.71,10.34,-0.33,0.02,0.50
3261,2.87,1.53,11.22,-0.33,0.02,0.50
3266,2.87,1.53,11.22,-0.28,0.04,0.52
3271,2.87,1.53,11.22,-0.32,0.09,0.57
3277,2.87,1.53,11.22,-0.36,0.16,0.57
3281,2.87,1.53,11.22,-0.31,0.25,0.53
3286,2.87,1.53,11.22,-0.27,0.33,0.46
3291,2.87,1.53,11.22,-0.31,0.36,0.39
3297,-5.02,1.04,10.03,-0.31,0.36,0.39
3301,-5.02,1.04,10.03,-0.33,0.33,0.39
3306,-5.02,1.04,10.03,-0.34,0.27,0.37
3312,-5.02,1.04,10.03,-0.35,0.21,0.32
3316,-5.02,1.04,10.03,-0.34,0.18,0.26
3321,-5.02,1.04,10.03,-0.34,0.16,0.22
3326,-5.02,1.04,10.03,-0.37,0.12,0.23
3332,-5.02,1.04,10.03,-0.41,0.03,0.25
3336,-5.02,1.04,10.03,-0.38,-0.01,0.29
3341,-5.02,1.04,10.03,-0.31,0.06,0.34
3346,-5.02,1.04,10.03,-0.20,0.23,0.40
3351,-5.02,1.04,10.03,-0.10,0.52,0.47
3356,-5.02,1.04,10.03,-0.06,0.82,0.50
3361,-5.02,1.04,10.03,-0.06,1.10,0.44
3366,-12.64,3.48,-4.02,-0.06,1.10,0.44
3370,-12.64,3.48,-4.02,-0.17,1.24,0.17
3375,-8.04,1.27,-5.90,-0.17,1.24,0.17
3381,-8.04,1.27,-5.90,-0.23,1.04,0.08
3386,-5.36,0.77,1.07,-0.23,1.04,0.08
3391,-5.36,0.77,1.07,-0.42,-0.03,0.13
3396,-5.36,0.77,1.07,-0.50,-0.21,0.12
3401,-9.54,2.53,15.10,-0.50,-0.21,0.12
3406,-9.54,2.53,15.10,-0.58,-0.32,-0.09
3411,-9.54,2.53,15.10,-0.54,-0.37,-0.12
3416,-9.54,2.53,15.10,-0.52,-0.46,-0.03
3421,-9.54,2.53,15.10,-0.44,-0.51,0.14
3426,-9.54,2.53,15.10,-0.44,-0.55,0.33
3431,-9.54,2.53,15.10,-0.30,-0.45,0.47
3436,-0.84,0.61,7.43,-0.30,-0.45,0.47
3441,-0.84,0.61,7.43,-0.07,0.15,0.61
3446,-0.84,0.61,7.43,-0.08,0.51,0.54
3451,-0.84,0.61,7.43,-0.10,0.75,0.41
3456,-0.84,0.61,7.43,-0.16,0.83,0.33
3461,-0.84,0.61,7.43,-0.18,0.75,0.33
3465,-0.84,0.61,7.43,-0.14,0.67,0.34
3471,1.11,-2.61,7.05,-0.14,0.67,0.34
3476,1.11,-2.61,7.05,-0.21,0.51,0.24
3481,1.11,-2.61,7.05,-0.27,0.37,0.16
3486,1.11,-2.61,7.05,-0.34,0.25,0.05
3491,1.11,-2.61,7.05,-0.41,0.12,-0.04
3496,1.11,-2.61,7.05,-0.43,0.05,-0.06
3501,1.11,-2.61,7.05,-0.43,0.02,-0.04
3506,1.11,-2.61,7.05,-0.38,-0.02,-0.00
3511,1.11,-2.61,7.05,-0.32,-0.08,0.07
3516,1.11,-2.61,7.05,-0.30,-0.16,0.13
3522,-3.48,1.04,13.98,-0.30,-0.16,0.13
3526,-3.48,1.04,13.98,-0.26,-0.05,0.13
3531,-3.48,1.04,13.98,-0.29,0.06,0.08
3536,-3.48,1.04,13.98,-0.29,0.08,0.05
3541,-3.48,1.04,13.98,-0.35,-0.00,0.07
3546,-3.48,1.04,13.98,-0.37,-0.15,0.10
3551,-3.48,1.04,13.98,-0.41,-0.31,0.09
3557,10.49,-1.30,9.27,-0.41,-0.31,0.09
3561,10.49,-1.30,9.27,-0.41,-0.42,0.11
3566,10.49,-1.30,9.27,-0.38,-0.33,0.15
3571,10.49,-1.30,9.27,-0.33,-0.14,0.18
3576,10.49,-1.30,9.27,-0.33,0.07,0.21
3581,10.49,-1.30,9.27,-0.37,0.29,0.21
3586,10.49,-1.30,9.27,-0.41,0.47,0.17
3592,-4.67,2.03,8.96,-0.41,0.47,0.17
3596,-4.67,2.03,8.96,-0.38,0.62,0.05
3601,-4.67,2.03,8.96,-0.38,0.58,0.02
3607,-4.67,2.03,8.96,-0.35,0.44,0.02
3611,-4.67,2.03,8.96,-0.34,0.28,0.02
3616,-4.67,2.03,8.96,-0.38,0.09,0.03
3621,-4.67,2.03,8.96,-0.44,-0.10,-0.00
3627,-2.41,1.99,8.54,-0.44,-0.10,-0.00
3631,-2.41,1.99,8.54,-0.49,-0.27,-0.11
3636,-2.41,1.99,8.54,-0.48,-0.27,-0.15
3641,-2.41,1.99,8.54,-0.44,-0.21,-0.13
3646,-2.41,1.99,8.54,-0.42,-0.18,-0.03
3651,-2.41,1.99,8.54,-0.39,-0.16,0.04
3655,-2.41,1.99,8.54,-0.36,-0.14,0.04
3661,2.99,-0.92,8.36,-0.36,-0.14,0.04
3666,2.99,-0.92,8.36,-0.28,-0.07,0.01
3671,2.99,-0.92,8.36,-0.26,0.06,0.00
3676,2.99,-0.92,8.36,-0.22,0.21,0.03
3681,2.99,-0.92,8.36,-0.22,0.29,0.07
3686,2.99,-0.92,8.36,-0.24,0.29,0.07
3690,2.99,-0.92,8.36,-0.26,0.28,0.01
3697,-1.34,0.00,10.35,-0.26,0.28,0.01
3701,-1.34,0.00,10.35,-0.27,0.27,-0.08
3706,-1.34,0.00,10.35,-0.26,0.26,-0.08
3712,-1.34,0.00,10.35,-0.26,0.24,-0.06
3716,-1.34,0.00,10.35,-0.29,0.14,-0.04
3721,-1.34,0.00,10.35,-0.30,0.03,-0.04
3725,-1.34,0.00,10.35,-0.29,-0.04,-0.03
3732,-1.53,2.57,7.28,-0.29,-0.04,-0.03
3736,-1.53,2.57,7.28,-0.31,-0.04,-0.00
3741,-1.53,2.57,7.28,-0.31,-0.02,0.02
3746,-1.53,2.57,7.28,-0.34,-0.05,0.02
3751,-1.53,2.57,7.28,-0.37,-0.14,-0.00
3756,-1.53,2.57,7.28,-0.41,-0.23,-0.02
3761,-1.53,2.57,7.28,-0.39,-0.26,-0.03
3766,-1.53,2.57,7.28,-0.38,-0.21,-0.04
3771,-1.53,2.57,7.28,-0.35,-0.08,-0.02
3776,-1.53,2.57,7.28,-0.31,0.14,-0.00
3781,-4.71,1.65,7.97,-0.31,0.14,-0.00
3786,-4.71,1.65,7.97,-0.27,0.53,-0.07
3791,-4.71,1.65,7.97,-0.27,0.58,-0.12
3795,-4.71,1.65,7.97,-0.28,0.52,-0.18
3801,-2.84,0.80,4.63,-0.28,0.52,-0.18
3806,-2.84,0.80,4.63,-0.38,0.18,-0.29
3810,-2.84,0.80,4.63,-0.39,-0.04,-0.31
3816,1.27,0.27,10.31,-0.39,-0.04,-0.31
3821,1.27,0.27,10.31,-0.46,-0.27,-0.35
3826,1.27,0.27,10.31,-0.46,-0.23,-0.39
3830,1.27,0.27,10.31,-0.41,-0.12,-0.41
3836,-0.84,-0.46,9.77,-0.41,-0.12,-0.41
3841,-0.84,-0.46,9.77,-0.32,0.11,-0.39
3846,-0.84,-0.46,9.77,-0.29,0.18,-0.39
3851,-0.77,1.27,8.89,-0.29,0.18,-0.39
3856,-0.77,1.27,8.89,-0.29,0.18,-0.39
3861,-0.77,1.27,8.89,-0.30,0.13,-0.40
3865,-0.77,1.27,8.89,-0.31,0.12,-0.43
3870,-0.96,1.30,8.27,-0.31,0.12,-0.43
3875,-0.96,1.30,8.27,-0.29,0.13,-0.44
3881,-0.96,1.30,8.27,-0.27,0.11,-0.33
3886,0.08,1.27,7.85,-0.27,0.11,-0.33
3891,0.08,1.27,7.85,-0.26,-0.01,-0.26
3896,0.08,1.27,7.85,-0.26,-0.07,-0.25
3901,0.08,1.27,7.85,-0.24,-0.11,-0.22
3906,1.57,0.42,11.72,-0.24,-0.11,-0.22
3911,1.57,0.42,11.72,-0.19,-0.06,-0.09
3915,1.57,0.42,11.72,-0.19,-0.01,-0.04
3921,0.42,0.88,11.68,-0.19,-0.01,-0.04
3926,0.42,0.88,11.68,-0.18,0.10,-0.01
3931,0.42,0.88,11.68,-0.18,0.13,-0.03
3936,0.42,0.88,11.68,-0.17,0.13,0.00
3941,0.42,0.88,11.68,-0.16,0.09,0.04
3946,0.42,0.88,11.68,-0.14,0.02,0.09
3950,0.42,0.88,11.68,-0.13,-0.00,0.13
3956,-0.61,-1.76,10.30,-0.13,-0.00,0.13
3961,-0.61,-1.76,10.30,-0.09,0.13,0.15
3965,-0.61,-1.76,10.30,-0.08,0.23,0.14
3971,-0.61,-1.76,10.30,-0.05,0.23,0.13
3976,-0.61,-1.76,10.30,-0.03,0.17,0.15
3981,-0.61,-1.76,10.30,-0.03,0.01,0.18
3985,-0.61,-1.76,10.30,-0.03,-0.17,0.22
3991,4.64,-2.53,8.54,-0.03,-0.17,0.22
3996,4.64,-2.53,8.54,-0.06,-0.32,0.32
4001,4.64,-2.53,8.54,-0.04,-0.26,0.34
4006,4.64,-2.53,8.54,-0.01,-0.11,0.35
4011,4.64,-2.53,8.54,0.02,0.06,0.35
4016,4.64,-2.53,8.54,0.04,0.19,0.35
4020,4.64,-2.53,8.54,0.06,0.25,0.34
4026,-0.92,-3.29,11.42,0.06,0.25,0.34
4031,-0.92,-3.29,11.42,0.07,0.17,0.36
4035,-0.92,-3.29,11.42,0.05,0.08,0.37
4041,1.07,-0.42,10.80,0.05,0.08,0.37
4046,1.07,-0.42,10.80,0.02,-0.01,0.36
4051,1.07,-0.42,10.80,0.00,0.00,0.35
4056,1.07,-0.42,10.80,-0.00,0.03,0.37
4061,-2.57,-0.34,8.54,-0.00,0.03,0.37
4066,-2.57,-0.34,8.54,0.00,0.13,0.34
4070,-2.57,-0.34,8.54,0.02,0.16,0.35
4076,-1.65,0.73,9.54,0.02,0.16,0.35
4081,-1.65,0.73,9.54,-0.03,0.09,0.35
4086,-1.65,0.73,9.54,-0.07,0.04,0.33
4091,-1.65,0.73,9.54,-0.12,-0.01,0.28
4096,-1.42,-0.19,10.23,-0.12,-0.01,0.28
4101,-1.42,-0.19,10.23,-0.15,0.04,0.17
4105,-1.42,-0.19,10.23,-0.14,0.09,0.16
4111,-3.64,-1.11,10.15,-0.14,0.09,0.16
4116,-3.64,-1.11,10.15,-0.10,0.10,0.15
4121,-3.64,-1.11,10.15,-0.12,0.05,0.13
4126,-3.64,-1.11,10.15,-0.13,0.01,0.09
4131,-0.80,-0.50,8.70,-0.13,0.01,0.09
4136,-0.80,-0.50,8.70,-0.17,-0.12,0.02
4140,-0.80,-0.50,8.70,-0.18,-0.15,0.00
4146,-0.23,-0.57,10.53,-0.18,-0.15,0.00
4151,-0.23,-0.57,10.53,-0.18,-0.06,-0.04
4155,-0.23,-0.57,10.53,-0.16,0.05,-0.04
4161,-0.23,-0.57,10.53,-0.14,0.12,-0.06
4166,-0.23,-0.57,10.53,-0.14,0.12,-0.07
4171,-0.23,-0.57,10.53,-0.15,0.10,-0.08
4175,-0.23,-0.57,10.53,-0.15,0.07,-0.08
4181,-1.91,0.50,9.04,-0.15,0.07,-0.08
4186,-1.91,0.50,9.04,-0.13,0.08,-0.09
4190,-1.91,0.50,9.04,-0.13,0.10,-0.10
4196,-1.91,0.50,9.04,-0.13,0.11,-0.11
4201,-1.91,0.50,9.04,-0.13,0.09,-0.11
4206,-1.91,0.50,9.04,-0.15,0.01,-0.12
4210,-1.91,0.50,9.04,-0.15,-0.12,-0.12
4216,1.38,-0.69,12.18,-0.15,-0.12,-0.12
4221,1.38,-0.69,12.18,-0.16,-0.25,-0.07
4225,1.38,-0.69,12.18,-0.14,-0.20,-0.05
4231,1.38,-0.69,12.18,-0.11,-0.08,-0.04
4236,1.38,-0.69,12.18,-0.06,0.08,-0.03
4241,1.38,-0.69,12.18,-0.04,0.22,-0.00
4245,1.38,-0.69,12.18,-0.00,0.30,0.05
4251,-2.53,-1.57,7.62,-0.00,0.30,0.05
4256,-2.53,-1.57,7.62,-0.00,0.17,0.13
4260,-2.53,-1.57,7.62,-0.00,-0.00,0.14
4266,0.96,-1.23,8.89,-0.00,-0.00,0.14
4271,0.96,-1.23,8.89,-0.02,-0.27,0.16
4276,0.96,-1.23,8.89,-0.04,-0.29,0.19
4281,0.96,-1.23,8.89,-0.04,-0.26,0.22
4286,0.57,-1.99,11.41,-0.04,-0.26,0.22
4291,0.57,-1.99,11.41,-0.01,-0.09,0.20
4295,0.57,-1.99,11.41,0.01,0.00,0.18
4301,-0.84,-1.68,8.39,0.01,0.00,0.18
4306,-0.84,-1.68,8.39,0.03,0.06,0.15
4310,-0.84,-1.68,8.39,0.01,0.03,0.17
4316,-0.84,-1.68,8.39,-0.00,-0.01,0.16
4321,0.84,-1.38,9.80,-0.00,-0.01,0.16
4326,0.84,-1.38,9.80,-0.05,-0.07,0.08
4330,0.84,-1.38,9.80,-0.06,-0.08,0.05
4336,0.38,-1.27,10.84,-0.06,-0.08,0.05
4340,0.38,-1.27,10.84,-0.05,-0.02,0.03
4345,0.38,-1.27,10.84,-0.04,0.04,0.04
4351,0.38,-1.27,10.84,-0.04,0.05,0.04
4356,0.08,0.69,10.42,-0.04,0.05,0.04
4361,0.08,0.69,10.42,-0.02,0.09,0.03
4365,0.08,0.69,10.42,-0.03,0.09,0.02
4371,-1.15,1.46,7.59,-0.03,0.09,0.02
4376,-1.15,1.46,7.59,-0.05,0.09,-0.01
4380,-1.15,1.46,7.59,-0.07,0.08,-0.01
4386,-1.15,1.46,7.59,-0.08,0.06,-0.01
4391,-1.00,1.65,9.38,-0.08,0.06,-0.01
4396,-1.00,1.65,9.38,-0.11,0.00,-0.02
4400,-1.00,1.65,9.38,-0.13,-0.03,-0.05
4406,-0.23,1.15,7.93,-0.13,-0.03,-0.05
4411,-0.23,1.15,7.93,-0.15,-0.03,-0.08
4415,-0.23,1.15,7.93,-0.17,-0.04,-0.07
4421,-0.23,1.15,7.93,-0.18,-0.06,-0.08
4426,-0.23,1.15,7.93,-0.19,-0.07,-0.11
4431,-0.23,1.15,7.93,-0.17,-0.05,-0.13
4436,-0.23,1.15,7.93,-0.16,0.00,-0.14
4441,0.54,0.80,10.27,-0.16,0.00,-0.14
4446,0.54,0.80,10.27,-0.15,0.09,-0.15
4450,0.54,0.80,10.27,-0.13,0.10,-0.15
4456,1.27,-0.04,7.97,-0.13,0.10,-0.15
4460,1.27,-0.04,7.97,-0.14,0.06,-0.17
4466,1.27,-0.04,7.97,-0.14,0.04,-0.18
4471,1.27,-0.04,7.97,-0.14,0.06,-0.20
4476,-1.68,0.46,10.04,-0.14,0.06,-0.20
4481,-1.68,0.46,10.04,-0.15,0.12,-0.21
4485,-1.68,0.46,10.04,-0.15,0.10,-0.24
4491,-1.68,0.46,10.04,-0.15,0.09,-0.25
4496,-1.68,0.46,10.04,-0.15,0.05,-0.25
4501,-1.68,0.46,10.04,-0.14,-0.01,-0.21
4506,-1.68,0.46,10.04,-0.16,-0.08,-0.18
4511,1.27,0.80,7.82,-0.16,-0.08,-0.18
4516,1.27,0.80,7.82,-0.14,-0.07,-0.18
4520,1.27,0.80,7.82,-0.12,-0.01,-0.16
4526,-1.46,0.69,9.69,-0.12,-0.01,-0.16
4531,-1.46,0.69,9.69,-0.11,0.12,-0.11
4536,-1.46,0.69,9.69,-0.10,0.16,-0.11
4541,-1.46,0.69,9.69,-0.10,0.13,-0.11
4546,-0.69,0.27,11.30,-0.10,0.13,-0.11
4551,-0.69,0.27,11.30,-0.09,0.08,-0.08
4555,-0.69,0.27,11.30,-0.08,0.06,-0.05
4561,2.03,-0.23,9.12,-0.08,0.06,-0.05
4566,2.03,-0.23,9.12,-0.10,-0.03,0.00
4571,2.03,-0.23,9.12,-0.09,-0.00,-0.01
4576,2.03,-0.23,9.12,-0.09,0.04,-0.03
4581,-2.41,0.50,8.04,-0.09,0.04,-0.03
4586,-2.41,0.50,8.04,-0.10,0.07,-0.06
4591,-2.41,0.50,8.04,-0.11,0.09,-0.06
4596,-1.27,0.30,8.66,-0.11,0.09,-0.06
4601,-1.27,0.30,8.66,-0.16,-0.02,-0.10
4605,-1.27,0.30,8.66,-0.17,-0.09,-0.13
4611,-1.27,0.30,8.66,-0.18,-0.13,-0.15
4616,1.34,-0.96,11.41,-0.18,-0.13,-0.15
4621,1.34,-0.96,11.41,-0.16,-0.12,-0.15
4626,1.34,-0.96,11.41,-0.15,-0.02,-0.16
4631,1.34,-0.96,11.41,-0.13,0.10,-0.20
4636,1.34,-0.96,11.41,-0.13,0.17,-0.25
4640,1.34,-0.96,11.41,-0.13,0.21,-0.28
4646,-0.38,0.42,9.58,-0.13,0.21,-0.28
4651,0.04,1.34,9.00,-0.13,0.21,-0.28
4656,0.04,1.34,9.00,-0.23,0.02,-0.33
4661,0.04,1.34,9.00,-0.20,-0.04,-0.37
4666,0.04,1.34,9.00,-0.20,-0.05,-0.36
4671,0.04,1.34,9.00,-0.18,-0.04,-0.32
4675,0.04,1.34,9.00,-0.18,-0.04,-0.29
4681,-1.15,1.53,9.54,-0.18,-0.04,-0.29
4686,-1.15,1.53,9.54,-0.19,-0.02,-0.30
4690,-1.15,1.53,9.54,-0.18,0.00,-0.32
4696,-1.15,1.53,9.54,-0.17,0.00,-0.32
4701,0.50,0.61,10.07,-0.17,0.00,-0.32
4706,0.50,0.61,10.07,-0.13,-0.03,-0.23
4710,0.50,0.61,10.07,-0.12,-0.04,-0.18
4716,0.57,0.38,9.50,-0.12,-0.04,-0.18
4720,0.57,0.38,9.50,-0.12,-0.06,-0.19
4726,0.57,0.38,9.50,-0.13,-0.06,-0.20
4731,0.57,0.38,9.50,-0.13,-0.04,-0.20
4736,0.57,0.38,9.50,-0.13,-0.01,-0.19
4741,0.57,0.38,9.50,-0.10,0.02,-0.17
4746,0.57,0.38,9.50,-0.09,0.04,-0.16
4751,0.57,0.38,9.50,-0.07,0.04,-0.14
4756,0.57,0.38,9.50,-0.08,0.04,-0.12
4761,0.57,0.38,9.50,-0.07,0.03,-0.12
4766,0.57,0.38,9.50,-0.06,0.01,-0.13
4771,0.38,-1.46,8.70,-0.06,0.01,-0.13
4776,0.38,-1.46,8.70,-0.04,-0.03,-0.09
4780,0.38,-1.46,8.70,-0.04,-0.02,-0.08
4786,0.19,-1.53,10.39,-0.04,-0.02,-0.08
4791,0.19,-1.53,10.39,-0.02,0.03,-0.08
4795,0.19,-1.53,10.39,-0.02,0.05,-0.08
4801,0.19,-1.53,10.39,-0.00,0.03,-0.07
4806,0.19,-1.53,10.39,0.01,0.01,-0.06
4811,0.19,-1.53,10.39,0.01,-0.01,-0.05
4816,0.19,-1.53,10.39,0.01,-0.04,-0.05
4821,2.14,-3.37,11.07,0.01,-0.04,-0.05
4826,2.14,-3.37,11.07,0.03,-0.08,-0.03
4830,2.14,-3.37,11.07,0.06,-0.06,-0.01
4836,2.14,-3.37,11.07,0.08,-0.01,0.00
4840,2.14,-3.37,11.07,0.09,0.02,0.04
4846,2.14,-3.37,11.07,0.11,0.04,0.06
4851,2.14,-3.37,11.07,0.13,0.05,0.06
4856,-0.27,-2.14,8.58,0.13,0.05,0.06
4861,-0.27,-2.14,8.58,0.15,0.04,0.08
4865,-0.27,-2.14,8.58,0.15,0.01,0.12
4871,-0.27,-2.14,8.58,0.15,-0.03,0.14
4876,-0.27,-2.14,8.58,0.15,-0.06,0.14
4881,-0.27,-2.14,8.58,0.13,-0.05,0.14
4885,-0.27,-2.14,8.58,0.12,-0.01,0.14
4891,-0.27,-2.14,8.58,0.12,0.04,0.14
4896,-0.27,-2.14,8.58,0.12,0.05,0.15
4900,-0.27,-2.14,8.58,0.09,0.02,0.16
4906,-0.88,-0.30,8.54,0.09,0.02,0.16
4911,-1.00,-0.11,8.50,0.09,0.02,0.16
4915,-1.00,-0.11,8.50,0.08,-0.01,0.18
4921,-1.00,-0.11,8.50,0.08,0.02,0.18
4826,2.14,-3.37,11.07,0.03,-0.08,-0.03
4830,2.14,-3.37,11.07,0.06,-0.06,-0.01
4836,2.14,-3.37,11.07,0.08,-0.01,0.00
4840,2.14,-3.37,11.07,0.09,0.02,0.04
4846,2.14,-3.37,11.07,0.11,0.04,0.06
4851,2.14,-3.37,11.07,0.13,0.05,0.06
4856,-0.27,-2.14,8.58,0.13,0.05,0.06
4861,-0.27,-2.14,8.58,0.15,0.04,0.08
4865,-0.27,-2.14,8.58,0.15,0.01,0.12
4871,-0.27,-2.14,8.58,0.15,-0.03,0.14
4876,-0.27,-2.14,8.58,0.15,-0.06,0.14
4881,-0.27,-2.14,8.58,0.13,-0.05,0.14
4885,-0.27,-2.14,8.58,0.12,-0.01,0.14
4891,-0.27,-2.14,8.58,0.12,0.04,0.14
4896,-0.27,-2.14,8.58,0.12,0.05,0.15
4900,-0.27,-2.14,8.58,0.09,0.02,0.16
