timestamp,accX,accY,accZ,gyroX,gyroY,gyroZ
Straight
7,-2.49,0.57,7.97,0.19,-0.01,0.08
19,-2.45,-0.27,7.81,0.19,-0.01,0.08
20,-2.45,-0.27,7.81,-0.19,0.05,-0.07
22,-2.45,-0.27,7.81,-0.16,-0.06,-0.08
26,-2.45,-0.27,7.81,-0.16,-0.04,-0.10
31,-1.57,-1.04,9.92,-0.16,-0.04,-0.10
37,-0.42,-0.77,10.77,-0.16,-0.04,-0.10
41,-0.42,-0.77,10.77,-0.15,0.02,-0.13
46,-0.42,-0.77,10.77,-0.15,0.07,-0.15
52,-2.26,-1.07,9.20,-0.15,0.07,-0.15
56,-2.26,-1.07,9.20,-0.15,0.09,-0.11
61,-2.26,-1.07,9.20,-0.11,0.06,-0.07
66,-2.26,-1.07,9.20,-0.12,0.03,-0.07
72,-0.65,-1.11,9.73,-0.12,0.03,-0.07
76,-0.65,-1.11,9.73,-0.11,-0.04,-0.09
81,-0.65,-1.11,9.73,-0.09,-0.05,-0.08
87,0.77,-0.80,10.15,-0.09,-0.05,-0.08
91,0.77,-0.80,10.15,-0.10,-0.03,-0.07
96,0.77,-0.80,10.15,-0.09,0.03,-0.11
101,0.77,-0.80,10.15,-0.10,0.09,-0.13
107,-2.49,0.00,8.39,-0.10,0.09,-0.13
111,-2.49,0.00,8.39,-0.10,0.11,-0.08
116,-2.49,0.00,8.39,-0.11,0.07,-0.07
122,0.84,0.00,9.50,-0.11,0.07,-0.07
126,0.84,0.00,9.50,-0.12,-0.08,-0.11
131,0.84,0.00,9.50,-0.13,-0.11,-0.15
136,0.84,0.00,9.50,-0.10,-0.09,-0.17
142,0.61,-1.23,10.95,-0.10,-0.09,-0.17
146,0.61,-1.23,10.95,-0.05,-0.02,-0.09
151,0.61,-1.23,10.95,-0.05,0.03,-0.10
157,-0.15,-0.11,8.66,-0.05,0.03,-0.10
161,-0.15,-0.11,8.66,-0.07,0.05,-0.19
166,-0.15,-0.11,8.66,-0.07,0.04,-0.20
172,-0.15,-0.11,8.66,-0.09,0.01,-0.21
176,-0.15,-0.11,8.66,-0.12,-0.03,-0.22
181,-0.15,-0.11,8.66,-0.12,-0.04,-0.25
186,-0.15,-0.11,8.66,-0.11,-0.05,-0.28
191,0.80,-1.07,10.84,-0.11,-0.05,-0.28
196,0.80,-1.07,10.84,-0.06,-0.05,-0.24
201,0.80,-1.07,10.84,-0.05,-0.05,-0.24
207,0.80,-1.07,10.84,-0.04,-0.04,-0.28
211,0.80,-1.07,10.84,-0.04,-0.03,-0.34
216,0.80,-1.07,10.84,-0.04,0.01,-0.37
221,0.80,-1.07,10.84,-0.02,0.07,-0.39
227,-0.77,-0.15,8.84,-0.02,0.07,-0.39
231,-0.77,-0.15,8.84,-0.06,0.12,-0.39
236,-0.77,-0.15,8.84,-0.08,0.13,-0.38
242,-0.77,-0.15,8.84,-0.10,0.09,-0.40
246,-0.77,-0.15,8.84,-0.14,0.04,-0.45
251,-0.77,-0.15,8.84,-0.15,0.01,-0.49
256,-0.77,-0.15,8.84,-0.17,-0.00,-0.52
262,-1.19,0.19,9.88,-0.17,-0.00,-0.52
266,-1.19,0.19,9.88,-0.12,0.04,-0.46
271,-1.19,0.19,9.88,-0.10,0.06,-0.41
277,-1.19,0.19,9.88,-0.07,0.04,-0.36
281,-1.19,0.19,9.88,-0.05,0.01,-0.32
286,-1.19,0.19,9.88,-0.05,-0.02,-0.29
291,-1.19,0.19,9.88,-0.07,-0.05,-0.28
297,0.19,0.69,8.70,-0.07,-0.05,-0.28
301,0.19,0.69,8.70,-0.06,-0.08,-0.28
306,0.19,0.69,8.70,-0.05,-0.05,-0.29
312,0.19,0.69,8.70,-0.04,-0.01,-0.27
316,0.19,0.69,8.70,-0.02,0.04,-0.20
321,0.19,0.69,8.70,-0.01,0.09,-0.19
326,0.19,0.69,8.70,-0.08,0.09,-0.23
332,-6.93,-0.46,9.04,-0.08,0.09,-0.23
336,-6.93,-0.46,9.04,-0.18,0.08,-0.48
341,-6.93,-0.46,9.04,-0.04,0.03,-0.50
346,-6.93,-0.46,9.04,0.05,-0.00,-0.40
351,-0.27,-2.53,10.46,0.05,-0.00,-0.40
357,-0.27,-2.53,10.46,0.01,0.03,-0.29
362,-0.27,-2.53,10.46,0.00,0.05,-0.39
367,-0.27,-2.53,10.46,-0.01,0.11,-0.54
371,-0.27,-2.53,10.46,0.00,0.14,-0.54
376,-0.27,-2.53,10.46,0.03,0.17,-0.38
382,-3.29,-0.77,9.30,0.03,0.17,-0.38
386,-3.29,-0.77,9.30,0.05,0.19,-0.21
391,-3.29,-0.77,9.30,0.03,0.16,-0.27
397,-3.29,-0.77,9.30,0.05,0.12,-0.30
401,-3.29,-0.77,9.30,0.06,0.09,-0.23
406,-3.29,-0.77,9.30,0.04,-0.00,-0.10
411,-3.29,-0.77,9.30,0.01,-0.11,-0.07
417,0.11,0.15,9.39,0.01,-0.11,-0.07
421,0.11,0.15,9.39,0.01,-0.21,-0.18
426,0.11,0.15,9.39,0.05,-0.19,-0.14
432,0.11,0.15,9.39,0.11,-0.10,-0.01
436,0.11,0.15,9.39,0.10,-0.00,0.10
441,0.11,0.15,9.39,0.07,0.08,0.11
446,0.11,0.15,9.39,0.06,0.13,0.05
452,-4.14,-1.46,6.55,0.06,0.13,0.05
456,-4.14,-1.46,6.55,0.05,0.12,0.06
461,-4.14,-1.46,6.55,0.08,0.03,0.18
466,-4.14,-1.46,6.55,0.11,-0.08,0.25
471,-4.14,-1.46,6.55,0.14,-0.17,0.26
476,-4.14,-1.46,6.55,0.17,-0.20,0.26
481,-4.14,-1.46,6.55,0.20,-0.16,0.26
487,-2.95,-0.77,10.61,0.20,-0.16,0.26
491,-2.95,-0.77,10.61,0.19,0.06,0.27
496,-2.95,-0.77,10.61,0.18,0.14,0.25
501,-2.95,-0.77,10.61,0.14,0.14,0.21
506,-2.95,-0.77,10.61,0.10,0.09,0.19
511,-2.95,-0.77,10.61,0.07,0.03,0.16
516,-2.95,-0.77,10.61,0.04,-0.04,0.12
522,-0.30,1.53,9.30,0.04,-0.04,0.12
526,-0.30,1.53,9.30,-0.02,-0.12,0.03
531,-0.30,1.53,9.30,-0.04,-0.09,-0.06
537,-0.30,1.53,9.30,-0.06,-0.05,-0.12
541,-0.30,1.53,9.30,-0.04,-0.03,-0.15
546,-0.30,1.53,9.30,-0.05,-0.02,-0.18
551,-0.30,1.53,9.30,-0.04,-0.01,-0.24
557,-0.61,1.49,9.65,-0.04,-0.01,-0.24
561,-0.61,1.49,9.65,-0.06,0.02,-0.33
566,-0.61,1.49,9.65,-0.08,0.03,-0.36
571,-0.61,1.49,9.65,-0.09,0.02,-0.40
576,-0.61,1.49,9.65,-0.13,0.02,-0.48
581,-0.61,1.49,9.65,-0.14,0.02,-0.52
586,-0.61,1.49,9.65,-0.14,0.04,-0.52
592,-0.88,1.00,8.50,-0.14,0.04,-0.52
596,-0.88,1.00,8.50,-0.13,0.04,-0.49
601,-0.88,1.00,8.50,-0.12,0.04,-0.44
606,-0.88,1.00,8.50,-0.11,0.03,-0.39
611,-0.88,1.00,8.50,-0.10,0.00,-0.36
616,-0.88,1.00,8.50,-0.09,-0.04,-0.34
622,-0.88,1.00,8.50,-0.07,-0.06,-0.31
626,-0.88,1.00,8.50,-0.07,-0.06,-0.26
631,-0.88,1.00,8.50,-0.03,-0.04,-0.21
636,-0.88,1.00,8.50,0.00,0.00,-0.14
642,-0.88,1.00,8.50,0.00,0.04,-0.11
646,-0.88,1.00,8.50,0.01,0.06,-0.10
651,-0.88,1.00,8.50,0.02,0.06,-0.09
656,-0.88,1.00,8.50,0.01,0.07,-0.08
662,-0.84,0.27,9.04,0.01,0.07,-0.08
667,-0.84,0.27,9.04,-0.00,0.09,-0.03
671,-0.84,0.27,9.04,0.01,0.09,-0.03
676,-1.95,-1.27,9.39,0.01,0.09,-0.03
681,-1.95,-1.27,9.39,0.01,0.01,-0.01
686,-1.95,-1.27,9.39,0.03,-0.06,0.01
692,-1.95,-1.27,9.39,0.03,-0.09,0.03
696,-1.95,-1.27,9.39,0.05,-0.07,0.05
701,-1.95,-1.27,9.39,0.06,-0.04,0.07
706,-1.95,-1.27,9.39,0.09,-0.02,0.09
712,-0.38,-2.80,8.31,0.09,-0.02,0.09
716,-0.38,-2.80,8.31,0.12,0.08,0.08
721,-0.38,-2.80,8.31,0.12,0.17,0.12
726,-0.38,-2.80,8.31,0.13,0.18,0.14
731,-0.38,-2.80,8.31,0.11,0.14,0.15
736,-0.38,-2.80,8.31,0.09,0.06,0.13
741,-0.38,-2.80,8.31,0.07,-0.04,0.11
747,1.95,-1.49,9.80,0.07,-0.04,0.11
751,1.95,-1.49,9.80,0.07,-0.17,0.18
756,1.95,-1.49,9.80,0.10,-0.12,0.21
761,1.95,-1.49,9.80,0.13,-0.04,0.24
766,1.95,-1.49,9.80,0.14,0.04,0.27
771,1.95,-1.49,9.80,0.13,0.13,0.29
776,1.95,-1.49,9.80,0.12,0.18,0.28
782,-1.76,-0.15,8.31,0.12,0.18,0.28
786,-1.76,-0.15,8.31,0.11,0.10,0.34
791,-1.76,-0.15,8.31,0.10,0.06,0.31
796,-1.76,-0.15,8.31,0.08,-0.01,0.29
802,-3.26,-0.27,10.11,0.08,-0.01,0.29
806,-3.26,-0.27,10.11,0.06,-0.04,0.29
811,-3.26,-0.27,10.11,0.05,-0.06,0.28
817,-2.68,-1.34,11.34,0.05,-0.06,0.28
821,-2.68,-1.34,11.34,0.04,-0.04,0.16
826,-2.68,-1.34,11.34,0.03,-0.04,0.10
832,-2.68,-1.34,11.34,0.02,-0.00,0.05
837,-2.18,0.61,7.59,0.02,-0.00,0.05
841,-2.18,0.61,7.59,-0.03,-0.00,-0.02
846,-2.18,0.61,7.59,-0.05,-0.01,-0.08
852,0.46,-0.69,8.01,-0.05,-0.01,-0.08
856,0.46,-0.69,8.01,-0.07,-0.08,-0.18
861,0.46,-0.69,8.01,-0.06,-0.05,-0.23
867,0.46,-0.69,8.01,-0.04,-0.04,-0.26
871,0.46,-0.69,8.01,-0.03,0.00,-0.29
876,0.46,-0.69,8.01,-0.02,0.06,-0.31
881,0.46,-0.69,8.01,-0.02,0.10,-0.34
887,-3.45,0.65,10.11,-0.02,0.10,-0.34
891,-3.45,0.65,10.11,-0.02,0.14,-0.37
896,-3.45,0.65,10.11,-0.04,0.08,-0.36
902,-3.45,0.65,10.11,-0.06,0.03,-0.36
906,-3.45,0.65,10.11,-0.04,-0.03,-0.37
912,-3.45,0.65,10.11,-0.03,-0.08,-0.36
916,-3.45,0.65,10.11,0.01,-0.09,-0.32
922,-1.42,-1.53,9.34,0.01,-0.09,-0.32
926,-1.42,-1.53,9.34,0.03,-0.05,-0.25
931,-1.42,-1.53,9.34,0.06,0.00,-0.22
937,-2.34,-0.57,8.85,0.06,0.00,-0.22
941,-2.34,-0.57,8.85,0.08,0.01,-0.15
946,-2.34,-0.57,8.85,0.09,-0.02,-0.12
951,-2.34,-0.57,8.85,0.12,-0.09,-0.07
957,2.03,-2.76,10.27,0.12,-0.09,-0.07
961,2.03,-2.76,10.27,0.15,-0.23,0.00
966,2.03,-2.76,10.27,0.17,-0.21,0.00
972,0.54,-1.65,11.07,0.17,-0.21,0.00
976,0.54,-1.65,11.07,0.22,-0.04,0.03
981,0.54,-1.65,11.07,0.25,0.07,0.03
986,0.54,-1.65,11.07,0.24,0.13,0.01
992,-1.15,-2.84,8.62,0.24,0.13,0.01
996,-1.15,-2.84,8.62,0.22,0.07,-0.01
1001,-1.15,-2.84,8.62,0.21,-0.01,-0.02
1007,1.00,-1.65,8.73,0.21,-0.01,-0.02
1011,1.00,-1.65,8.73,0.20,-0.12,-0.02
1016,1.00,-1.65,8.73,0.18,-0.11,-0.05
1021,1.00,-1.65,8.73,0.19,-0.04,-0.08
1027,-0.54,-2.22,10.53,0.19,-0.04,-0.08
1031,-0.54,-2.22,10.53,0.24,0.04,-0.03
1036,-0.54,-2.22,10.53,0.25,0.03,0.01
1042,-0.92,-1.00,9.35,0.25,0.03,0.01
1046,-0.92,-1.00,9.35,0.27,-0.03,0.02
1051,-0.92,-1.00,9.35,0.26,-0.04,0.04
1056,-0.92,-1.00,9.35,0.27,-0.06,0.06
1062,-0.65,0.50,8.81,0.27,-0.06,0.06
1066,-0.65,0.50,8.81,0.27,-0.03,0.10
1071,-0.65,0.50,8.81,0.26,0.00,0.13
1077,-0.34,0.08,10.53,0.26,0.00,0.13
1081,-0.34,0.08,10.53,0.26,0.01,0.17
1086,-0.34,0.08,10.53,0.25,-0.01,0.18
1091,-0.34,0.08,10.53,0.24,-0.05,0.19
1097,1.88,0.80,9.93,0.24,-0.05,0.19
1101,1.88,0.80,9.93,0.21,-0.05,0.19
1106,1.88,0.80,9.93,0.19,0.01,0.16
1112,-1.49,1.38,8.88,0.19,0.01,0.16
1116,-1.49,1.38,8.88,0.13,0.13,0.12
1121,-1.49,1.38,8.88,0.13,0.14,0.07
1127,-1.49,1.38,8.88,0.13,0.12,-0.00
1131,-1.49,1.38,8.88,0.14,0.06,-0.08
1136,-1.49,1.38,8.88,0.14,-0.01,-0.10
1141,-1.49,1.38,8.88,0.14,-0.08,-0.02
1147,-0.77,0.38,7.78,0.14,-0.08,-0.02
1151,-0.77,0.38,7.78,0.18,-0.09,0.05
1156,-0.77,0.38,7.78,0.16,-0.04,-0.05
1162,-0.77,0.38,7.78,0.16,0.00,-0.12
1166,-0.77,0.38,7.78,0.17,0.04,-0.08
1172,-0.77,0.38,7.78,0.16,0.06,0.01
1176,-0.77,0.38,7.78,0.19,0.01,0.08
1182,0.65,-0.88,12.10,0.19,0.01,0.08
1186,0.65,-0.88,12.10,0.20,-0.08,0.05
1191,0.65,-0.88,12.10,0.20,-0.08,0.01
1197,0.65,-0.88,12.10,0.21,-0.06,0.02
1201,0.65,-0.88,12.10,0.25,-0.01,0.07
1206,0.65,-0.88,12.10,0.28,0.08,0.12
1212,0.65,-0.88,12.10,0.29,0.15,0.14
1217,-4.14,-0.92,7.89,0.29,0.15,0.14
1221,-4.14,-0.92,7.89,0.29,0.14,0.18
1226,-4.14,-0.92,7.89,0.27,0.06,0.21
1232,-1.42,-0.38,9.61,0.27,0.06,0.21
1236,-1.42,-0.38,9.61,0.22,-0.13,0.23
1241,-1.42,-0.38,9.61,0.23,-0.18,0.26
1247,-1.42,-0.38,9.61,0.24,-0.16,0.27
1252,-2.38,-0.11,8.62,0.24,-0.16,0.27
1256,-2.38,-0.11,8.62,0.26,-0.06,0.33
1261,-2.38,-0.11,8.62,0.24,-0.02,0.36
1267,-2.18,0.50,9.84,0.24,-0.02,0.36
1271,-2.18,0.50,9.84,0.21,-0.03,0.34
1276,-2.18,0.50,9.84,0.20,-0.03,0.31
1281,-2.18,0.50,9.84,0.20,-0.05,0.30
1287,-2.26,-0.38,10.30,0.20,-0.05,0.30
1291,-2.26,-0.38,10.30,0.19,-0.05,0.33
1296,-2.26,-0.38,10.30,0.17,-0.05,0.34
1302,-1.95,-0.96,9.50,0.17,-0.05,0.34
1306,-1.95,-0.96,9.50,0.15,-0.03,0.30
1311,-1.95,-0.96,9.50,0.15,-0.02,0.27
1316,-1.95,-0.96,9.50,0.14,-0.02,0.26
1322,-2.49,-0.42,9.69,0.14,-0.02,0.26
1326,-2.49,-0.42,9.69,0.13,-0.02,0.30
1331,-2.49,-0.42,9.69,0.12,-0.02,0.29
1337,-3.07,1.27,9.08,0.12,-0.02,0.29
1341,-3.07,1.27,9.08,0.08,-0.01,0.24
1346,-3.07,1.27,9.08,0.06,-0.02,0.24
1352,-3.07,1.27,9.08,0.06,-0.05,0.25
1356,-3.07,1.27,9.08,0.05,-0.08,0.25
1361,-3.07,1.27,9.08,0.05,-0.10,0.25
1367,-3.07,1.27,9.08,0.04,-0.09,0.25
1372,0.04,2.26,9.42,0.04,-0.09,0.25
1376,0.04,2.26,9.42,0.04,-0.02,0.23
1381,0.04,2.26,9.42,0.03,0.01,0.25
1387,0.04,2.26,9.42,0.02,0.01,0.26
1391,0.04,2.26,9.42,0.01,-0.00,0.25
1396,0.04,2.26,9.42,0.00,-0.04,0.22
1402,0.04,2.26,9.42,-0.00,-0.06,0.20
1407,0.61,1.23,8.35,-0.00,-0.06,0.20
1411,0.61,1.23,8.35,-0.03,-0.05,0.21
1416,0.61,1.23,8.35,-0.04,-0.03,0.19
1422,0.61,1.23,8.35,-0.06,-0.01,0.15
1426,0.61,1.23,8.35,-0.09,-0.00,0.10
1431,0.61,1.23,8.35,-0.10,-0.02,0.07
1436,0.61,1.23,8.35,-0.09,-0.06,0.07
1442,3.29,-0.80,12.34,-0.09,-0.06,0.07
1446,3.29,-0.80,12.34,-0.07,-0.09,0.06
1451,3.29,-0.80,12.34,-0.06,-0.03,0.04
1457,-1.34,-0.23,10.73,-0.06,-0.03,0.04
1461,-1.34,-0.23,10.73,-0.05,0.16,0.01
1466,-1.34,-0.23,10.73,-0.04,0.19,0.00
1471,-1.34,-0.23,10.73,-0.05,0.18,0.00
1477,-0.80,-1.72,9.61,-0.05,0.18,0.00
1481,-0.80,-1.72,9.61,-0.03,0.06,0.02
1486,-0.80,-1.72,9.61,-0.03,-0.00,0.02
1492,-0.46,-0.77,9.20,-0.03,-0.00,0.02
1496,-0.46,-0.77,9.20,-0.02,-0.03,0.04
1501,-0.46,-0.77,9.20,-0.01,0.00,0.04
1506,-0.46,-0.77,9.20,0.01,0.03,0.06
1512,-2.26,-1.19,8.24,0.01,0.03,0.06
1516,-2.26,-1.19,8.24,0.03,0.07,0.11
1521,-2.26,-1.19,8.24,0.04,0.05,0.13
1527,-0.38,0.04,8.89,0.04,0.05,0.13
1531,-0.38,0.04,8.89,0.03,-0.05,0.13
1536,-0.38,0.04,8.89,0.02,-0.08,0.15
1541,-0.38,0.04,8.89,0.04,-0.07,0.18
1547,1.72,0.65,10.49,0.04,-0.07,0.18
1551,1.72,0.65,10.49,0.03,0.04,0.19
1557,1.72,0.65,10.49,0.01,0.13,0.19
1562,1.72,0.65,10.49,0.03,0.19,0.19
1566,1.72,0.65,10.49,0.02,0.20,0.21
1571,1.72,0.65,10.49,0.00,0.17,0.23
1576,1.72,0.65,10.49,-0.02,0.11,0.25
1582,0.65,1.27,9.04,-0.02,0.11,0.25
1586,0.65,1.27,9.04,-0.05,-0.05,0.23
1591,0.65,1.27,9.04,-0.05,-0.04,0.22
1597,-1.95,0.80,9.69,-0.05,-0.04,0.22
1601,-1.95,0.80,9.69,-0.07,0.06,0.23
1606,-1.95,0.80,9.69,-0.07,0.10,0.24
1612,-1.95,0.80,9.69,-0.07,0.08,0.23
1616,-1.95,0.80,9.69,-0.09,0.04,0.20
1621,-1.95,0.80,9.69,-0.09,-0.01,0.18
1626,-1.95,0.80,9.69,-0.10,-0.07,0.18
1632,-2.57,-0.88,8.01,-0.10,-0.07,0.18
1636,-2.57,-0.88,8.01,-0.08,-0.07,0.17
1641,-2.57,-0.88,8.01,-0.08,-0.04,0.15
1647,-2.80,-1.04,9.12,-0.08,-0.04,0.15
1651,-2.80,-1.04,9.12,-0.08,0.00,0.13
1656,-2.80,-1.04,9.12,-0.08,-0.04,0.12
1661,-2.80,-1.04,9.12,-0.07,-0.07,0.11
1667,1.11,-1.65,11.60,-0.07,-0.07,0.11
1671,1.11,-1.65,11.60,-0.07,-0.09,0.08
1676,1.11,-1.65,11.60,-0.05,-0.04,0.06
1682,1.11,-1.65,11.60,-0.04,0.05,0.04
1686,1.11,-1.65,11.60,-0.03,0.15,0.04
1691,1.11,-1.65,11.60,-0.03,0.20,0.06
1696,1.11,-1.65,11.60,-0.02,0.17,0.08
1702,-2.45,-1.04,9.81,-0.02,0.17,0.08
1706,-2.45,-1.04,9.81,-0.04,-0.00,0.06
1711,-2.45,-1.04,9.81,-0.04,-0.09,0.04
1717,-2.26,-2.11,10.39,-0.04,-0.09,0.04
1721,-2.26,-2.11,10.39,-0.01,-0.10,0.05
1726,-2.26,-2.11,10.39,0.02,-0.07,0.09
1731,-2.26,-2.11,10.39,0.04,-0.04,0.13
1737,-2.03,-0.92,8.93,0.04,-0.04,0.13
1741,-2.03,-0.92,8.93,0.05,-0.06,0.17
1747,-2.03,-0.92,8.93,0.06,-0.10,0.18
1752,-1.19,-1.19,9.16,0.06,-0.10,0.18
1756,-1.19,-1.19,9.16,0.07,-0.10,0.19
1761,-1.19,-1.19,9.16,0.08,-0.07,0.21
1766,-1.19,-1.19,9.16,0.08,-0.03,0.23
1771,-1.57,-1.72,9.35,0.08,-0.03,0.23
1776,-1.57,-1.72,9.35,0.09,0.02,0.29
1782,-1.57,-1.72,9.35,0.08,0.01,0.28
1786,-1.57,-1.72,9.35,0.08,-0.02,0.25
1791,-1.57,-1.72,9.35,0.07,-0.06,0.22
1796,-1.57,-1.72,9.35,0.07,-0.09,0.21
1801,-1.57,-1.72,9.35,0.07,-0.11,0.23
1806,0.96,-2.80,9.65,0.07,-0.11,0.23
1811,0.96,-2.80,9.65,0.08,-0.07,0.22
1817,0.96,-2.80,9.65,0.11,-0.03,0.20
1822,-0.42,-1.99,9.85,0.11,-0.03,0.20
1826,-0.42,-1.99,9.85,0.12,0.04,0.21
1831,-0.42,-1.99,9.85,0.12,0.04,0.21
1836,-1.15,-0.65,10.23,0.12,0.04,0.21
1842,-0.65,-0.80,9.50,0.12,0.04,0.21
1846,-0.65,-0.80,9.50,0.13,-0.01,0.18
1851,-0.65,-0.80,9.50,0.14,-0.04,0.20
1857,0.54,1.23,9.00,0.14,-0.04,0.20
1861,0.54,1.23,9.00,0.11,-0.03,0.24
1866,0.54,1.23,9.00,0.08,-0.01,0.21
1872,0.11,1.42,9.46,0.08,-0.01,0.21
1876,0.11,1.42,9.46,0.03,0.02,0.15
1881,0.11,1.42,9.46,0.02,0.02,0.14
1886,0.11,1.42,9.46,0.01,0.03,0.16
1891,-1.46,1.72,9.77,0.01,0.03,0.16
1896,-1.46,1.72,9.77,-0.02,0.04,0.14
1901,-1.46,1.72,9.77,-0.03,0.04,0.10
1907,1.30,1.53,10.41,-0.03,0.04,0.10
1911,1.30,1.53,10.41,-0.06,-0.04,0.06
1916,1.30,1.53,10.41,-0.05,-0.07,0.06
1922,1.30,1.53,10.41,-0.05,-0.04,0.05
1926,1.30,1.53,10.41,-0.04,0.02,0.04
1931,1.30,1.53,10.41,-0.07,0.12,0.02
1936,1.30,1.53,10.41,-0.08,0.18,-0.00
1942,1.30,1.53,10.41,-0.08,0.19,-0.01
1946,1.30,1.53,10.41,-0.09,0.15,-0.03
1951,1.30,1.53,10.41,-0.10,0.07,-0.05
1956,1.30,1.53,10.41,-0.09,-0.02,-0.07
1962,1.30,1.53,10.41,-0.09,-0.09,-0.07
1966,1.30,1.53,10.41,-0.10,-0.09,-0.06
1971,1.30,1.53,10.41,-0.09,-0.06,-0.07
1977,-0.84,-0.65,9.77,-0.09,-0.06,-0.07
1981,-0.84,-0.65,9.77,-0.07,0.04,-0.09
1986,-0.84,-0.65,9.77,-0.06,0.09,-0.10
1991,-0.84,-0.65,9.77,-0.06,0.10,-0.09
1996,-0.84,-0.65,9.77,-0.05,0.07,-0.07
2001,-0.84,-0.65,9.77,-0.04,0.04,-0.06
2006,-0.84,-0.65,9.77,-0.04,0.03,-0.05
2012,0.19,-0.23,9.27,-0.04,0.03,-0.05
2016,0.19,-0.23,9.27,-0.02,0.00,-0.05
2021,0.19,-0.23,9.27,-0.01,0.03,-0.01
2027,0.19,-0.23,9.27,-0.01,0.05,0.01
2031,0.19,-0.23,9.27,-0.00,0.06,0.01
2036,0.19,-0.23,9.27,0.01,0.06,0.01
2041,0.19,-0.23,9.27,0.02,0.04,0.03
2047,-1.34,-0.08,8.85,0.02,0.04,0.03
2051,-1.34,-0.08,8.85,0.02,-0.05,0.07
2056,-1.34,-0.08,8.85,0.01,-0.11,0.06
2062,-1.34,-0.08,8.85,-0.02,-0.12,0.06
2066,-1.34,-0.08,8.85,-0.04,-0.09,0.04
2071,-1.34,-0.08,8.85,-0.04,-0.04,0.04
2076,-1.34,-0.08,8.85,-0.06,0.02,0.03
2081,-1.34,-0.08,8.85,-0.06,0.06,0.01
2086,-1.34,-0.08,8.85,-0.07,0.09,-0.02
2091,-1.34,-0.08,8.85,-0.07,0.08,-0.03
2096,-1.34,-0.08,8.85,-0.07,0.09,-0.06
2101,-2.95,1.80,8.39,-0.07,0.09,-0.06
2106,-2.95,1.80,8.39,-0.08,0.09,-0.08
2111,-2.95,1.80,8.39,-0.10,0.06,-0.08
2116,-2.61,2.72,7.89,-0.10,0.06,-0.08
2121,-2.61,2.72,7.89,-0.14,0.00,-0.12
2126,-2.61,2.72,7.89,-0.17,-0.04,-0.12
2131,-0.11,1.57,11.26,-0.17,-0.04,-0.12
2136,-0.11,1.57,11.26,-0.18,-0.11,-0.10
2141,-0.11,1.57,11.26,-0.17,-0.10,-0.10
2146,-0.11,1.57,11.26,-0.17,-0.07,-0.10
2152,-1.57,0.65,10.03,-0.17,-0.07,-0.10
2156,-1.57,0.65,10.03,-0.11,0.06,-0.06
2161,-0.54,1.07,9.31,-0.11,0.06,-0.06
2166,-0.54,1.07,9.31,-0.11,0.08,-0.03
2171,-0.54,1.07,9.31,-0.12,0.04,-0.03
2176,-0.54,1.07,9.31,-0.12,0.00,-0.03
2181,-0.54,1.07,9.31,-0.15,-0.03,-0.04
2186,-0.54,1.07,9.31,-0.14,-0.03,-0.04
2191,-0.54,1.07,9.31,-0.14,0.01,-0.02
2196,-0.54,1.07,9.31,-0.12,0.03,0.00
2201,-0.54,1.07,9.31,-0.11,-0.00,0.01
2206,-0.54,1.07,9.31,-0.11,-0.04,0.02
2211,-0.54,1.07,9.31,-0.12,-0.06,0.02
2216,-0.54,1.07,9.31,-0.11,-0.10,0.03
2221,-0.54,1.07,9.31,-0.11,-0.11,0.05
2226,-0.54,1.07,9.31,-0.11,-0.10,0.05
2231,-0.54,1.07,9.31,-0.11,-0.04,0.05
2237,0.92,-0.15,11.11,-0.11,-0.04,0.05
2241,0.92,-0.15,11.11,-0.09,0.06,0.08
2246,0.92,-0.15,11.11,-0.07,0.06,0.09
2251,0.92,-0.15,11.11,-0.07,0.07,0.07
2256,0.92,-0.15,11.11,-0.08,0.07,0.07
2261,0.92,-0.15,11.11,-0.07,0.06,0.08
2266,0.92,-0.15,11.11,-0.08,0.05,0.09
2271,0.30,-0.80,8.92,-0.08,0.05,0.09
2276,0.30,-0.80,8.92,-0.11,-0.03,0.06
2281,0.30,-0.80,8.92,-0.12,-0.09,0.05
2286,0.30,-0.80,8.92,-0.13,-0.10,0.04
2291,0.30,-0.80,8.92,-0.12,-0.06,0.03
2296,-0.19,-1.61,11.64,-0.12,-0.06,0.03
2301,-0.19,-1.61,11.64,-0.07,0.05,0.04
2306,-0.88,-1.72,11.53,-0.07,0.05,0.04
2311,-0.88,-1.72,11.53,-0.03,0.14,0.04
2316,-0.88,-1.72,11.53,-0.01,0.17,0.05
2321,-0.88,-1.72,11.53,0.01,0.16,0.07
2326,-0.88,-1.72,11.53,0.01,0.12,0.10
2331,-0.88,-1.72,11.53,-0.00,0.04,0.12
2336,-0.88,-1.72,11.53,-0.04,-0.03,0.11
2341,-0.88,-1.72,11.53,-0.06,-0.09,0.09
2346,-0.88,-1.72,11.53,-0.07,-0.10,0.09
2351,-0.88,-1.72,11.53,-0.07,-0.08,0.07
2356,-0.88,-1.72,11.53,-0.07,-0.03,0.09
2362,-3.29,0.42,8.92,-0.07,-0.03,0.09
2366,-3.29,0.42,8.92,-0.08,0.14,0.09
2371,-3.29,0.42,8.92,-0.07,0.17,0.07
2376,-3.29,0.42,8.92,-0.08,0.13,0.06
2381,-3.29,0.42,8.92,-0.09,0.06,0.05
2386,-3.29,0.42,8.92,-0.11,-0.04,0.07
2392,1.91,0.73,11.72,-0.11,-0.04,0.07
2396,1.91,0.73,11.72,-0.10,-0.06,0.07
2401,-2.64,1.27,9.23,-0.10,-0.06,0.07
2406,-2.64,1.27,9.23,-0.11,0.16,0.02
2412,-2.64,1.27,9.23,-0.11,0.25,0.01
2416,-3.26,0.57,7.63,-0.11,0.25,0.01
2421,-2.14,0.19,7.89,-0.11,0.25,0.01
2426,-2.14,0.19,7.89,-0.14,0.08,0.01
2431,-2.14,0.19,7.89,-0.14,-0.05,-0.01
2436,-2.14,0.19,7.89,-0.15,-0.14,-0.02
2441,-2.14,0.19,7.89,-0.17,-0.16,-0.03
2446,-2.14,0.19,7.89,-0.17,-0.12,-0.06
2451,-2.14,0.19,7.89,-0.16,-0.06,-0.06
2456,-2.14,0.19,7.89,-0.15,0.01,-0.05
2462,-2.14,0.19,7.89,-0.14,0.06,-0.07
2467,-2.14,0.19,7.89,-0.14,0.08,-0.10
2471,-1.53,-2.03,8.42,-0.14,0.08,-0.10
2476,-1.49,-1.84,8.23,-0.14,0.08,-0.10
2482,-1.49,-1.84,8.23,-0.10,-0.04,-0.11
2486,-1.49,-1.84,8.23,-0.08,-0.05,-0.11
2491,-0.73,-1.23,8.35,-0.08,-0.05,-0.11
2496,-0.73,-1.23,8.35,-0.07,-0.02,-0.11
2501,-0.73,-1.23,8.35,-0.07,0.01,-0.11
2506,-0.73,-1.23,8.35,-0.06,0.01,-0.11
2512,-0.73,-1.23,8.35,-0.04,-0.01,-0.10
2517,-0.73,-1.23,8.35,-0.03,-0.05,-0.07
2521,0.08,-1.76,11.88,-0.03,-0.05,-0.07
2526,-0.54,-1.42,11.76,-0.03,-0.05,-0.07
2532,-0.54,-1.42,11.76,0.01,0.04,-0.04
2536,-3.03,-1.42,9.77,0.01,0.04,-0.04
2541,-3.41,-1.53,9.00,0.01,0.04,-0.04
2547,-3.41,-1.53,9.00,0.07,0.15,0.01
2551,-3.41,-1.53,9.00,0.08,0.12,0.04
2556,-2.61,-1.72,7.09,0.08,0.12,0.04
2561,-2.64,-1.76,7.01,0.08,0.12,0.04
2567,-2.64,-1.76,7.01,0.08,-0.11,0.07
2571,-2.34,-1.53,6.86,0.08,-0.11,0.07
2576,-1.99,-1.72,7.43,0.08,-0.11,0.07
2582,-1.99,-1.72,7.43,0.08,-0.21,0.12
2587,-1.99,-1.72,7.43,0.08,-0.19,0.12
2591,-0.23,-1.11,10.84,0.08,-0.19,0.12
2596,1.38,-1.46,11.84,0.08,-0.19,0.12
2602,1.38,-1.46,11.84,0.08,-0.15,0.12
2607,1.38,-1.46,11.84,0.09,-0.16,0.13
2611,2.38,-1.80,12.10,0.09,-0.16,0.13
2616,0.92,-1.72,10.15,0.09,-0.16,0.13
2621,0.92,-1.72,10.15,0.12,0.03,0.09
2626,0.92,-1.72,10.15,0.13,0.15,0.10
2631,0.92,-1.72,10.15,0.16,0.21,0.12
2637,0.92,-1.72,10.15,0.15,0.21,0.13
2641,0.19,-0.50,9.34,0.15,0.21,0.13
2646,0.77,-1.11,9.96,0.15,0.21,0.13
2651,0.77,-1.11,9.96,0.08,-0.07,0.08
2656,0.77,-1.11,9.96,0.06,-0.13,0.04
2661,0.77,-1.11,9.96,0.07,-0.13,0.04
2667,0.77,-1.11,9.96,0.09,-0.10,0.06
2671,0.77,-1.11,9.96,0.11,-0.07,0.09
2676,0.00,0.46,10.39,0.11,-0.07,0.09
2681,-0.30,0.73,9.65,0.11,-0.07,0.09
2686,-0.30,0.73,9.65,0.10,0.00,0.07
2691,-1.23,0.73,8.39,0.10,0.00,0.07
2696,-1.19,0.73,8.39,0.10,0.00,0.07
2702,-1.19,0.73,8.39,0.08,0.02,0.06
2706,-1.19,0.73,8.39,0.08,-0.01,0.08
2711,1.49,0.88,10.15,0.08,-0.01,0.08
2716,1.76,0.84,10.30,0.08,-0.01,0.08
2722,1.76,0.84,10.30,0.04,-0.09,0.08
2727,1.76,0.84,10.30,0.04,-0.08,0.05
2731,0.73,0.23,10.23,0.04,-0.08,0.05
2736,-0.42,-0.34,9.58,0.04,-0.08,0.05
2741,-1.23,-0.15,9.30,0.04,-0.08,0.05
2746,-1.23,-0.15,9.30,0.03,0.12,0.02
2751,-1.23,-0.15,9.30,0.03,0.14,0.01
2756,-1.23,-0.15,9.30,0.03,0.13,-0.03
2761,-1.23,-0.15,9.30,0.03,0.12,-0.04
2766,-1.23,-0.15,9.30,0.03,0.08,-0.05
2771,-0.46,-1.15,9.81,0.03,0.08,-0.05
2776,0.00,-1.76,9.73,0.03,0.08,-0.05
2781,0.04,-1.27,9.50,0.03,0.08,-0.05
2787,0.04,-1.27,9.50,0.08,-0.12,-0.03
2791,0.04,-1.27,9.50,0.10,-0.11,-0.01
2796,-0.19,-0.46,7.89,0.10,-0.11,-0.01
2801,-1.38,0.00,8.42,0.10,-0.11,-0.01
2806,-1.38,0.00,8.42,0.10,0.04,0.03
2811,-1.38,0.00,8.42,0.09,0.10,0.02
2816,-2.07,-0.08,8.46,0.09,0.10,0.02
2821,-3.52,0.61,7.77,0.09,0.10,0.02
2826,-4.14,0.92,8.23,0.09,0.10,0.02
2831,-3.10,0.73,8.36,0.09,0.10,0.02
2836,-3.10,0.73,8.36,0.07,0.07,0.12
2841,-1.65,0.73,8.88,0.07,0.07,0.12
2846,0.15,0.23,9.61,0.07,0.07,0.12
2850,-1.15,0.23,11.68,0.07,0.07,0.12
2856,-1.15,0.23,11.68,0.07,-0.15,0.24
2861,-1.15,0.23,11.68,0.06,-0.15,0.27
2866,-1.15,0.23,11.68,0.07,-0.11,0.29
2871,-2.14,0.69,10.19,0.07,-0.11,0.29
2876,-1.88,0.34,9.73,0.07,-0.11,0.29
2881,-1.88,0.34,9.73,0.08,0.12,0.35
2886,-2.87,-0.19,9.00,0.08,0.12,0.35
2891,-2.72,0.34,8.39,0.08,0.12,0.35
2896,-2.72,0.34,8.39,0.06,0.06,0.36
2901,-4.37,0.88,10.11,0.06,0.06,0.36
2906,-3.52,0.34,9.20,0.06,0.06,0.36
2912,-3.52,0.34,9.20,0.00,0.00,0.38
2916,-2.03,0.15,9.08,0.00,0.00,0.38
2921,-1.68,-0.54,9.54,0.00,0.00,0.38
2926,-1.68,-0.54,9.54,-0.05,-0.12,0.32
2931,-1.68,-0.54,9.54,-0.05,-0.15,0.34
2936,-0.30,-0.61,7.97,-0.05,-0.15,0.34
2941,-0.73,-0.73,9.12,-0.05,-0.15,0.34
2946,-0.73,-0.73,9.12,-0.05,-0.17,0.33
2951,0.00,-0.50,9.80,-0.05,-0.17,0.33
2956,0.46,0.00,10.45,-0.05,-0.17,0.33
2961,0.46,0.00,10.45,-0.04,0.02,0.32
2966,0.46,0.00,10.45,-0.05,0.08,0.30
2971,-0.88,-1.00,8.92,-0.05,0.08,0.30
2976,-0.11,-0.30,8.88,-0.05,0.08,0.30
2982,-0.11,-0.30,8.88,-0.05,0.03,0.25
2986,1.38,-0.73,9.08,-0.05,0.03,0.25
2991,1.99,0.34,8.20,-0.05,0.03,0.25
2996,2.34,0.92,9.16,-0.05,0.03,0.25
3001,1.80,1.11,9.42,-0.05,0.03,0.25
3006,1.80,1.11,9.42,-0.14,-0.09,0.19
3011,1.80,1.11,9.42,-0.13,-0.03,0.15
3016,1.80,1.11,9.42,-0.14,0.04,0.15
3021,-0.77,0.92,9.58,-0.14,0.04,0.15
3026,-0.73,1.30,9.46,-0.14,0.04,0.15
3031,-0.80,1.23,9.12,-0.14,0.04,0.15
3036,-0.73,1.80,7.51,-0.14,0.04,0.15
3041,-0.27,2.34,7.24,-0.14,0.04,0.15
3046,0.23,2.11,7.01,-0.14,0.04,0.15
3051,0.23,2.11,7.01,-0.23,-0.06,0.09
3056,-0.38,1.91,9.81,-0.23,-0.06,0.09
3061,0.15,1.88,11.07,-0.23,-0.06,0.09
3066,1.42,1.38,12.41,-0.23,-0.06,0.09
3071,2.68,-0.19,12.95,-0.23,-0.06,0.09
3076,2.49,-0.08,12.72,-0.23,-0.06,0.09
3081,1.72,-0.42,12.26,-0.23,-0.06,0.09
3086,1.72,-0.42,12.26,-0.23,0.03,-0.01
3091,-1.61,-0.34,9.34,-0.23,0.03,-0.01
3096,-1.19,0.65,9.39,-0.23,0.03,-0.01
3101,-0.96,0.77,9.61,-0.23,0.03,-0.01
3106,-0.77,1.27,9.89,-0.23,0.03,-0.01
3111,-0.88,1.27,9.23,-0.23,0.03,-0.01
3116,-1.34,0.38,9.27,-0.23,0.03,-0.01
3121,-1.07,0.38,9.27,-0.23,0.03,-0.01
3126,-1.07,0.38,9.27,-0.29,0.07,-0.13
3132,-1.38,0.54,7.17,-0.29,0.07,-0.13
3136,-0.88,0.96,8.01,-0.29,0.07,-0.13
3141,-1.15,1.65,7.66,-0.29,0.07,-0.13
3146,-0.54,1.72,7.70,-0.29,0.07,-0.13
3151,-0.08,1.15,8.43,-0.29,0.07,-0.13
3156,-0.08,1.15,8.43,-0.30,-0.05,-0.17
3161,-1.11,1.07,9.58,-0.30,-0.05,-0.17
3166,-0.80,0.65,10.15,-0.30,-0.05,-0.17
3171,0.61,0.84,9.46,-0.30,-0.05,-0.17
3176,-0.42,0.96,10.50,-0.30,-0.05,-0.17
3181,-0.92,1.00,10.61,-0.30,-0.05,-0.17
3186,-1.84,0.50,9.69,-0.30,-0.05,-0.17
3191,-0.57,1.53,9.73,-0.30,-0.05,-0.17
3196,-1.15,1.34,10.31,-0.30,-0.05,-0.17
3201,-1.19,0.73,10.23,-0.30,-0.05,-0.17
3207,-1.19,0.73,10.23,-0.31,0.13,-0.25
3211,0.65,0.19,9.50,-0.31,0.13,-0.25
3216,0.65,0.19,9.50,-0.36,0.02,-0.29
3221,-1.61,0.80,8.28,-0.36,0.02,-0.29
3226,-1.11,0.80,9.12,-0.36,0.02,-0.29
3231,-1.99,0.38,9.84,-0.36,0.02,-0.29
3236,-3.64,0.42,9.58,-0.36,0.02,-0.29
3241,-3.26,0.65,8.84,-0.36,0.02,-0.29
3246,-1.68,-0.27,9.65,-0.36,0.02,-0.29
3251,-1.68,-0.27,9.65,-0.34,0.02,-0.44
3256,-1.68,-0.27,9.65,-0.32,-0.02,-0.44
3261,-1.00,0.15,9.16,-0.32,-0.02,-0.44
3266,-1.23,-0.84,9.04,-0.32,-0.02,-0.44
3271,-0.54,-0.54,8.42,-0.32,-0.02,-0.44
3276,-0.96,-1.00,9.61,-0.32,-0.02,-0.44
3281,-2.41,-0.84,10.27,-0.32,-0.02,-0.44
3286,-2.53,-0.50,8.66,-0.32,-0.02,-0.44
3291,-3.14,-0.61,9.20,-0.32,-0.02,-0.44
3296,-4.98,-0.30,8.96,-0.32,-0.02,-0.44
3301,-4.67,-0.61,8.39,-0.32,-0.02,-0.44
3307,-3.48,-0.57,9.00,-0.32,-0.02,-0.44
3311,-1.65,-1.88,9.73,-0.32,-0.02,-0.44
3316,-0.42,-2.26,9.58,-0.32,-0.02,-0.44
3321,-0.42,-2.26,9.58,-0.20,-0.12,-0.53
3326,0.00,-2.11,10.91,-0.20,-0.12,-0.53
3331,-1.53,-1.07,10.88,-0.20,-0.12,-0.53
3337,-1.53,-1.07,10.88,-0.17,-0.12,-0.51
3341,-2.41,-0.11,10.46,-0.17,-0.12,-0.51
3346,-1.99,-1.11,9.16,-0.17,-0.12,-0.51
3351,-0.61,-1.88,9.04,-0.17,-0.12,-0.51
3356,-0.34,-1.53,9.77,-0.17,-0.12,-0.51
3361,-1.15,-1.07,8.85,-0.17,-0.12,-0.51
3366,0.19,-0.50,8.84,-0.17,-0.12,-0.51
3371,0.19,-0.50,8.84,-0.06,-0.07,-0.39
3376,0.77,-0.77,9.30,-0.06,-0.07,-0.39
3381,0.00,-0.96,9.42,-0.06,-0.07,-0.39
3386,-0.08,-1.04,9.04,-0.06,-0.07,-0.39
3391,-0.08,-0.96,8.96,-0.06,-0.07,-0.39
3396,-1.04,-1.65,8.58,-0.06,-0.07,-0.39
3401,0.04,-2.26,8.46,-0.06,-0.07,-0.39
3406,0.04,-2.26,8.46,-0.01,-0.04,-0.39
3411,1.57,-2.41,9.69,-0.01,-0.04,-0.39
3416,2.26,-1.68,10.07,-0.01,-0.04,-0.39
3421,2.87,-1.88,10.19,-0.01,-0.04,-0.39
3426,1.99,-1.76,10.61,-0.01,-0.04,-0.39
3431,0.96,-2.14,11.04,-0.01,-0.04,-0.39
3436,-1.30,-1.80,10.07,-0.01,-0.04,-0.39
3441,-1.30,-1.80,10.07,0.08,0.12,-0.38
3446,0.46,-1.76,9.96,0.08,0.12,-0.38
3451,0.77,-1.57,9.88,0.08,0.12,-0.38
3456,0.80,-1.38,9.96,0.08,0.12,-0.38
3462,1.34,-1.95,10.11,0.08,0.12,-0.38
3466,1.68,-1.11,10.49,0.08,0.12,-0.38
3471,1.42,-1.84,10.95,0.08,0.12,-0.38
3477,0.46,-1.80,10.42,0.08,0.12,-0.38
3481,-0.61,-1.76,10.19,0.08,0.12,-0.38
3486,-0.84,-1.76,10.23,0.08,0.12,-0.38
3491,-1.11,-1.27,10.07,0.08,0.12,-0.38
3496,-1.53,-0.84,9.81,0.08,0.12,-0.38
3501,-1.80,-1.07,9.42,0.08,0.12,-0.38
3506,-2.18,-0.61,7.93,0.08,0.12,-0.38
3511,-2.18,-0.61,7.93,0.21,0.05,-0.16
3516,-2.18,-0.61,7.93,0.21,0.02,-0.15
3521,-1.88,-0.34,7.05,0.21,0.02,-0.15
3526,-1.23,-0.19,8.32,0.21,0.02,-0.15
3531,0.54,0.27,9.39,0.21,0.02,-0.15
3536,1.95,-0.54,10.65,0.21,0.02,-0.15
3541,2.30,-0.61,11.19,0.21,0.02,-0.15
3547,1.88,-0.84,11.15,0.21,0.02,-0.15
3551,-0.57,-0.57,10.45,0.21,0.02,-0.15
3556,-2.41,-0.27,9.88,0.21,0.02,-0.15
3561,-2.76,-0.19,9.54,0.21,0.02,-0.15
3566,-2.38,0.04,9.34,0.21,0.02,-0.15
3571,-1.07,0.84,9.27,0.21,0.02,-0.15
3576,-1.07,0.84,9.27,0.22,0.14,-0.07
3581,-1.68,0.73,9.61,0.22,0.14,-0.07
3586,-1.11,-0.73,9.38,0.22,0.14,-0.07
3592,-1.07,-0.96,8.70,0.22,0.14,-0.07
3596,-1.07,-0.96,8.70,0.23,-0.02,-0.07
3601,-2.61,-1.04,7.66,0.23,-0.02,-0.07
3606,-1.65,0.08,7.78,0.23,-0.02,-0.07
3611,-1.30,0.88,8.82,0.23,-0.02,-0.07
3617,-2.11,0.19,9.46,0.23,-0.02,-0.07
3621,-1.04,-0.30,9.16,0.23,-0.02,-0.07
3626,-0.54,-0.30,9.20,0.23,-0.02,-0.07
3631,-0.96,-0.19,9.73,0.23,-0.02,-0.07
3636,-0.96,-0.19,9.73,0.25,-0.00,0.01
3641,-0.30,-0.57,9.30,0.25,-0.00,0.01
3646,-0.92,0.19,9.43,0.25,-0.00,0.01
3652,-1.72,-0.19,10.15,0.25,-0.00,0.01
3656,-2.91,-0.46,9.69,0.25,-0.00,0.01
3661,-2.53,-0.84,9.12,0.25,-0.00,0.01
3667,-1.61,-0.80,9.65,0.25,-0.00,0.01
3671,-1.15,-0.77,9.20,0.25,-0.00,0.01
3676,-0.08,-1.23,9.73,0.25,-0.00,0.01
3682,-0.34,-1.61,9.96,0.25,-0.00,0.01
3687,-0.34,-1.61,9.96,0.25,-0.06,0.15
3691,-2.18,-0.34,9.58,0.25,-0.06,0.15
3697,-2.80,-0.92,10.39,0.25,-0.06,0.15
3701,-2.80,-0.92,10.39,0.26,0.06,0.19
3706,-1.76,-1.04,10.30,0.26,0.06,0.19
3711,-1.27,-0.65,10.38,0.26,0.06,0.19
3716,-1.27,-1.46,10.42,0.26,0.06,0.19
3723,-1.76,-1.72,9.35,0.26,0.06,0.19
3728,-1.34,-0.50,7.70,0.26,0.06,0.19
3731,-1.34,-0.50,7.70,0.29,-0.10,0.30
3736,-1.34,-0.50,7.70,0.27,-0.08,0.31
3741,-2.14,-0.27,8.73,0.27,-0.08,0.31
3747,-1.07,-0.73,9.00,0.27,-0.08,0.31
3751,-1.07,-0.73,9.00,0.22,-0.03,0.27
3757,-1.07,-0.73,9.00,0.22,-0.03,0.27
3762,-1.72,-1.49,8.32,0.22,-0.03,0.27
3766,-1.72,-1.49,8.32,0.23,-0.07,0.32
3771,-1.72,-1.49,8.32,0.23,-0.10,0.33
3776,-1.72,-1.49,8.32,0.23,-0.14,0.32
3782,1.30,-1.95,9.77,0.23,-0.14,0.32
3786,1.30,-1.95,9.77,0.22,-0.16,0.31
3791,1.38,-0.69,10.27,0.22,-0.16,0.31
3796,0.88,-0.73,10.73,0.22,-0.16,0.31
3802,0.00,-0.73,10.19,0.22,-0.16,0.31
3806,0.00,-0.73,10.19,0.25,0.04,0.37
3811,0.38,-0.30,9.23,0.25,0.04,0.37
3817,0.80,-1.65,8.42,0.25,0.04,0.37
3821,0.80,-1.65,8.42,0.24,-0.04,0.38
3826,0.38,-1.38,9.08,0.24,-0.04,0.38
3831,0.04,-0.65,9.54,0.24,-0.04,0.38
3836,0.04,-0.65,9.54,0.22,-0.09,0.43
3841,0.04,-0.65,9.54,0.20,-0.07,0.43
3846,0.61,-0.46,10.91,0.20,-0.07,0.43
3852,-0.57,-0.69,10.30,0.20,-0.07,0.43
3856,-0.57,-0.69,10.30,0.18,-0.01,0.37
3861,-1.42,-0.92,10.03,0.18,-0.01,0.37
3867,-1.38,-2.30,10.19,0.18,-0.01,0.37
3871,-1.38,-2.30,10.19,0.21,-0.01,0.42
3876,-1.38,-2.30,10.19,0.20,-0.05,0.42
3881,0.50,-1.38,9.73,0.20,-0.05,0.42
3887,0.15,-1.61,10.04,0.20,-0.05,0.42
3891,0.15,-1.61,10.04,0.21,-0.06,0.45
3896,0.15,-1.61,10.04,0.22,-0.02,0.48
3901,-1.23,-1.07,9.23,0.22,-0.02,0.48
3906,-1.23,-1.07,9.23,0.22,0.02,0.49
3911,-1.11,-0.96,9.77,0.22,0.02,0.49
3917,-1.11,-0.96,9.77,0.22,0.01,0.49
3922,-0.50,-0.30,9.34,0.22,0.01,0.49
3926,-0.50,-0.30,9.34,0.20,-0.04,0.53
3931,-0.57,-0.08,9.65,0.20,-0.04,0.53
3936,-1.30,0.77,10.03,0.20,-0.04,0.53
3942,-1.49,0.23,8.66,0.20,-0.04,0.53
3946,-1.49,0.23,8.66,0.15,0.05,0.54
3951,-4.18,0.69,8.36,0.15,0.05,0.54
3956,-3.75,0.73,8.46,0.15,0.05,0.54
3962,-2.45,0.54,7.31,0.15,0.05,0.54
3966,-1.91,0.92,8.23,0.15,0.05,0.54
3972,-2.03,0.96,8.96,0.15,0.05,0.54
3976,-2.03,0.96,8.96,0.06,-0.06,0.56
3981,-0.84,1.42,8.78,0.06,-0.06,0.56
3986,-2.45,0.23,10.27,0.06,-0.06,0.56
3991,-2.45,0.23,10.27,0.02,-0.03,0.55
3996,-2.45,0.23,10.27,0.00,-0.02,0.53
4001,0.30,0.38,12.38,0.00,-0.02,0.53
4007,1.46,0.77,12.34,0.00,-0.02,0.53
4011,1.46,0.77,12.34,-0.05,-0.01,0.50
4016,1.46,0.77,12.34,-0.06,0.02,0.46
4022,-1.91,-0.11,8.70,-0.06,0.02,0.46
4026,-1.91,-0.11,8.70,-0.07,0.13,0.38
4031,-1.91,-0.11,8.70,-0.08,0.16,0.36
4036,-1.91,-0.11,8.70,-0.07,0.16,0.34
4042,-0.92,0.46,7.82,-0.07,0.16,0.34
4046,-0.92,0.46,7.82,-0.14,0.05,0.29
4051,-0.77,0.04,9.58,-0.14,0.05,0.29
4056,-0.61,-0.61,9.20,-0.14,0.05,0.29
4062,-0.38,-0.38,10.35,-0.14,0.05,0.29
4066,-0.38,-0.38,10.35,-0.19,-0.06,0.12
4071,-0.50,-0.69,10.19,-0.19,-0.06,0.12
4077,-0.61,-0.27,10.77,-0.19,-0.06,0.12
4081,-0.61,-0.27,10.77,-0.17,0.03,0.05
4086,-0.80,-0.23,9.30,-0.17,0.03,0.05
4091,-1.15,-0.46,9.96,-0.17,0.03,0.05
4096,-1.15,-0.46,9.96,-0.17,0.10,-0.06
4102,-1.15,-0.46,9.96,-0.17,0.09,-0.08
4108,-1.34,-0.57,9.12,-0.17,0.09,-0.08
4111,-1.34,-0.57,9.12,-0.17,0.06,-0.12
4116,-1.34,-0.57,9.12,-0.17,0.05,-0.14
4121,-1.38,-0.11,10.30,-0.17,0.05,-0.14
4127,-2.22,-0.27,9.23,-0.17,0.05,-0.14
4131,-2.22,-0.27,9.23,-0.20,0.01,-0.23
4137,-2.22,-0.27,9.23,-0.19,-0.00,-0.25
4142,-1.23,-0.54,9.00,-0.19,-0.00,-0.25
4146,-1.23,-0.54,9.00,-0.19,-0.00,-0.26
4151,-1.23,-0.54,9.00,-0.20,0.01,-0.29
4156,-1.23,-0.54,9.00,-0.18,0.03,-0.30
4162,-1.57,0.65,9.89,-0.18,0.03,-0.30
4167,-1.57,0.65,9.89,-0.17,0.06,-0.27
4171,-1.57,0.65,9.89,-0.15,0.03,-0.25
4176,-1.57,0.65,9.89,-0.15,-0.02,-0.23
4182,0.84,0.23,10.50,-0.15,-0.02,-0.23
4186,0.84,0.23,10.50,-0.13,-0.03,-0.20
4191,1.15,0.88,8.36,-0.13,-0.03,-0.20
4197,0.73,1.04,7.97,-0.13,-0.03,-0.20
4201,0.73,1.04,7.97,-0.10,0.03,-0.10
4206,-0.42,0.00,9.27,-0.10,0.03,-0.10
4211,-0.19,0.19,8.81,-0.10,0.03,-0.10
4216,-0.19,0.19,8.81,-0.12,0.05,-0.10
4221,-0.19,0.19,8.81,-0.12,0.04,-0.10
4226,-2.76,0.11,9.23,-0.12,0.04,-0.10
4232,-2.64,-0.23,9.12,-0.12,0.04,-0.10
4237,-2.64,-0.23,9.12,-0.12,0.02,-0.08
4241,-2.64,-0.23,9.12,-0.11,-0.05,-0.07
4247,1.68,-1.23,9.77,-0.11,-0.05,-0.07
4251,1.68,-1.23,9.77,-0.11,-0.15,-0.06
4256,1.68,-1.23,9.77,-0.09,-0.13,-0.04
4261,0.23,-1.15,11.53,-0.09,-0.13,-0.04
4267,-0.27,-1.15,11.42,-0.09,-0.13,-0.04
4271,-0.27,-1.15,11.42,-0.02,0.11,0.02
4276,-0.27,-1.15,11.42,0.00,0.14,0.04
4282,0.46,-1.27,9.73,0.00,0.14,0.04
4287,0.46,-1.27,9.73,0.01,0.07,0.10
4291,0.46,-1.27,9.73,0.02,0.01,0.11
4296,0.46,-1.27,9.73,0.01,-0.01,0.12
4302,0.04,-0.19,9.50,0.01,-0.01,0.12
4306,0.04,-0.19,9.50,-0.00,0.01,0.15
4312,0.04,-0.19,9.50,-0.02,0.03,0.14
4317,-1.23,0.04,9.27,-0.02,0.03,0.14
4321,-1.23,0.04,9.27,-0.05,0.03,0.12
4327,-1.23,0.04,9.27,-0.06,0.00,0.13
4332,-0.61,-0.73,8.85,-0.06,0.00,0.13
4337,-0.61,-0.73,8.85,-0.05,-0.07,0.14
4341,-0.61,-0.73,8.85,-0.05,-0.10,0.14
4346,1.34,-0.34,9.08,-0.05,-0.10,0.14
4352,0.77,-0.65,9.96,-0.05,-0.10,0.14
4357,0.77,-0.65,9.96,-0.04,-0.02,0.13
4362,0.77,-0.65,9.96,-0.05,0.07,0.12
4367,-2.22,-0.04,9.46,-0.05,0.07,0.12
4371,-2.22,-0.04,9.46,-0.04,0.17,0.08
4376,-2.22,-0.04,9.46,-0.06,0.18,0.07
4381,-1.23,0.08,8.39,-0.06,0.18,0.07
4387,-0.08,0.38,8.50,-0.06,0.18,0.07
4391,-0.08,0.38,8.50,-0.09,-0.03,0.05
4396,-0.08,0.38,8.50,-0.11,-0.06,0.03
4402,0.08,-0.27,9.73,-0.11,-0.06,0.03
4407,0.08,-0.27,9.73,-0.11,-0.04,0.00
4411,0.08,-0.27,9.73,-0.10,0.03,-0.01
4416,0.08,-0.27,9.73,-0.11,0.12,-0.04
4422,-2.95,-0.19,9.69,-0.11,0.12,-0.04
4426,-2.95,-0.19,9.69,-0.11,0.14,-0.07
4431,-2.95,-0.19,9.69,-0.12,0.11,-0.10
4437,-2.87,1.42,8.27,-0.12,0.11,-0.10
4441,-2.87,1.42,8.27,-0.13,0.04,-0.13
4447,-2.87,1.42,8.27,-0.14,-0.02,-0.13
4451,-4.37,1.65,7.31,-0.14,-0.02,-0.13
4457,-3.45,2.22,7.82,-0.14,-0.02,-0.13
4461,-3.45,2.22,7.82,-0.20,0.00,-0.21
4466,-3.45,2.22,7.82,-0.21,-0.03,-0.21
4472,0.04,1.72,10.69,-0.21,-0.03,-0.21
4476,0.04,1.72,10.69,-0.23,-0.09,-0.22
4481,0.04,1.72,10.69,-0.23,-0.11,-0.24
4487,-1.04,1.19,10.57,-0.23,-0.11,-0.24
4491,-1.04,1.19,10.57,-0.20,0.04,-0.28
4496,-1.04,1.19,10.57,-0.20,0.14,-0.27
4501,-1.04,1.19,10.57,-0.19,0.18,-0.26
4507,-1.15,2.72,9.89,-0.19,0.18,-0.26
4511,-1.15,2.72,9.89,-0.25,0.15,-0.29
4516,-1.15,2.72,9.89,-0.27,0.11,-0.32
4522,-0.73,1.23,9.54,-0.27,0.11,-0.32
4527,-0.73,1.23,9.54,-0.27,0.06,-0.32
4532,-0.73,1.23,9.54,-0.25,0.03,-0.30
4536,-0.73,1.23,9.54,-0.25,0.02,-0.29
4542,-1.30,1.34,8.93,-0.25,0.02,-0.29
4546,-1.30,1.34,8.93,-0.23,0.04,-0.27
4551,-1.30,1.34,8.93,-0.22,0.02,-0.28
4556,-1.30,1.34,8.93,-0.23,-0.00,-0.29
4562,-1.65,0.65,9.43,-0.23,-0.00,-0.29
4566,-1.65,0.65,9.43,-0.22,-0.01,-0.29
4571,-1.65,0.65,9.43,-0.21,-0.03,-0.29
4577,-0.69,-0.69,9.80,-0.21,-0.03,-0.29
4581,-0.69,-0.69,9.80,-0.20,0.02,-0.26
4586,-0.69,-0.69,9.80,-0.20,0.06,-0.26
4592,0.38,0.38,10.11,-0.20,0.06,-0.26
4596,0.38,0.38,10.11,-0.21,0.01,-0.28
4601,0.38,0.38,10.11,-0.20,-0.01,-0.27
4606,0.96,-1.27,9.93,-0.20,-0.01,-0.27
4612,2.03,-1.53,10.41,-0.20,-0.01,-0.27
4616,2.03,-1.53,10.41,-0.16,-0.02,-0.22
4621,2.03,-1.53,10.41,-0.15,0.02,-0.21
4627,-0.77,-1.23,9.58,-0.15,0.02,-0.21
4631,-0.77,-1.23,9.58,-0.13,0.09,-0.20
4637,-0.77,-1.23,9.58,-0.12,0.10,-0.20
4642,0.19,-0.57,10.11,-0.12,0.10,-0.20
4646,0.19,-0.57,10.11,-0.11,0.04,-0.19
4651,0.19,-0.57,10.11,-0.11,-0.01,-0.19
4656,0.19,-0.57,10.11,-0.10,-0.04,-0.17
4662,0.38,-0.38,8.78,-0.10,-0.04,-0.17
4666,0.38,-0.38,8.78,-0.08,-0.00,-0.13
4672,0.38,-0.38,8.78,-0.08,0.01,-0.13
4677,0.38,-0.38,8.78,-0.08,0.01,-0.14
4681,0.38,-0.38,8.78,-0.09,0.00,-0.17
4687,0.38,-0.38,8.78,-0.09,0.00,-0.18
4691,0.38,-0.38,8.78,-0.09,0.04,-0.18
4697,-2.26,-0.69,9.20,-0.09,0.04,-0.18
4701,-2.26,-0.69,9.20,-0.05,0.15,-0.15
4706,-2.26,-0.69,9.20,-0.05,0.14,-0.15
4711,0.73,-1.88,8.81,-0.05,0.14,-0.15
4717,0.69,-2.03,8.50,-0.05,0.14,-0.15
4721,0.69,-2.03,8.50,-0.04,-0.08,-0.12
4726,0.69,-2.03,8.50,-0.03,-0.10,-0.10
4733,-0.23,-1.00,10.31,-0.03,-0.10,-0.10
4736,-0.23,-1.00,10.31,0.02,0.04,-0.06
4741,-0.23,-1.00,10.31,0.02,0.13,-0.03
4747,-1.88,0.19,8.93,0.02,0.13,-0.03
4751,-1.88,0.19,8.93,0.01,0.16,-0.00
4756,-1.88,0.19,8.93,0.00,0.10,-0.01
4761,-1.88,0.19,8.93,-0.02,0.04,-0.03
4767,-0.96,1.46,9.04,-0.02,0.04,-0.03
4771,-0.96,1.46,9.04,-0.05,-0.02,-0.03
4776,-0.96,1.46,9.04,-0.07,0.01,-0.03
4782,-0.27,1.42,9.54,-0.07,0.01,-0.03
4786,-0.27,1.42,9.54,-0.11,0.02,-0.07
4791,-0.27,1.42,9.54,-0.12,0.04,-0.08
4796,-0.27,1.42,9.54,-0.13,0.06,-0.11
4803,-1.49,-0.04,8.58,-0.13,0.06,-0.11
4806,-1.49,-0.04,8.58,-0.15,-0.00,-0.14
4811,-1.49,-0.04,8.58,-0.14,-0.03,-0.16
4817,-1.49,-0.04,8.58,-0.12,-0.05,-0.16
4821,-1.49,-0.04,8.58,-0.12,-0.08,-0.15
4826,-1.49,-0.04,8.58,-0.10,-0.06,-0.14
4831,-0.88,-0.50,11.19,-0.10,-0.06,-0.14
4837,-1.57,-0.54,10.57,-0.10,-0.06,-0.14
4841,-1.57,-0.54,10.57,-0.09,0.14,-0.19
4846,-1.57,-0.54,10.57,-0.06,0.19,-0.22
4852,-2.61,-0.96,8.54,-0.06,0.19,-0.22
4856,-2.61,-0.96,8.54,-0.05,0.10,-0.20
4861,-2.61,-0.96,8.54,-0.05,0.02,-0.19
4867,0.23,-0.92,9.08,-0.05,0.02,-0.19
4871,0.23,-0.92,9.08,-0.08,-0.12,-0.20
4876,0.23,-0.92,9.08,-0.06,-0.09,-0.22
4881,0.23,-0.92,9.08,-0.06,-0.02,-0.25
4887,-1.30,-1.72,9.81,-0.06,-0.02,-0.25
4891,-1.30,-1.72,9.81,-0.03,0.10,-0.22
4896,-1.30,-1.72,9.81,-0.02,0.13,-0.22
4902,-2.76,-1.53,8.58,-0.02,0.13,-0.22
4907,-2.76,-1.53,8.58,0.01,0.10,-0.24
4912,-2.76,-1.53,8.58,0.02,0.06,-0.22
4916,-2.76,-1.53,8.58,0.03,0.01,-0.20
4922,-2.34,-1.84,8.16,0.03,0.01,-0.20
4826,-1.49,-0.04,8.58,-0.10,-0.06,-0.14
4831,-0.88,-0.50,11.19,-0.10,-0.06,-0.14
4837,-1.57,-0.54,10.57,-0.10,-0.06,-0.14
4841,-1.57,-0.54,10.57,-0.09,0.14,-0.19
4846,-1.57,-0.54,10.57,-0.06,0.19,-0.22
4852,-2.61,-0.96,8.54,-0.06,0.19,-0.22
4856,-2.61,-0.96,8.54,-0.05,0.10,-0.20
4861,-2.61,-0.96,8.54,-0.05,0.02,-0.19
4867,0.23,-0.92,9.08,-0.05,0.02,-0.19
4871,0.23,-0.92,9.08,-0.08,-0.12,-0.20
4876,0.23,-0.92,9.08,-0.06,-0.09,-0.22
4881,0.23,-0.92,9.08,-0.06,-0.02,-0.25
4887,-1.30,-1.72,9.81,-0.06,-0.02,-0.25
4891,-1.30,-1.72,9.81,-0.03,0.10,-0.22
4896,-1.30,-1.72,9.81,-0.02,0.13,-0.22
4902,-2.76,-1.53,8.58,-0.02,0.13,-0.22
