timestamp,accX,accY,accZ,gyroX,gyroY,gyroZ
Left
6,-0.92,-1.15,9.31,0.05,-0.05,0.46
19,-0.92,-1.15,9.31,0.07,0.01,0.47
21,-1.04,-1.34,11.15,0.07,0.01,0.47
22,-1.04,-1.34,11.15,0.02,-0.03,-0.09
25,-0.19,-1.07,9.85,0.02,-0.03,-0.09
30,-0.19,-1.07,9.85,0.05,-0.00,-0.06
36,1.38,-1.30,10.34,0.05,-0.00,-0.06
41,0.84,-1.15,10.73,0.05,-0.00,-0.06
46,0.92,-0.61,10.41,0.05,-0.00,-0.06
51,-0.88,-0.57,10.31,0.05,-0.00,-0.06
56,-0.38,-1.30,10.50,0.05,-0.00,-0.06
61,-0.23,-1.88,9.38,0.05,-0.00,-0.06
66,0.08,-2.11,9.00,0.05,-0.00,-0.06
71,-1.34,-0.92,8.04,0.05,-0.00,-0.06
76,-1.34,-0.92,8.04,0.13,-0.01,-0.03
81,-0.30,0.00,8.39,0.13,-0.01,-0.03
86,-0.57,-0.30,8.92,0.13,-0.01,-0.03
91,0.92,-0.50,9.50,0.13,-0.01,-0.03
96,1.00,-0.84,8.85,0.13,-0.01,-0.03
101,1.00,-1.42,9.46,0.13,-0.01,-0.03
106,0.30,-0.27,9.27,0.13,-0.01,-0.03
111,0.30,-0.27,9.27,0.06,-0.02,-0.18
116,-0.38,-1.11,9.16,0.06,-0.02,-0.18
121,0.23,-1.30,9.35,0.06,-0.02,-0.18
126,0.46,-0.84,9.39,0.06,-0.02,-0.18
131,0.27,-1.07,10.15,0.06,-0.02,-0.18
136,1.42,-0.84,10.77,0.06,-0.02,-0.18
141,0.77,-0.50,11.22,0.06,-0.02,-0.18
146,0.77,-0.50,11.22,0.11,0.02,-0.07
151,0.77,-0.50,11.22,0.11,0.07,-0.08
156,-0.61,0.54,10.07,0.11,0.07,-0.08
161,-1.57,0.61,8.78,0.11,0.07,-0.08
166,-1.42,0.11,8.96,0.11,0.07,-0.08
171,-1.23,0.42,7.97,0.11,0.07,-0.08
176,-1.76,0.57,7.55,0.11,0.07,-0.08
181,-1.76,0.57,7.55,0.14,-0.05,-0.01
186,0.61,0.04,8.85,0.14,-0.05,-0.01
191,0.27,-0.08,9.16,0.14,-0.05,-0.01
196,0.57,0.23,10.23,0.14,-0.05,-0.01
202,-0.19,0.69,9.80,0.14,-0.05,-0.01
206,-1.30,0.69,10.39,0.14,-0.05,-0.01
211,-1.49,0.11,9.96,0.14,-0.05,-0.01
216,-1.61,-0.08,10.00,0.14,-0.05,-0.01
221,-2.14,-0.27,9.77,0.14,-0.05,-0.01
226,-1.38,-0.57,9.27,0.14,-0.05,-0.01
231,-1.38,-0.57,9.27,0.14,0.05,0.05
236,-1.19,-0.46,8.85,0.14,0.05,0.05
241,-1.19,-0.27,8.70,0.14,0.05,0.05
246,-1.88,-0.11,9.00,0.14,0.05,0.05
252,-2.18,0.00,8.50,0.14,0.05,0.05
256,-1.11,-0.23,8.58,0.14,0.05,0.05
261,-1.15,-0.69,9.61,0.14,0.05,0.05
266,-1.27,-0.04,10.15,0.14,0.05,0.05
271,-1.61,-0.08,9.93,0.14,0.05,0.05
276,-1.76,-0.42,9.69,0.14,0.05,0.05
282,-0.88,-0.19,9.20,0.14,0.05,0.05
286,-0.88,-0.19,9.20,0.13,0.02,-0.07
291,-0.88,-0.19,9.20,0.13,0.05,-0.05
296,-1.30,-0.34,9.54,0.13,0.05,-0.05
301,-0.88,-0.04,9.27,0.13,0.05,-0.05
306,-0.50,-0.46,9.50,0.13,0.05,-0.05
311,-0.77,-0.80,10.30,0.13,0.05,-0.05
316,-0.96,-0.30,10.73,0.13,0.05,-0.05
321,-1.15,-0.42,9.85,0.13,0.05,-0.05
326,-0.77,0.15,9.34,0.13,0.05,-0.05
331,-1.23,0.23,9.34,0.13,0.05,-0.05
336,-1.23,0.23,9.34,0.15,-0.01,-0.00
341,-0.30,-0.50,8.54,0.15,-0.01,-0.00
346,0.42,-0.92,8.39,0.15,-0.01,-0.00
351,0.15,-0.73,8.70,0.15,-0.01,-0.00
356,-0.15,-0.69,9.20,0.15,-0.01,-0.00
361,-1.00,-0.61,9.12,0.15,-0.01,-0.00
367,-1.80,-0.57,7.86,0.15,-0.01,-0.00
371,-1.80,-0.57,7.86,0.19,-0.02,0.03
376,-1.95,-1.76,7.97,0.19,-0.02,0.03
381,-2.03,-1.99,8.89,0.19,-0.02,0.03
386,-1.57,-2.53,9.16,0.19,-0.02,0.03
392,-0.61,-2.64,9.50,0.19,-0.02,0.03
396,0.88,-2.57,11.38,0.19,-0.02,0.03
402,1.80,-2.95,12.87,0.19,-0.02,0.03
406,1.80,-2.95,12.87,0.18,-0.15,0.06
411,1.80,-2.95,12.87,0.21,-0.09,0.09
416,-0.65,-2.64,10.77,0.21,-0.09,0.09
421,-1.61,-2.80,10.31,0.21,-0.09,0.09
426,-1.91,-2.38,9.20,0.21,-0.09,0.09
431,-1.53,-2.18,8.54,0.21,-0.09,0.09
437,-0.80,-1.95,8.24,0.21,-0.09,0.09
441,-0.80,-1.95,8.24,0.39,0.05,0.34
446,-1.19,-0.92,8.04,0.39,0.05,0.34
452,-1.38,-0.77,8.27,0.39,0.05,0.34
456,-1.38,-0.77,8.27,0.35,-0.12,0.40
461,-2.14,-0.46,7.81,0.35,-0.12,0.40
466,-2.26,-0.46,7.70,0.35,-0.12,0.40
471,-1.91,-0.30,7.86,0.35,-0.12,0.40
477,-2.14,-0.61,7.70,0.35,-0.12,0.40
481,0.80,-0.88,9.46,0.35,-0.12,0.40
486,1.76,-1.07,9.84,0.35,-0.12,0.40
491,1.49,-0.57,10.95,0.35,-0.12,0.40
498,1.04,-1.15,11.00,0.35,-0.12,0.40
501,1.19,-1.84,11.64,0.35,-0.12,0.40
506,1.19,-1.84,11.64,0.34,-0.09,0.54
511,1.19,-1.84,11.64,0.36,0.00,0.56
516,-0.57,-2.26,9.77,0.36,0.00,0.56
522,-0.77,-2.26,9.27,0.36,0.00,0.56
526,-0.77,-2.26,9.27,0.45,0.07,0.63
531,-0.77,-2.26,9.27,0.44,0.04,0.64
537,0.42,-1.53,8.85,0.44,0.04,0.64
541,0.42,-1.53,8.85,0.41,-0.05,0.65
546,0.42,-1.53,8.85,0.39,-0.07,0.65
551,0.42,-1.53,8.85,0.35,-0.07,0.64
556,-0.80,0.27,10.34,0.35,-0.07,0.64
562,-0.30,0.27,9.69,0.35,-0.07,0.64
566,-0.77,-1.49,10.23,0.35,-0.07,0.64
571,-0.27,-1.42,10.61,0.35,-0.07,0.64
577,-0.65,-1.91,9.31,0.35,-0.07,0.64
581,-0.65,-1.91,9.31,0.31,-0.07,0.55
586,0.04,-1.46,9.27,0.31,-0.07,0.55
591,0.34,-1.46,10.15,0.31,-0.07,0.55
597,0.77,-1.30,10.53,0.31,-0.07,0.55
601,0.73,-1.00,11.30,0.31,-0.07,0.55
606,0.92,-0.61,11.15,0.31,-0.07,0.55
610,0.92,-0.61,11.15,0.30,-0.03,0.54
616,-0.65,-1.04,9.54,0.30,-0.03,0.54
622,-0.92,-0.92,9.23,0.30,-0.03,0.54
627,-2.18,-0.15,8.01,0.30,-0.03,0.54
631,-2.18,-0.15,8.01,0.35,0.06,0.53
636,-1.19,-0.19,8.01,0.35,0.06,0.53
642,-1.07,0.69,8.85,0.35,0.06,0.53
646,-1.07,0.69,8.85,0.25,-0.06,0.44
651,-1.07,0.69,8.85,0.23,-0.10,0.40
656,-1.30,-0.19,9.16,0.23,-0.10,0.40
662,-0.61,0.19,9.34,0.23,-0.10,0.40
666,-0.61,0.19,9.34,0.22,-0.09,0.36
671,-1.80,0.19,8.74,0.22,-0.09,0.36
677,-1.88,0.77,8.82,0.22,-0.09,0.36
681,-1.88,0.77,8.82,0.26,0.01,0.29
686,-1.88,0.77,8.82,0.27,0.01,0.28
691,-1.23,0.00,9.92,0.27,0.01,0.28
697,-0.30,0.15,10.50,0.27,0.01,0.28
701,-0.30,0.15,10.50,0.25,-0.00,0.31
706,-0.50,1.19,10.69,0.25,-0.00,0.31
712,-0.77,1.07,9.54,0.25,-0.00,0.31
716,-0.77,1.07,9.54,0.26,0.01,0.30
721,-1.91,2.11,8.32,0.26,0.01,0.30
727,-1.15,1.57,8.84,0.26,0.01,0.30
731,-1.15,1.57,8.84,0.23,-0.01,0.30
736,-1.15,1.57,8.84,0.21,-0.03,0.29
741,0.73,0.54,8.46,0.21,-0.03,0.29
747,1.15,0.19,8.85,0.21,-0.03,0.29
751,1.15,0.19,8.85,0.19,-0.13,0.41
756,-0.11,0.73,8.54,0.19,-0.13,0.41
762,-0.23,0.88,9.65,0.19,-0.13,0.41
766,-0.23,0.88,9.65,0.20,-0.06,0.45
771,-0.23,0.88,9.65,0.19,0.01,0.43
776,-1.68,0.15,9.65,0.19,0.01,0.43
782,-1.19,-0.77,9.69,0.19,0.01,0.43
786,-1.19,-0.77,9.69,0.20,-0.00,0.41
791,-1.19,-0.77,9.69,0.20,-0.03,0.46
797,-0.19,-2.38,10.45,0.20,-0.03,0.46
801,-0.19,-2.38,10.45,0.24,-0.09,0.50
806,-0.19,-2.38,10.45,0.25,-0.08,0.50
811,-0.19,-2.38,10.45,0.27,-0.04,0.53
815,-1.27,-0.84,11.04,0.27,-0.04,0.53
820,-1.27,-0.84,11.04,0.25,0.00,0.53
826,-0.30,-1.42,10.54,0.25,0.00,0.53
833,-0.30,-1.42,10.54,0.25,-0.01,0.52
836,-0.30,-1.42,10.54,0.28,0.04,0.61
841,-0.30,-1.42,10.54,0.30,0.05,0.64
847,-1.53,-0.30,8.70,0.30,0.05,0.64
851,-1.53,-0.30,8.70,0.30,0.04,0.63
856,-1.53,-0.30,8.70,0.27,0.02,0.60
861,-0.88,1.07,9.16,0.27,0.02,0.60
867,-0.96,1.07,10.23,0.27,0.02,0.60
871,-0.96,1.07,10.23,0.20,-0.06,0.56
876,-0.96,1.07,10.23,0.18,-0.07,0.57
882,-1.07,1.38,10.65,0.18,-0.07,0.57
886,-1.07,1.38,10.65,0.17,0.01,0.59
891,-1.07,1.38,10.65,0.17,0.04,0.57
896,-1.42,0.80,9.58,0.17,0.04,0.57
902,-0.57,0.57,9.23,0.17,0.04,0.57
906,-0.57,0.57,9.23,0.20,-0.00,0.57
911,-0.57,0.57,9.23,0.20,-0.00,0.60
917,-0.23,0.77,8.66,0.20,-0.00,0.60
921,-0.23,0.77,8.66,0.21,0.00,0.61
926,-0.23,0.77,8.66,0.20,0.02,0.60
931,-0.23,0.77,8.66,0.18,0.02,0.57
937,-1.23,0.50,7.73,0.18,0.02,0.57
941,-1.23,0.50,7.73,0.14,-0.06,0.50
946,-0.42,-0.50,9.50,0.14,-0.06,0.50
951,1.49,-0.69,10.73,0.14,-0.06,0.50
957,1.84,-0.84,10.65,0.14,-0.06,0.50
961,1.84,-0.84,10.65,0.06,-0.19,0.48
966,2.38,-1.72,11.46,0.06,-0.19,0.48
971,1.15,-1.53,10.88,0.06,-0.19,0.48
977,0.57,-0.73,10.19,0.06,-0.19,0.48
981,0.57,-0.73,10.19,0.20,0.10,0.55
987,-0.69,-1.15,8.24,0.20,0.10,0.55
991,-0.69,-1.15,8.24,0.24,0.16,0.54
996,-0.69,-1.15,8.24,0.26,0.13,0.55
1001,-0.30,-2.22,8.96,0.26,0.13,0.55
1007,0.23,-1.72,9.16,0.26,0.13,0.55
1011,0.23,-1.72,9.16,0.21,-0.00,0.58
1016,-2.38,-0.61,8.70,0.21,-0.00,0.58
1022,-2.18,-0.46,8.96,0.21,-0.00,0.58
1026,-2.18,-0.46,8.96,0.17,-0.04,0.43
1031,-2.18,-0.46,8.96,0.17,-0.06,0.39
1036,-0.04,-0.88,8.81,0.17,-0.06,0.39
1042,1.27,-0.34,9.23,0.17,-0.06,0.39
1046,1.27,-0.34,9.23,0.20,-0.11,0.47
1051,1.27,-0.34,9.23,0.21,-0.05,0.49
1057,0.08,0.88,10.53,0.21,-0.05,0.49
1061,0.08,0.88,10.53,0.22,0.09,0.51
1066,0.08,0.88,10.53,0.22,0.13,0.52
1071,0.08,0.88,10.53,0.24,0.13,0.53
1077,-1.34,0.04,10.00,0.24,0.13,0.53
1081,-1.34,0.04,10.00,0.24,0.05,0.57
1086,-1.34,0.04,10.00,0.24,0.00,0.60
1092,0.23,-0.46,9.73,0.24,0.00,0.60
1096,0.23,-0.46,9.73,0.22,-0.03,0.67
1101,0.23,-0.46,9.73,0.21,-0.03,0.68
1107,-0.11,1.07,9.69,0.21,-0.03,0.68
1111,-0.11,1.07,9.69,0.19,0.00,0.67
1116,-0.11,1.07,9.69,0.18,0.02,0.68
1121,-0.46,-0.69,10.38,0.18,0.02,0.68
1126,0.00,-0.57,10.23,0.18,0.02,0.68
1130,0.00,-0.57,10.23,0.21,0.00,0.72
1136,0.00,-0.57,10.23,0.23,0.00,0.76
1140,-0.08,1.07,10.73,0.23,0.00,0.76
1145,-0.08,1.07,10.73,0.21,0.02,0.78
1152,-0.08,1.07,10.73,0.19,0.02,0.75
1157,-0.46,0.88,10.84,0.19,0.02,0.75
1161,-0.46,0.88,10.84,0.17,0.04,0.75
1166,-0.46,0.88,10.84,0.19,0.09,0.77
1171,-0.46,0.88,10.84,0.21,0.10,0.75
1177,-1.91,1.80,8.85,0.21,0.10,0.75
1181,-1.91,1.80,8.85,0.22,0.12,0.73
1186,-1.91,1.80,8.85,0.20,0.09,0.72
1191,-1.91,1.80,8.85,0.17,0.06,0.70
1197,-1.27,1.38,9.20,0.17,0.06,0.70
1201,-1.27,1.38,9.20,0.14,0.03,0.66
1206,-1.27,1.38,9.20,0.14,0.02,0.65
1212,-2.34,1.88,9.31,0.14,0.02,0.65
1216,-2.34,1.88,9.31,0.12,0.05,0.62
1221,-2.34,1.88,9.31,0.11,0.04,0.57
1227,-2.68,1.07,8.93,0.11,0.04,0.57
1231,-2.68,1.07,8.93,0.10,0.08,0.54
1237,-2.68,1.07,8.93,0.10,0.06,0.54
1242,-1.15,0.77,10.19,0.10,0.06,0.54
1246,-1.15,0.77,10.19,0.08,0.08,0.55
1251,-1.15,0.77,10.19,0.08,0.08,0.54
1256,-1.15,0.77,10.19,0.08,0.12,0.53
1262,-0.50,0.80,10.96,0.08,0.12,0.53
1266,-0.50,0.80,10.96,0.09,0.15,0.52
1271,-0.50,0.80,10.96,0.08,0.17,0.53
1277,-1.65,1.30,9.73,0.08,0.17,0.53
1282,-1.15,0.73,9.58,0.08,0.17,0.53
1286,-1.15,0.73,9.58,0.08,0.17,0.51
1291,-1.15,0.73,9.58,0.08,0.18,0.52
1297,-1.27,0.50,9.27,0.08,0.18,0.52
1301,-1.27,0.50,9.27,0.06,0.12,0.53
1306,-1.27,0.50,9.27,0.05,0.10,0.52
1311,-1.27,0.50,9.27,0.04,0.07,0.51
1317,-2.64,0.84,10.00,0.04,0.07,0.51
1321,-2.64,0.84,10.00,0.04,0.10,0.50
1326,-2.64,0.84,10.00,0.06,0.11,0.50
1331,-2.64,0.84,10.00,0.07,0.13,0.50
1337,-1.53,0.38,10.31,0.07,0.13,0.50
1341,-1.53,0.38,10.31,0.07,0.17,0.49
1346,-1.53,0.38,10.31,0.07,0.16,0.50
1352,-3.10,-0.04,9.69,0.07,0.16,0.50
1356,-3.10,-0.04,9.69,0.09,0.19,0.52
1361,-3.10,-0.04,9.69,0.09,0.16,0.51
1367,-2.76,-1.30,9.69,0.09,0.16,0.51
1371,-2.76,-1.30,9.69,0.11,0.15,0.57
1376,-2.76,-1.30,9.69,0.12,0.13,0.56
1381,-2.22,-0.19,8.46,0.12,0.13,0.56
1387,-2.34,-1.15,7.86,0.12,0.13,0.56
1391,-2.34,-1.15,7.86,0.14,0.11,0.56
1396,-2.34,-1.15,7.86,0.13,0.10,0.53
1402,-1.27,-1.61,9.69,0.13,0.10,0.53
1406,-1.27,-1.61,9.69,0.13,0.06,0.51
1411,-1.27,-1.61,9.69,0.13,0.01,0.54
1417,0.19,-2.30,10.96,0.13,0.01,0.54
1421,0.19,-2.30,10.96,0.14,0.01,0.61
1426,0.19,-2.30,10.96,0.15,0.03,0.62
1430,0.19,-2.30,10.96,0.17,0.07,0.62
1435,0.88,-2.76,10.42,0.17,0.07,0.62
1441,0.88,-2.76,10.42,0.19,0.11,0.64
1446,0.88,-2.76,10.42,0.26,0.12,0.71
1452,0.42,-1.42,8.82,0.26,0.12,0.71
1456,0.42,-1.42,8.82,0.29,0.10,0.80
1461,0.42,-1.42,8.82,0.30,0.09,0.83
1466,0.34,-1.30,8.96,0.30,0.09,0.83
1472,0.00,-0.30,9.04,0.30,0.09,0.83
1476,0.00,-0.30,9.04,0.29,-0.00,0.86
1481,0.00,-0.30,9.04,0.27,-0.04,0.87
1487,2.68,-0.88,12.38,0.27,-0.04,0.87
1491,2.68,-0.88,12.38,0.24,-0.09,0.92
1496,2.68,-0.88,12.38,0.24,-0.07,0.97
1501,2.68,0.27,11.07,0.24,-0.07,0.97
1507,1.65,0.00,10.65,0.24,-0.07,0.97
1511,1.65,0.00,10.65,0.29,0.13,1.04
1516,1.65,0.00,10.65,0.31,0.18,1.04
1522,0.92,-0.30,10.19,0.31,0.18,1.04
1526,0.92,-0.30,10.19,0.32,0.20,1.07
1531,0.92,-0.30,10.19,0.30,0.16,1.09
1537,0.92,-1.27,10.84,0.30,0.16,1.09
1542,-0.08,-0.69,9.96,0.30,0.16,1.09
1546,-0.08,-0.69,9.96,0.27,0.10,1.09
1551,-0.08,-0.69,9.96,0.26,0.10,1.05
1557,-1.49,0.50,8.70,0.26,0.10,1.05
1561,-1.49,0.50,8.70,0.23,0.08,0.98
1566,-1.49,0.50,8.70,0.22,0.06,0.96
1572,-1.49,0.50,8.70,0.20,0.04,0.94
1576,-1.49,0.50,8.70,0.19,0.04,0.95
1581,-1.49,0.50,8.70,0.18,0.06,0.95
1586,-1.49,0.50,8.70,0.17,0.08,0.94
1592,0.15,1.04,9.73,0.17,0.08,0.94
1596,0.15,1.04,9.73,0.17,0.15,0.91
1601,0.15,1.04,9.73,0.15,0.18,0.88
1606,0.27,-0.15,10.57,0.15,0.18,0.88
1612,0.57,-0.30,10.91,0.15,0.18,0.88
1616,0.57,-0.30,10.91,0.16,0.19,0.86
1621,-0.23,0.34,10.19,0.16,0.19,0.86
1626,0.61,0.73,9.96,0.16,0.19,0.86
1630,0.61,0.73,9.96,0.18,0.23,0.87
1636,0.61,0.73,9.96,0.17,0.25,0.84
1640,0.61,0.73,9.96,0.14,0.26,0.80
1646,-0.96,1.65,10.07,0.14,0.26,0.80
1652,-0.96,1.65,10.07,0.10,0.25,0.75
1657,-2.38,0.96,10.04,0.10,0.25,0.75
1661,-2.38,0.96,10.04,0.07,0.19,0.68
1666,-2.38,0.96,10.04,0.05,0.15,0.66
1671,-2.38,0.96,10.04,0.05,0.11,0.63
1677,-1.95,0.57,9.89,0.05,0.11,0.63
1681,-1.95,0.57,9.89,0.04,0.12,0.59
1686,-1.95,0.57,9.89,0.07,0.14,0.56
1691,-1.95,0.57,9.89,0.08,0.17,0.52
1698,-2.07,0.92,8.16,0.08,0.17,0.52
1701,-2.07,0.92,8.16,0.08,0.22,0.45
1706,-2.07,0.92,8.16,0.08,0.19,0.42
1711,-2.07,0.92,8.16,0.06,0.20,0.41
1717,-0.42,-0.04,8.66,0.06,0.20,0.41
1721,-0.42,-0.04,8.66,0.04,0.17,0.37
1726,-2.34,1.46,8.62,0.04,0.17,0.37
1732,-0.92,0.42,8.36,0.04,0.17,0.37
1736,-0.92,0.42,8.36,0.01,0.15,0.25
1741,-0.92,0.42,8.36,0.01,0.15,0.23
1747,-0.08,0.50,9.69,0.01,0.15,0.23
1751,-0.08,0.50,9.69,0.02,0.15,0.25
1756,-0.08,0.50,9.69,0.01,0.15,0.28
1762,0.23,2.07,10.65,0.01,0.15,0.28
1766,0.23,2.07,10.65,0.05,0.21,0.36
1771,0.23,2.07,10.65,0.06,0.22,0.40
1776,0.23,2.07,10.65,0.06,0.25,0.43
1781,-1.68,3.10,9.16,0.06,0.25,0.43
1786,-1.68,3.10,9.16,0.08,0.28,0.46
1791,-1.68,3.10,9.16,0.08,0.28,0.47
1797,-1.57,1.00,8.50,0.08,0.28,0.47
1801,-1.57,1.00,8.50,0.08,0.19,0.51
1806,-1.57,1.00,8.50,0.06,0.11,0.54
1811,-1.57,1.00,8.50,0.04,0.05,0.59
1817,0.65,0.96,9.92,0.04,0.05,0.59
1821,0.65,0.96,9.92,-0.00,-0.02,0.61
1826,0.65,0.96,9.92,-0.01,-0.01,0.59
1832,0.65,0.96,9.92,0.01,0.01,0.58
1836,0.65,0.96,9.92,0.04,0.06,0.59
1841,0.65,0.96,9.92,0.06,0.13,0.63
1846,0.65,0.96,9.92,0.08,0.17,0.67
1852,-0.65,-1.27,8.93,0.08,0.17,0.67
1856,-0.65,-1.27,8.93,0.15,0.15,0.74
1861,-0.65,-1.27,8.93,0.15,0.14,0.80
1867,-0.65,-1.27,8.93,0.14,0.13,0.84
1871,-0.65,-1.27,8.93,0.16,0.11,0.87
1876,-0.65,-1.27,8.93,0.15,0.09,0.89
1881,-0.65,-1.27,8.93,0.15,0.10,0.94
1886,1.46,-0.92,9.42,0.15,0.10,0.94
1891,1.46,-0.92,9.42,0.17,0.13,0.99
1896,1.46,-0.92,9.42,0.18,0.15,1.01
1901,1.46,-0.92,9.42,0.20,0.16,1.04
1906,1.46,-0.92,9.42,0.20,0.15,1.07
1911,1.46,-0.92,9.42,0.21,0.14,1.10
1916,1.46,-0.92,9.42,0.21,0.12,1.12
1922,1.99,-1.11,11.64,0.21,0.12,1.12
1926,1.99,-1.11,11.64,0.20,0.08,1.15
1930,1.99,-1.11,11.64,0.21,0.10,1.20
1935,1.27,-1.57,10.96,0.21,0.10,1.20
1941,1.27,-1.57,10.96,0.21,0.12,1.22
1947,1.27,-1.57,10.96,0.22,0.15,1.21
1952,1.27,-1.57,10.96,0.24,0.20,1.24
1956,1.27,-1.57,10.96,0.26,0.21,1.26
1961,1.27,-1.57,10.96,0.24,0.21,1.26
1966,1.27,-1.57,10.96,0.22,0.20,1.23
1972,1.27,-1.57,10.96,0.19,0.19,1.21
1976,1.27,-1.57,10.96,0.18,0.18,1.22
1981,1.27,-1.57,10.96,0.15,0.16,1.23
1987,1.27,-1.57,10.96,0.14,0.16,1.25
1991,1.27,-1.57,10.96,0.16,0.20,1.27
1996,1.27,-1.57,10.96,0.14,0.25,1.27
2001,1.27,-1.57,10.96,0.15,0.30,1.24
2007,-0.61,1.19,9.46,0.15,0.30,1.24
2011,-0.61,1.19,9.46,0.17,0.35,1.19
2016,-0.61,1.19,9.46,0.18,0.35,1.20
2021,-0.61,1.19,9.46,0.14,0.33,1.21
2026,-0.61,1.19,9.46,0.10,0.33,1.20
2031,-0.61,1.19,9.46,0.05,0.31,1.15
2036,-0.61,1.19,9.46,0.04,0.27,1.11
2042,-1.91,1.15,9.73,0.04,0.27,1.11
2046,-1.91,1.15,9.73,0.04,0.32,1.05
2051,-1.91,1.15,9.73,0.04,0.36,0.99
2057,-1.91,1.15,9.73,0.03,0.36,0.89
2061,-1.91,1.15,9.73,-0.00,0.35,0.82
2066,-1.91,1.15,9.73,-0.04,0.34,0.78
2071,-1.91,1.15,9.73,-0.08,0.29,0.76
2077,0.84,1.07,10.31,-0.08,0.29,0.76
2081,0.84,1.07,10.31,-0.13,0.24,0.71
2086,0.84,1.07,10.31,-0.13,0.29,0.69
2092,0.84,1.07,10.31,-0.15,0.31,0.63
2096,0.84,1.07,10.31,-0.15,0.36,0.58
2101,0.84,1.07,10.31,-0.11,0.43,0.55
2106,0.84,1.07,10.31,-0.08,0.46,0.48
2111,0.84,1.07,10.31,-0.09,0.42,0.37
2115,-7.93,2.26,2.76,-0.09,0.42,0.37
2121,-7.93,2.26,2.76,-0.20,0.20,0.15
2126,-7.93,2.26,2.76,-0.33,-0.04,0.10
2131,-7.93,2.26,2.76,-0.45,-0.22,0.15
2136,-7.93,2.26,2.76,-0.53,-0.27,0.26
2141,-7.93,2.26,2.76,-0.48,-0.25,0.38
2147,0.27,2.34,15.90,-0.48,-0.25,0.38
2151,0.27,2.34,15.90,-0.25,0.30,0.46
2156,0.27,2.34,15.90,-0.10,0.58,0.44
2161,0.27,2.34,15.90,0.04,0.83,0.46
2166,0.27,2.34,15.90,0.19,0.97,0.50
2171,0.27,2.34,15.90,0.23,0.96,0.58
2176,0.27,2.34,15.90,0.23,0.83,0.67
2181,0.27,2.34,15.90,0.13,0.66,0.71
2186,0.27,2.34,15.90,-0.00,0.47,0.69
2191,0.27,2.34,15.90,-0.16,0.26,0.57
2196,-3.26,4.29,8.16,-0.16,0.26,0.57
2201,-3.26,4.29,8.16,-0.36,0.01,0.25
2206,-3.26,4.29,8.16,-0.40,-0.11,0.16
2211,-3.26,4.29,8.16,-0.39,-0.18,0.18
2216,-3.26,4.29,8.16,-0.35,-0.23,0.24
2221,-3.26,4.29,8.16,-0.30,-0.26,0.34
2226,-3.26,4.29,8.16,-0.23,-0.22,0.43
2232,1.38,-3.68,11.07,-0.23,-0.22,0.43
2236,1.38,-3.68,11.07,-0.06,-0.04,0.61
2241,1.38,-3.68,11.07,0.01,0.09,0.68
2246,1.38,-3.68,11.07,0.04,0.25,0.74
2251,1.38,-3.68,11.07,0.07,0.31,0.78
2256,1.38,-3.68,11.07,0.09,0.36,0.80
2261,1.38,-3.68,11.07,0.09,0.42,0.84
2266,1.72,-1.80,9.27,0.09,0.42,0.84
2271,1.72,-1.80,9.27,0.06,0.36,0.91
2276,1.72,-1.80,9.27,0.07,0.32,0.95
2281,1.72,-1.80,9.27,0.08,0.27,0.99
2286,1.72,-1.80,9.27,0.06,0.22,1.02
2291,1.72,-1.80,9.27,0.06,0.16,1.06
2296,1.72,-1.80,9.27,0.05,0.09,1.09
2302,0.69,-0.92,10.19,0.05,0.09,1.09
2306,0.69,-0.92,10.19,0.03,0.04,1.17
2311,0.69,-0.92,10.19,0.03,0.04,1.22
2316,0.69,-0.92,10.19,0.05,0.04,1.28
2321,0.69,-0.92,10.19,0.07,0.07,1.34
2327,0.69,-0.92,10.19,0.10,0.11,1.41
2331,0.69,-0.92,10.19,0.12,0.15,1.48
2337,4.94,-2.72,11.30,0.12,0.15,1.48
2341,4.94,-2.72,11.30,0.17,0.27,1.61
2346,4.94,-2.72,11.30,0.21,0.35,1.65
2351,4.94,-2.72,11.30,0.26,0.51,1.67
2356,4.94,-2.72,11.30,0.29,0.69,1.64
2361,4.94,-2.72,11.30,0.31,0.82,1.53
2366,4.94,-2.72,11.30,0.26,0.87,1.37
2370,-5.82,-2.14,12.14,0.26,0.87,1.37
2376,-5.82,-2.14,12.14,0.16,0.79,1.20
2381,-5.82,-2.14,12.14,-0.02,0.22,1.04
2386,-5.82,-2.14,12.14,-0.11,-0.09,1.08
2392,7.12,-2.22,8.58,-0.11,-0.09,1.08
2396,7.12,-2.22,8.58,-0.14,-0.36,1.18
2401,7.12,-2.22,8.58,-0.10,-0.28,1.17
2406,7.12,-2.22,8.58,-0.06,-0.08,1.11
2411,7.12,-2.22,8.58,-0.03,0.18,1.04
2416,7.12,-2.22,8.58,0.00,0.46,0.99
2422,7.12,-2.22,8.58,0.03,0.67,0.96
2426,7.12,-2.22,8.58,0.08,0.77,0.97
2431,7.12,-2.22,8.58,0.09,0.79,1.00
2436,7.12,-2.22,8.58,0.06,0.72,1.03
2441,7.12,-2.22,8.58,-0.01,0.61,1.00
2446,7.12,-2.22,8.58,-0.12,0.46,0.89
2451,7.12,-2.22,8.58,-0.24,0.32,0.73
2457,3.29,5.98,10.31,-0.24,0.32,0.73
2461,3.29,5.98,10.31,-0.39,0.16,0.51
2466,3.29,5.98,10.31,-0.38,0.18,0.54
2471,3.29,5.98,10.31,-0.33,0.25,0.61
2476,3.29,5.98,10.31,-0.27,0.34,0.69
2481,3.29,5.98,10.31,-0.23,0.43,0.72
2486,3.29,5.98,10.31,-0.19,0.50,0.71
2492,1.19,2.41,10.42,-0.19,0.50,0.71
2496,1.19,2.41,10.42,-0.19,0.51,0.63
2501,1.19,2.41,10.42,-0.24,0.51,0.55
2506,1.19,2.41,10.42,-0.29,0.47,0.47
2512,-0.57,4.94,6.79,-0.29,0.47,0.47
2516,-0.57,4.94,6.79,-0.38,0.42,0.29
2521,-0.57,4.94,6.79,-0.41,0.40,0.20
2527,-3.14,4.83,6.82,-0.41,0.40,0.20
2531,-3.14,4.83,6.82,-0.54,0.34,-0.02
2536,-3.14,4.83,6.82,-0.58,0.27,-0.12
2541,-3.14,4.83,6.82,-0.60,0.24,-0.21
2547,0.69,-0.11,8.39,-0.60,0.24,-0.21
2551,0.69,-0.11,8.39,-0.59,0.10,-0.25
2556,0.69,-0.11,8.39,-0.59,0.09,-0.23
2562,1.27,2.14,10.23,-0.59,0.09,-0.23
2566,1.27,2.14,10.23,-0.57,0.14,-0.25
2571,1.27,2.14,10.23,-0.55,0.21,-0.25
2576,1.27,2.14,10.23,-0.51,0.33,-0.25
2582,-0.57,1.61,9.96,-0.51,0.33,-0.25
2586,-0.57,1.61,9.96,-0.44,0.50,-0.22
2591,-0.57,1.61,9.96,-0.40,0.52,-0.19
2597,-1.49,3.75,8.42,-0.40,0.52,-0.19
2601,-1.49,3.75,8.42,-0.43,0.49,-0.16
2606,-1.49,3.75,8.42,-0.44,0.43,-0.16
2610,-1.49,3.75,8.42,-0.40,0.36,-0.18
2615,-0.19,5.71,9.93,-0.40,0.36,-0.18
2621,-0.19,5.71,9.93,-0.58,0.33,-0.18
2626,-0.19,5.71,9.93,-0.56,0.23,-0.18
2632,-0.27,2.30,9.69,-0.56,0.23,-0.18
2636,-0.27,2.30,9.69,-0.54,0.10,-0.08
2641,-0.27,2.30,9.69,-0.49,0.09,-0.00
2646,-0.27,2.30,9.69,-0.45,0.12,0.06
2652,1.15,1.49,8.50,-0.45,0.12,0.06
2656,1.15,1.49,8.50,-0.41,0.13,0.13
2661,1.15,1.49,8.50,-0.43,0.13,0.15
2666,-0.08,0.61,8.66,-0.43,0.13,0.15
2671,-0.08,0.61,8.66,-0.44,0.13,0.14
2676,-0.08,0.61,8.66,-0.43,0.13,0.13
2682,-0.08,0.61,8.66,-0.41,0.11,0.16
2686,-0.08,0.61,8.66,-0.39,0.10,0.19
2691,-0.08,0.61,8.66,-0.39,0.07,0.20
2696,-0.08,0.61,8.66,-0.38,0.02,0.18
2701,2.14,-1.80,10.49,-0.38,0.02,0.18
2706,2.14,-1.80,10.49,-0.43,-0.05,0.18
2711,2.14,-1.80,10.49,-0.42,-0.05,0.21
2716,2.49,-0.61,11.96,-0.42,-0.05,0.21
2721,2.49,-0.61,11.96,-0.36,0.06,0.31
2726,2.49,-0.61,11.96,-0.30,0.17,0.38
2731,2.49,-0.61,11.96,-0.24,0.28,0.44
2737,0.11,-1.88,10.00,-0.24,0.28,0.44
2741,0.11,-1.88,10.00,-0.19,0.38,0.46
2746,0.11,-1.88,10.00,-0.18,0.35,0.45
2752,-0.38,-0.61,8.96,-0.18,0.35,0.45
2756,-0.38,-0.61,8.96,-0.17,0.24,0.50
2761,-0.38,-0.61,8.96,-0.22,0.17,0.49
2766,-0.38,-0.61,8.96,-0.27,0.11,0.44
2772,0.04,0.27,9.16,-0.27,0.11,0.44
2776,0.04,0.27,9.16,-0.35,0.06,0.31
2781,0.04,0.27,9.16,-0.35,0.05,0.31
2786,1.38,-0.57,10.07,-0.35,0.05,0.31
2791,1.38,-0.57,10.07,-0.33,0.03,0.37
2796,1.38,-0.57,10.07,-0.30,0.05,0.37
2801,1.38,-0.57,10.07,-0.28,0.10,0.34
2806,-0.04,-0.08,10.03,-0.28,0.10,0.34
2811,-0.04,-0.08,10.03,-0.24,0.20,0.31
2816,-0.04,-0.08,10.03,-0.25,0.23,0.32
2822,-0.27,0.57,9.58,-0.25,0.23,0.32
2826,-0.27,0.57,9.58,-0.26,0.19,0.31
2831,-0.27,0.57,9.58,-0.28,0.16,0.29
2836,-0.27,0.57,9.58,-0.30,0.13,0.26
2842,-1.88,1.49,7.74,-0.30,0.13,0.26
2846,-1.88,1.49,7.74,-0.35,0.12,0.17
2851,-1.88,1.49,7.74,-0.37,0.09,0.12
2856,-2.07,0.65,8.16,-0.37,0.09,0.12
2861,-2.07,0.65,8.16,-0.37,0.11,0.10
2866,-2.07,0.65,8.16,-0.35,0.14,0.08
2872,-2.07,0.65,8.16,-0.36,0.16,0.04
2876,-2.07,0.65,8.16,-0.37,0.15,0.02
2881,-2.07,0.65,8.16,-0.36,0.12,0.03
2886,-2.07,0.65,8.16,-0.40,0.08,0.06
2891,7.09,-0.50,16.25,-0.40,0.08,0.06
2896,7.09,-0.50,16.25,-0.48,-0.01,0.10
2901,7.09,-0.50,16.25,-0.45,0.08,0.18
2907,7.09,-0.50,16.25,-0.41,0.23,0.27
2911,7.09,-0.50,16.25,-0.34,0.42,0.33
2916,7.09,-0.50,16.25,-0.23,0.60,0.33
2921,7.09,-0.50,16.25,-0.15,0.76,0.32
2927,-1.15,0.50,11.22,-0.15,0.76,0.32
2931,-1.15,0.50,11.22,-0.13,0.83,0.24
2936,-1.15,0.50,11.22,-0.20,0.71,0.19
2941,-1.15,0.50,11.22,-0.22,0.57,0.13
2946,-1.15,0.50,11.22,-0.26,0.46,0.04
2951,-1.15,0.50,11.22,-0.34,0.32,-0.09
2956,-1.15,0.50,11.22,-0.41,0.22,-0.24
2961,-4.10,3.98,8.70,-0.41,0.22,-0.24
2966,-4.10,3.98,8.70,-0.55,0.17,-0.54
2971,-4.10,3.98,8.70,-0.58,0.11,-0.64
2977,-2.22,0.08,8.08,-0.58,0.11,-0.64
2981,-2.22,0.08,8.08,-0.58,0.05,-0.73
2986,-2.22,0.08,8.08,-0.54,0.03,-0.74
2991,-2.22,0.08,8.08,-0.52,0.06,-0.72
2997,-3.26,-1.07,10.19,-0.52,0.06,-0.72
3001,-3.26,-1.07,10.19,-0.36,0.21,-0.66
3006,-3.26,-1.07,10.19,-0.32,0.32,-0.66
3012,-5.90,2.26,6.36,-0.32,0.32,-0.66
3016,-5.90,2.26,6.36,-0.23,0.52,-0.67
3021,-5.90,2.26,6.36,-0.23,0.54,-0.68
3026,-5.90,2.26,6.36,-0.26,0.50,-0.67
3030,-1.65,2.26,4.64,-0.26,0.50,-0.67
3036,-1.65,2.26,4.64,-0.28,0.38,-0.66
3041,-1.65,2.26,4.64,-0.37,0.04,-0.61
3047,2.26,0.80,13.18,-0.37,0.04,-0.61
3051,2.26,0.80,13.18,-0.41,-0.14,-0.47
3056,2.26,0.80,13.18,-0.37,-0.10,-0.40
3061,2.26,0.80,13.18,-0.32,0.02,-0.32
3067,0.19,-1.34,14.06,-0.32,0.02,-0.32
3071,0.19,-1.34,14.06,-0.10,0.38,-0.14
3076,0.19,-1.34,14.06,-0.00,0.51,-0.02
3081,-1.88,-1.30,7.12,-0.00,0.51,-0.02
3086,-1.88,-1.30,7.12,0.12,0.59,0.17
3091,-1.88,-1.30,7.12,0.10,0.52,0.21
3096,-1.88,-1.30,7.12,0.05,0.38,0.20
3101,-0.92,-1.27,5.32,0.05,0.38,0.20
3106,-0.92,-1.27,5.32,-0.02,0.12,0.16
3111,-0.92,-1.27,5.32,-0.04,0.05,0.14
3117,-5.90,-0.61,8.12,-0.04,0.05,0.14
3121,-5.90,-0.61,8.12,-0.03,0.12,0.11
3126,-5.90,-0.61,8.12,-0.04,0.17,0.08
3132,-5.90,-0.61,8.12,-0.04,0.15,0.05
3136,-5.90,-0.61,8.12,-0.06,0.08,0.05
3141,-5.90,-0.61,8.12,-0.05,-0.04,0.10
3146,-5.90,-0.61,8.12,-0.04,-0.20,0.18
3152,3.56,-4.25,10.95,-0.04,-0.20,0.18
3156,3.56,-4.25,10.95,-0.02,-0.29,0.32
3161,3.56,-4.25,10.95,0.04,-0.21,0.37
3166,3.56,-4.25,10.95,0.09,-0.10,0.42
3172,2.72,-3.18,10.69,0.09,-0.10,0.42
3176,2.72,-3.18,10.69,0.17,0.08,0.50
3181,2.72,-3.18,10.69,0.17,0.09,0.52
3187,2.53,-1.95,11.60,0.17,0.09,0.52
3191,2.53,-1.95,11.60,0.18,0.09,0.56
3196,2.53,-1.95,11.60,0.17,0.11,0.56
3202,3.07,-0.92,10.39,0.17,0.11,0.56
3206,3.07,-0.92,10.39,0.14,0.09,0.53
3211,3.07,-0.92,10.39,0.11,0.06,0.50
3216,3.07,-0.92,10.39,0.06,-0.00,0.48
3221,-1.53,0.80,9.50,0.06,-0.00,0.48
3226,-1.53,0.80,9.50,0.04,0.03,0.45
3231,-1.53,0.80,9.50,0.01,0.02,0.39
3237,0.30,-1.07,11.49,0.01,0.02,0.39
3241,0.30,-1.07,11.49,-0.02,-0.10,0.33
3246,0.30,-1.07,11.49,-0.03,-0.19,0.37
3251,0.30,-1.07,11.49,-0.03,-0.26,0.40
3257,3.64,-1.27,8.20,-0.03,-0.26,0.40
3261,3.64,-1.27,8.20,0.00,-0.18,0.43
3266,3.64,-1.27,8.20,0.04,-0.06,0.41
3272,3.64,-1.27,8.20,0.08,0.11,0.41
3276,3.64,-1.27,8.20,0.08,0.24,0.40
3281,3.64,-1.27,8.20,0.09,0.36,0.37
3286,3.64,-1.27,8.20,0.08,0.42,0.33
3292,-5.59,0.23,10.23,0.08,0.42,0.33
3296,-5.59,0.23,10.23,0.03,0.28,0.25
3301,-5.59,0.23,10.23,0.01,0.11,0.23
3306,-5.59,0.23,10.23,-0.03,-0.07,0.22
3311,-5.59,0.23,10.23,-0.06,-0.21,0.21
3316,-5.59,0.23,10.23,-0.10,-0.27,0.21
3321,-5.59,0.23,10.23,-0.10,-0.19,0.20
3327,-1.49,0.73,10.54,-0.10,-0.19,0.20
3331,-1.49,0.73,10.54,-0.01,0.18,0.24
3336,-1.49,0.73,10.54,0.05,0.37,0.28
3341,-6.89,1.00,6.13,0.05,0.37,0.28
3346,-6.89,1.00,6.13,0.11,0.56,0.29
3351,-6.89,1.00,6.13,0.10,0.49,0.28
3357,-5.86,3.26,1.95,0.10,0.49,0.28
3361,-5.86,3.26,1.95,0.00,0.19,0.20
3366,-5.86,3.26,1.95,-0.09,0.02,0.13
3371,-5.86,3.26,1.95,-0.16,-0.16,0.07
3377,-3.45,3.18,7.36,-0.16,-0.16,0.07
3381,-3.45,3.18,7.36,-0.31,-0.35,-0.01
3386,-3.45,3.18,7.36,-0.33,-0.40,-0.01
3392,-3.45,3.18,7.36,-0.32,-0.41,0.03
3396,-3.45,3.18,7.36,-0.29,-0.36,0.08
3401,-3.45,3.18,7.36,-0.29,-0.27,0.12
3406,-3.45,3.18,7.36,-0.22,-0.22,0.15
3412,-3.45,3.18,7.36,-0.18,-0.16,0.19
3416,-3.45,3.18,7.36,-0.15,-0.08,0.25
3421,-3.45,3.18,7.36,-0.13,-0.04,0.31
3426,0.61,0.46,10.35,-0.13,-0.04,0.31
3432,-0.30,0.30,10.65,-0.13,-0.04,0.31
3436,-0.30,0.30,10.65,-0.20,0.00,0.28
3441,-0.30,0.30,10.65,-0.21,0.01,0.25
3447,-0.15,-1.99,12.57,-0.21,0.01,0.25
3451,-0.15,-1.99,12.57,-0.23,0.04,0.21
3456,-0.15,-1.99,12.57,-0.22,0.01,0.21
3462,2.41,-2.38,15.02,-0.22,0.01,0.21
3466,2.41,-2.38,15.02,-0.22,-0.00,0.17
3471,2.41,-2.38,15.02,-0.21,0.04,0.14
3477,2.41,-2.38,15.02,-0.16,0.08,0.12
3481,2.41,-2.38,15.02,-0.15,0.11,0.11
3486,2.41,-2.38,15.02,-0.14,0.17,0.09
3491,2.41,-2.38,15.02,-0.13,0.21,0.04
3497,-0.92,0.69,7.93,-0.13,0.21,0.04
3501,-0.92,0.69,7.93,-0.12,0.18,-0.06
3506,-0.92,0.69,7.93,-0.16,0.13,-0.09
3511,-0.92,0.69,7.93,-0.20,0.05,-0.13
3516,-0.92,0.69,7.93,-0.23,-0.04,-0.16
3521,-0.92,0.69,7.93,-0.25,-0.13,-0.20
3526,-0.92,0.69,7.93,-0.28,-0.17,-0.23
3531,-0.92,0.69,7.93,-0.30,-0.13,-0.28
3536,-0.92,0.69,7.93,-0.29,-0.06,-0.31
3541,-0.92,0.69,7.93,-0.29,0.05,-0.31
3546,-0.92,0.69,7.93,-0.28,0.10,-0.29
3551,-1.99,2.64,8.35,-0.28,0.10,-0.29
3556,-1.99,2.64,8.35,-0.28,-0.01,-0.27
3561,-1.99,2.64,8.35,-0.29,-0.15,-0.27
3566,4.25,-0.84,9.58,-0.29,-0.15,-0.27
3571,4.25,-0.84,9.58,-0.30,-0.46,-0.16
3576,4.25,-0.84,9.58,-0.31,-0.51,-0.10
3581,3.91,-0.42,8.70,-0.31,-0.51,-0.10
3586,3.91,-0.42,8.70,-0.24,-0.36,-0.04
3591,3.91,-0.42,8.70,-0.19,-0.20,-0.04
3596,3.91,-0.42,8.70,-0.16,0.01,-0.04
3601,-1.88,0.69,6.89,-0.16,0.01,-0.04
3606,-1.88,0.69,6.89,-0.12,0.24,-0.03
3611,-1.88,0.69,6.89,-0.12,0.21,-0.06
3616,-1.11,-1.00,7.39,-0.12,0.21,-0.06
3621,-1.11,-1.00,7.39,-0.17,0.05,-0.10
3626,-1.11,-1.00,7.39,-0.18,-0.07,-0.10
3631,-1.11,-1.00,7.39,-0.21,-0.14,-0.10
3636,1.61,-0.23,9.27,-0.21,-0.14,-0.10
3641,1.61,-0.23,9.27,-0.23,-0.09,-0.11
3646,1.61,-0.23,9.27,-0.22,0.00,-0.11
3651,1.61,-0.23,9.27,-0.18,0.09,-0.08
3656,1.61,-0.23,9.27,-0.14,0.17,-0.04
3661,1.61,-0.23,9.27,-0.11,0.23,0.02
3666,1.61,-0.23,9.27,-0.08,0.29,0.06
3671,1.61,-0.23,9.27,-0.03,0.34,0.08
3676,1.61,-0.23,9.27,-0.02,0.36,0.09
3681,1.61,-0.23,9.27,-0.01,0.33,0.10
3686,-2.76,-1.19,10.92,-0.01,0.33,0.10
3691,-2.76,-1.19,10.92,0.01,0.21,0.15
3696,-2.76,-1.19,10.92,-0.01,0.16,0.18
3701,-2.76,-1.19,10.92,-0.02,0.13,0.19
3706,-2.76,-1.19,10.92,-0.04,0.12,0.17
3711,-2.76,-1.19,10.92,-0.08,0.11,0.14
3716,-2.76,-1.19,10.92,-0.12,0.04,0.11
3721,1.23,-0.84,10.27,-0.12,0.04,0.11
3726,1.23,-0.84,10.27,-0.15,-0.21,0.07
3731,1.23,-0.84,10.27,-0.18,-0.30,0.09
3736,1.23,-0.84,10.27,-0.15,-0.33,0.10
3741,1.23,-0.84,10.27,-0.13,-0.32,0.11
3746,1.23,-0.84,10.27,-0.11,-0.25,0.08
3751,1.23,-0.84,10.27,-0.10,-0.16,0.04
3756,2.72,-1.27,15.14,-0.10,-0.16,0.04
3761,2.72,-1.27,15.14,-0.09,-0.00,-0.02
3766,2.72,-1.27,15.14,-0.09,0.08,-0.02
3771,2.72,-1.27,15.14,-0.07,0.12,-0.02
3776,2.72,-1.27,15.14,-0.08,0.17,-0.04
3781,2.72,-1.27,15.14,-0.07,0.20,-0.08
3786,2.72,-1.27,15.14,-0.09,0.18,-0.12
3791,2.72,-1.27,15.14,-0.09,0.11,-0.13
3796,2.72,-1.27,15.14,-0.09,0.07,-0.15
3801,2.72,-1.27,15.14,-0.08,0.03,-0.17
3806,2.72,-1.27,15.14,-0.06,0.02,-0.18
3811,-3.29,0.38,8.23,-0.06,0.02,-0.18
3816,-3.29,0.38,8.23,-0.02,0.13,-0.16
3821,-3.29,0.38,8.23,0.01,0.17,-0.16
3826,-4.25,0.27,6.55,0.01,0.17,-0.16
3831,-4.25,0.27,6.55,0.03,0.16,-0.15
3836,-4.25,0.27,6.55,0.00,0.09,-0.15
3841,1.76,-1.49,5.90,0.00,0.09,-0.15
3846,1.76,-1.49,5.90,-0.00,-0.21,-0.03
3851,1.76,-1.49,5.90,-0.00,-0.29,0.02
3856,1.76,-1.49,5.90,0.03,-0.29,0.06
3861,-2.99,-0.50,9.81,0.03,-0.29,0.06
3866,-2.99,-0.50,9.81,0.07,-0.10,0.14
3871,-2.99,-0.50,9.81,0.09,0.03,0.17
3876,-5.25,-1.04,9.65,0.09,0.03,0.17
3881,-5.25,-1.04,9.65,0.11,0.17,0.21
3886,-5.25,-1.04,9.65,0.15,0.15,0.22
3891,-5.25,-1.04,9.65,0.13,0.09,0.21
3896,-5.25,-1.04,9.65,0.12,-0.02,0.23
3901,-5.25,-1.04,9.65,0.10,-0.14,0.26
3906,-5.25,-1.04,9.65,-0.02,-0.20,0.28
3911,-5.25,-1.04,9.65,-0.05,-0.21,0.27
3916,-5.25,-1.04,9.65,-0.05,-0.16,0.21
3921,-5.25,-1.04,9.65,0.05,0.00,0.18
3926,-5.25,-1.04,9.65,0.17,0.24,0.19
3931,-5.25,-1.04,9.65,0.29,0.47,0.27
3936,-5.25,-1.04,9.65,0.36,0.59,0.37
3941,-5.25,-1.04,9.65,0.34,0.58,0.42
3946,-2.53,1.15,5.18,0.34,0.58,0.42
3951,-2.53,1.15,5.18,0.15,0.15,0.27
3956,-2.53,1.15,5.18,0.10,-0.17,0.16
3961,-2.53,1.15,5.18,0.07,-0.40,0.15
3966,-2.53,1.15,5.18,0.06,-0.50,0.22
3971,-2.53,1.15,5.18,0.04,-0.51,0.31
3976,-2.53,1.15,5.18,0.02,-0.43,0.33
3981,-2.53,1.15,5.18,0.01,-0.27,0.27
3985,-0.30,-1.07,12.34,0.01,-0.27,0.27
3991,-0.30,-1.07,12.34,0.03,0.02,0.14
3996,-0.30,-1.07,12.34,0.10,0.09,0.18
4001,-0.30,-1.07,12.34,0.09,0.08,0.26
4005,3.75,-0.04,8.43,0.09,0.08,0.26
4011,3.75,-0.04,8.43,0.04,-0.12,0.29
4016,4.18,0.50,10.00,0.04,-0.12,0.29
4021,4.18,0.50,10.00,-0.00,-0.21,0.18
4026,4.18,0.50,10.00,0.01,-0.17,0.20
4031,4.18,0.50,10.00,0.02,-0.11,0.26
4036,4.18,0.50,10.00,0.03,-0.06,0.31
4041,4.18,0.50,10.00,0.03,-0.01,0.29
4046,4.18,0.50,10.00,0.01,0.03,0.24
4051,4.18,0.50,10.00,-0.01,0.03,0.20
4056,4.18,0.50,10.00,-0.00,0.01,0.21
4061,4.18,0.50,10.00,0.00,0.00,0.21
4066,4.18,0.50,10.00,-0.03,-0.04,0.21
4071,3.98,-0.46,9.35,-0.03,-0.04,0.21
4076,3.98,-0.46,9.35,-0.04,-0.13,0.15
4081,3.98,-0.46,9.35,-0.06,-0.10,0.12
4086,3.98,-0.46,9.35,-0.04,-0.02,0.09
4091,3.98,-0.46,9.35,-0.04,0.08,0.08
4096,3.98,-0.46,9.35,-0.01,0.15,0.07
4101,3.98,-0.46,9.35,-0.02,0.17,0.04
4106,3.98,-0.46,9.35,-0.04,0.12,0.01
4110,-1.88,-1.19,7.27,-0.04,0.12,0.01
4116,-1.88,-1.19,7.27,-0.06,-0.08,-0.08
4121,-0.04,-0.80,7.89,-0.06,-0.08,-0.08
4126,-0.04,-0.80,7.89,-0.05,-0.23,-0.06
4131,-2.22,0.34,11.60,-0.05,-0.23,-0.06
4136,-2.22,0.34,11.60,-0.04,-0.11,-0.09
4141,-2.22,0.34,11.60,-0.04,-0.02,-0.11
4146,-2.22,0.34,11.60,-0.03,0.04,-0.11
4151,-2.22,0.34,11.60,-0.03,0.12,-0.12
4156,-2.22,0.34,11.60,-0.00,0.14,-0.11
4161,-2.22,0.34,11.60,0.02,0.12,-0.09
4166,-2.22,0.34,11.60,0.02,0.07,-0.07
4171,-2.22,0.34,11.60,0.02,0.05,-0.04
4176,-2.22,0.34,11.60,0.02,0.03,-0.01
4181,-2.22,0.34,11.60,0.00,0.06,0.01
4186,-2.22,0.34,11.60,-0.02,0.07,0.01
4191,-2.22,0.34,11.60,-0.04,0.10,-0.01
4196,-2.22,0.34,11.60,-0.02,0.22,-0.03
4201,-2.22,0.34,11.60,-0.01,0.36,-0.04
4206,-2.22,0.34,11.60,-0.02,0.36,-0.02
4211,-2.22,0.34,11.60,-0.04,0.22,0.05
4216,-2.22,0.34,11.60,-0.08,0.04,0.11
4222,-2.22,0.34,11.60,-0.11,-0.07,0.13
4226,-2.22,0.34,11.60,-0.12,-0.15,0.11
4231,-4.33,-0.80,10.11,-0.12,-0.15,0.11
4236,-0.23,-1.49,10.11,-0.12,-0.15,0.11
4241,-0.23,-1.49,10.11,-0.14,-0.26,0.13
4246,2.41,-0.54,10.77,-0.14,-0.26,0.13
4251,0.27,0.08,10.65,-0.14,-0.26,0.13
4256,0.84,0.19,10.00,-0.14,-0.26,0.13
4261,0.84,0.19,10.00,-0.10,-0.08,0.03
4266,0.84,0.19,10.00,-0.07,0.10,0.04
4271,0.84,0.19,10.00,-0.09,0.27,0.06
4276,0.84,0.19,10.00,-0.07,0.38,0.04
4281,-0.61,-0.15,11.22,-0.07,0.38,0.04
4285,0.77,-0.42,9.85,-0.07,0.38,0.04
4291,0.77,-0.42,9.85,-0.09,0.20,0.02
4296,0.77,-0.42,9.85,-0.09,0.10,-0.00
4301,-1.30,1.00,8.50,-0.09,0.10,-0.00
4305,-2.49,1.11,7.43,-0.09,0.10,-0.00
4311,-2.49,1.11,7.43,-0.06,0.01,0.03
4316,-2.49,1.11,7.43,-0.08,0.01,0.03
4321,-0.08,0.88,8.62,-0.08,0.01,0.03
4326,-2.26,1.68,9.34,-0.08,0.01,0.03
4331,-2.26,1.68,9.34,-0.15,-0.11,-0.09
4336,-2.26,1.68,9.34,-0.15,-0.17,-0.11
4341,-2.26,1.68,9.34,-0.14,-0.26,-0.07
4346,-2.26,1.68,9.34,-0.15,-0.30,-0.03
4351,1.95,-0.92,11.19,-0.15,-0.30,-0.03
4355,0.80,-0.88,11.84,-0.15,-0.30,-0.03
4361,0.80,-0.88,11.84,-0.09,-0.01,-0.05
4366,0.80,-0.88,11.84,-0.09,0.12,-0.08
4371,0.19,-0.77,10.99,-0.09,0.12,-0.08
4376,0.15,-0.30,10.92,-0.09,0.12,-0.08
4381,0.15,-0.30,10.92,-0.06,0.17,-0.07
4386,0.15,-0.30,10.92,-0.07,0.13,-0.08
4391,0.15,-0.30,10.92,-0.07,0.07,-0.10
4396,0.15,-0.30,10.92,-0.06,0.04,-0.13
4401,0.15,-0.30,10.92,-0.07,0.02,-0.13
4406,0.27,-1.38,7.36,-0.07,0.02,-0.13
4411,-1.07,0.08,8.04,-0.07,0.02,-0.13
4416,-1.07,0.08,8.04,-0.06,-0.10,-0.07
4421,-0.19,0.88,10.65,-0.06,-0.10,-0.07
4425,0.11,0.08,10.49,-0.06,-0.10,-0.07
4432,0.11,0.08,10.49,-0.05,-0.05,-0.06
4436,3.10,-0.69,8.92,-0.05,-0.05,-0.06
4440,3.33,-1.34,9.08,-0.05,-0.05,-0.06
4446,3.33,-1.34,9.08,-0.04,-0.05,-0.02
4451,3.33,-1.34,9.08,-0.02,-0.03,0.00
4456,3.33,-1.34,9.08,-0.02,0.03,0.01
4461,-3.68,0.30,6.85,-0.02,0.03,0.01
4466,-1.46,-0.34,9.69,-0.02,0.03,0.01
4471,-1.53,-0.11,10.07,-0.02,0.03,0.01
4476,-1.53,-0.11,10.07,0.00,0.16,0.02
4481,-1.53,-0.11,10.07,-0.02,0.11,0.02
4486,-1.53,-0.11,10.07,-0.03,0.05,0.03
4491,-0.34,-0.04,8.89,-0.03,0.05,0.03
4496,-0.80,-0.08,8.93,-0.03,0.05,0.03
4501,-0.80,-0.08,8.93,-0.04,-0.05,0.08
4506,1.65,-0.92,9.88,-0.04,-0.05,0.08
4510,1.00,-1.46,10.53,-0.04,-0.05,0.08
4516,1.00,-1.46,10.53,-0.02,-0.03,0.15
4521,1.00,-1.46,10.53,-0.00,0.01,0.17
4526,-4.60,0.00,8.50,-0.00,0.01,0.17
4531,-6.59,1.15,5.75,-0.00,0.01,0.17
4536,-6.59,1.15,5.75,0.06,0.22,0.16
4541,-2.95,-0.69,6.16,0.06,0.22,0.16
4546,-1.57,-0.46,6.86,0.06,0.22,0.16
4551,-0.42,-0.80,7.39,0.06,0.22,0.16
4556,-0.65,-1.11,8.88,0.06,0.22,0.16
4560,-0.19,-1.49,8.58,0.06,0.22,0.16
4566,-0.19,-1.49,8.58,-0.06,-0.29,0.08
4571,-0.19,-1.49,8.58,-0.06,-0.29,0.09
4576,-1.34,-1.72,9.39,-0.06,-0.29,0.09
4580,-1.57,-2.11,10.11,-0.06,-0.29,0.09
4586,-1.57,-2.11,10.11,-0.03,-0.04,0.10
4591,-1.57,-2.11,10.11,0.01,0.02,0.10
4596,-4.37,-0.96,9.61,0.01,0.02,0.10
4601,-0.08,-2.95,11.49,0.01,0.02,0.10
4606,-0.08,-2.95,11.49,0.07,0.08,0.16
4611,-0.08,-2.95,11.49,0.08,0.02,0.18
4616,-0.08,-2.95,11.49,0.09,-0.02,0.20
4621,-0.08,-2.95,11.49,0.09,-0.01,0.21
4626,-0.84,-1.80,11.00,0.09,-0.01,0.21
4630,-0.96,-1.68,11.07,0.09,-0.01,0.21
4636,-0.96,-1.68,11.07,0.11,0.01,0.28
4641,-0.96,-1.68,11.07,0.10,-0.01,0.27
4646,-1.38,-0.88,9.58,0.10,-0.01,0.27
4651,-1.11,-0.73,9.84,0.10,-0.01,0.27
4656,-0.61,-0.34,10.03,0.10,-0.01,0.27
4661,-5.36,0.38,5.29,0.10,-0.01,0.27
4665,-3.52,-0.42,4.94,0.10,-0.01,0.27
4671,-3.52,-0.42,4.94,0.08,0.02,0.24
4676,-3.52,-0.42,4.94,0.06,-0.02,0.23
4681,-3.41,-0.46,6.20,0.06,-0.02,0.23
4685,-1.27,-1.23,5.64,0.06,-0.02,0.23
4691,-1.27,-1.23,5.64,0.01,-0.23,0.20
4696,1.99,-0.57,9.69,0.01,-0.23,0.20
4701,1.99,0.11,10.80,0.01,-0.23,0.20
4706,3.37,-0.77,10.53,0.01,-0.23,0.20
4711,2.14,-1.61,11.41,0.01,-0.23,0.20
4716,2.14,-1.61,11.41,-0.03,-0.30,0.15
4721,2.14,-1.61,11.41,-0.03,-0.16,0.13
4726,2.14,-1.61,11.41,0.01,-0.02,0.13
4730,-0.15,-1.68,11.34,0.01,-0.02,0.13
4735,-0.15,-1.68,11.34,0.04,0.17,0.14
4741,-0.15,-1.68,11.34,0.04,0.16,0.14
4747,1.68,-0.77,11.72,0.04,0.16,0.14
4751,1.65,-1.15,11.68,0.04,0.16,0.14
4756,-0.23,-0.54,10.80,0.04,0.16,0.14
4761,-1.27,-1.15,10.00,0.04,0.16,0.14
4766,-1.46,-0.73,9.85,0.04,0.16,0.14
4771,0.19,-0.73,9.27,0.04,0.16,0.14
4776,1.99,-0.77,9.39,0.04,0.16,0.14
4781,0.46,-0.30,7.85,0.04,0.16,0.14
4786,-0.34,0.00,7.32,0.04,0.16,0.14
4791,0.57,0.04,7.28,0.04,0.16,0.14
4796,0.57,0.04,7.28,0.02,-0.05,0.08
4801,-1.23,0.42,7.47,0.02,-0.05,0.08
4806,-1.34,1.34,9.04,0.02,-0.05,0.08
4811,-0.38,0.80,10.19,0.02,-0.05,0.08
4816,0.38,0.57,12.61,0.02,-0.05,0.08
4820,1.95,-0.34,13.11,0.02,-0.05,0.08
4826,1.95,-0.34,13.11,-0.09,-0.12,-0.04
4831,1.95,-0.34,13.11,-0.09,-0.15,-0.05
4836,0.30,-0.73,10.46,-0.09,-0.15,-0.05
4840,0.30,-0.73,10.46,-0.00,-0.02,0.05
4846,1.95,-0.57,10.19,-0.00,-0.02,0.05
4851,1.95,-0.57,10.19,0.00,0.03,0.09
4856,-0.19,0.84,10.38,0.00,0.03,0.09
4861,-1.53,0.11,10.69,0.00,0.03,0.09
4866,-1.53,0.11,10.69,0.02,0.24,0.02
4871,-2.45,-0.23,8.74,0.02,0.24,0.02
4876,-2.03,0.08,7.05,0.02,0.24,0.02
4881,-2.03,0.00,6.09,0.02,0.24,0.02
4886,-1.61,1.27,5.48,0.02,0.24,0.02
4891,-1.95,2.41,6.32,0.02,0.24,0.02
4896,-1.91,1.95,6.71,0.02,0.24,0.02
4901,-1.91,1.95,6.71,-0.05,-0.15,0.05
4906,3.26,0.04,8.96,-0.05,-0.15,0.05
4911,4.86,-0.54,9.50,-0.05,-0.15,0.05
4916,3.14,-0.54,9.42,-0.05,-0.15,0.05
4921,-0.65,-0.50,9.85,-0.05,-0.15,0.05
4826,1.95,-0.34,13.11,-0.09,-0.12,-0.04
4831,1.95,-0.34,13.11,-0.09,-0.15,-0.05
4836,0.30,-0.73,10.46,-0.09,-0.15,-0.05
4840,0.30,-0.73,10.46,-0.00,-0.02,0.05
4846,1.95,-0.57,10.19,-0.00,-0.02,0.05
4851,1.95,-0.57,10.19,0.00,0.03,0.09
4856,-0.19,0.84,10.38,0.00,0.03,0.09
4861,-1.53,0.11,10.69,0.00,0.03,0.09
4866,-1.53,0.11,10.69,0.02,0.24,0.02
4871,-2.45,-0.23,8.74,0.02,0.24,0.02
4876,-2.03,0.08,7.05,0.02,0.24,0.02
4881,-2.03,0.00,6.09,0.02,0.24,0.02
4886,-1.61,1.27,5.48,0.02,0.24,0.02
4891,-1.95,2.41,6.32,0.02,0.24,0.02
4896,-1.91,1.95,6.71,0.02,0.24,0.02
4901,-1.91,1.95,6.71,-0.05,-0.15,0.05
