timestamp,accX,accY,accZ,gyroX,gyroY,gyroZ,magX,magY,magZ
Right Turn
378785765,2.76,1.38,8.54,-0.37,-0.04,-0.63,-2.50,-21.06,-38.31
378802797,2.76,1.38,8.54,-0.37,-0.06,-0.67,-2.50,-21.06,-38.31
378806187,2.76,1.38,8.54,-0.23,-0.01,-0.35,-2.50,-21.06,-38.31
378813382,0.65,-0.30,9.69,-0.23,-0.01,-0.35,-2.50,-21.06,-38.31
378825144,0.69,-0.38,10.34,-0.23,-0.01,-0.35,-2.50,-21.06,-38.31
378835509,1.30,-0.46,10.84,-0.23,-0.01,-0.35,-2.50,-21.06,-38.31
378844906,1.30,-0.46,10.84,-0.20,0.00,-0.37,-2.50,-21.06,-38.31
378854334,-0.42,0.27,7.89,-0.20,0.00,-0.37,-2.50,-21.06,-38.31
378864812,0.54,0.19,8.20,-0.20,0.00,-0.37,-2.50,-21.06,-38.31
378875067,0.54,0.19,8.20,-0.25,-0.03,-0.45,-2.50,-21.06,-38.31
378884916,0.54,0.19,8.20,-0.24,0.04,-0.46,-2.50,-21.06,-38.31
378894950,0.57,-0.92,9.08,-0.24,0.04,-0.46,-2.50,-21.06,-38.31
378905576,1.30,0.04,9.54,-0.24,0.04,-0.46,-2.50,-21.06,-38.31
378914915,1.30,0.04,9.54,-0.21,0.00,-0.47,-2.50,-21.06,-38.31
378924288,0.84,-1.19,9.96,-0.21,0.00,-0.47,-2.50,-21.06,-38.31
378935467,1.00,-1.42,10.27,-0.21,0.00,-0.47,-2.50,-21.06,-38.31
378945025,1.00,-1.42,10.27,-0.18,0.02,-0.47,-2.50,-21.06,-38.31
378955020,1.00,-1.42,10.27,-0.17,0.02,-0.46,-2.50,-21.06,-38.31
378964795,0.69,-0.73,9.31,-0.17,0.02,-0.46,-2.50,-21.06,-38.31
378976279,0.84,-0.61,9.77,-0.17,0.02,-0.46,-2.50,-21.06,-38.31
378985000,0.84,-0.61,9.77,-0.16,0.05,-0.41,-2.50,-21.06,-38.31
378993788,0.84,-0.61,9.77,-0.14,0.00,-0.40,-2.50,-21.06,-38.31
379005439,1.65,-1.07,10.11,-0.14,0.00,-0.40,-2.50,-21.06,-38.31
379013876,1.65,-1.07,10.11,-0.12,0.06,-0.37,-2.50,-21.06,-38.31
379023324,1.65,-1.07,10.11,-0.11,0.04,-0.35,-2.50,-21.06,-38.31
379034590,-0.04,-1.23,9.20,-0.11,0.04,-0.35,-2.50,-21.06,-38.31
379045775,-0.04,-1.23,9.20,-0.11,0.04,-0.35,-13.50,0.88,-46.69
379055047,-0.04,-1.23,9.20,-0.08,0.01,-0.31,-13.50,0.88,-46.69
379064969,0.46,-1.46,9.58,-0.08,0.01,-0.31,-13.50,0.88,-46.69
379075448,0.69,-1.49,9.23,-0.08,0.01,-0.31,-13.50,0.88,-46.69
379084953,0.69,-1.49,9.23,-0.06,0.00,-0.31,-13.50,0.88,-46.69
379094934,0.69,-1.49,9.23,-0.07,0.07,-0.33,-13.50,0.88,-46.69
379104533,2.30,-0.50,11.76,-0.07,0.07,-0.33,-13.50,0.88,-46.69
379115344,0.46,-1.65,9.69,-0.07,0.07,-0.33,-13.50,0.88,-46.69
379124916,0.46,-1.65,9.69,-0.10,0.06,-0.39,-13.50,0.88,-46.69
379134945,-0.96,-0.38,6.67,-0.10,0.06,-0.39,-13.50,0.88,-46.69
379145233,-0.77,-0.38,7.59,-0.10,0.06,-0.39,-13.50,0.88,-46.69
379154937,-0.77,-0.38,7.59,-0.13,-0.02,-0.45,-13.50,0.88,-46.69
379164332,-0.77,-0.38,7.59,-0.13,0.07,-0.44,-13.50,0.88,-46.69
379174902,1.15,-2.07,9.84,-0.13,0.07,-0.44,-13.50,0.88,-46.69
379185041,1.15,-2.07,9.84,-0.04,0.01,-0.40,-13.50,0.88,-46.69
379194970,1.15,-2.07,9.84,-0.07,0.18,-0.38,-13.50,0.88,-46.69
379204949,-1.23,-2.11,9.23,-0.07,0.18,-0.38,-13.50,0.88,-46.69
379215256,-1.27,-0.42,9.54,-0.07,0.18,-0.38,-13.50,0.88,-46.69
379224873,-1.27,-0.42,9.54,-0.07,0.10,-0.37,-13.50,0.88,-46.69
379234367,-1.27,-0.42,9.54,-0.06,0.02,-0.34,-13.50,0.88,-46.69
379245276,-1.34,-1.46,8.46,-0.06,0.02,-0.34,-13.50,0.88,-46.69
379254524,-1.34,-1.46,8.46,-0.02,0.06,-0.27,-13.50,0.88,-46.69
379265013,-1.34,-1.46,8.46,0.03,0.01,-0.23,-13.50,0.88,-46.69
379275004,-0.50,-0.30,9.27,0.03,0.01,-0.23,-13.50,0.88,-46.69
379285220,-0.42,-0.42,8.74,0.03,0.01,-0.23,-13.50,0.88,-46.69
379295022,-0.42,-0.42,8.74,0.01,0.03,-0.18,-13.50,0.88,-46.69
379304262,-0.46,-1.84,9.30,0.01,0.03,-0.18,-13.50,0.88,-46.69
379315257,0.54,-1.95,8.73,0.01,0.03,-0.18,-13.50,0.88,-46.69
379324914,0.54,-1.95,8.73,-0.00,0.02,-0.23,-13.50,0.88,-46.69
379334961,0.54,-1.95,8.73,-0.01,0.04,-0.24,-13.50,0.88,-46.69
379344797,1.00,-2.30,9.27,-0.01,0.04,-0.24,-13.50,0.88,-46.69
379355640,1.68,-2.22,10.07,-0.01,0.04,-0.24,-13.50,0.88,-46.69
379364956,1.68,-2.22,10.07,0.03,0.05,-0.20,-13.50,0.88,-46.69
379375007,0.54,-2.99,9.27,0.03,0.05,-0.20,-13.50,0.88,-46.69
379385342,0.57,-2.95,9.34,0.03,0.05,-0.20,-13.50,0.88,-46.69
379394940,0.57,-2.95,9.34,0.08,0.05,-0.10,-13.50,0.88,-46.69
379404934,0.57,-2.95,9.34,0.09,0.07,-0.05,-13.50,0.88,-46.69
379414614,0.11,-3.26,9.50,0.09,0.07,-0.05,-13.50,0.88,-46.69
379425234,-0.11,-4.45,9.69,0.09,0.07,-0.05,-13.50,0.88,-46.69
379434988,-0.11,-4.45,9.69,0.20,0.10,0.15,-13.50,0.88,-46.69
379444935,-1.91,-2.45,7.93,0.20,0.10,0.15,-13.50,0.88,-46.69
379455232,-1.76,-2.68,8.20,0.20,0.10,0.15,-13.50,0.88,-46.69
379464955,-1.76,-2.68,8.20,0.18,0.09,0.21,-13.50,0.88,-46.69
379474962,-1.76,-2.68,8.20,0.18,0.05,0.28,-13.50,0.88,-46.69
379484504,0.27,-2.80,10.41,0.18,0.05,0.28,-13.50,0.88,-46.69
379496028,0.84,-0.57,10.42,0.18,0.05,0.28,-13.50,0.88,-46.69
379504902,0.84,-0.57,10.42,0.24,0.01,0.45,-13.50,0.88,-46.69
379514940,-1.34,-1.15,8.12,0.24,0.01,0.45,-13.50,0.88,-46.69
379525202,-2.68,-1.72,6.05,0.24,0.01,0.45,-13.50,0.88,-46.69
379534932,-2.68,-1.72,6.05,0.12,-0.12,0.48,-13.50,0.88,-46.69
379544249,-2.68,-1.72,6.05,0.03,0.06,0.47,-13.50,0.88,-46.69
379554510,-0.42,-1.65,9.89,0.03,0.06,0.47,-13.50,0.88,-46.69
379565254,3.87,-0.08,11.76,0.03,0.06,0.47,-13.50,0.88,-46.69
379574999,3.87,-0.08,11.76,0.06,0.06,0.42,-13.50,0.88,-46.69
379585068,-0.96,-2.30,7.09,0.06,0.06,0.42,-13.50,0.88,-46.69
379595263,-0.42,-1.53,8.39,0.06,0.06,0.42,-13.50,0.88,-46.69
379604878,-0.42,-1.53,8.39,-0.04,-0.05,0.18,-13.50,0.88,-46.69
379614286,-0.42,-1.53,8.39,-0.10,-0.06,0.10,-13.50,0.88,-46.69
379624814,-0.15,-2.03,9.77,-0.10,-0.06,0.10,-13.50,0.88,-46.69
379634949,-0.15,-2.03,9.77,-0.09,-0.02,0.12,-13.50,0.88,-46.69
379645087,-0.15,-2.03,9.77,-0.05,-0.03,0.12,-13.50,0.88,-46.69
379654958,-0.77,-0.69,10.35,-0.05,-0.03,0.12,-13.50,0.88,-46.69
379665245,-0.96,-0.65,10.00,-0.05,-0.03,0.12,-13.50,0.88,-46.69
379674946,-0.96,-0.65,10.00,-0.10,0.02,0.04,-13.50,0.88,-46.69
379684254,-0.96,-0.65,10.00,-0.12,-0.02,-0.01,-13.50,0.88,-46.69
379694867,-0.73,-0.23,9.93,-0.12,-0.02,-0.01,-13.50,0.88,-46.69
379704995,-0.73,-0.23,9.93,-0.18,0.01,-0.08,-13.50,0.88,-46.69
379714991,-0.73,-0.23,9.93,-0.19,-0.01,-0.09,-13.50,0.88,-46.69
379724907,0.19,-0.61,10.19,-0.19,-0.01,-0.09,-13.50,0.88,-46.69
379735200,-0.34,-0.84,9.54,-0.19,-0.01,-0.09,-13.50,0.88,-46.69
379744951,-0.34,-0.84,9.54,-0.21,-0.00,-0.13,-13.50,0.88,-46.69
379754289,-0.34,-0.84,9.54,-0.20,-0.04,-0.13,-13.50,0.88,-46.69
379764828,0.77,-1.19,10.15,-0.20,-0.04,-0.13,-13.50,0.88,-46.69
379774963,0.77,-1.19,10.15,-0.23,-0.03,-0.15,-13.50,0.88,-46.69
379785055,0.77,-1.19,10.15,-0.21,-0.02,-0.13,-13.50,0.88,-46.69
379794700,0.88,-0.88,9.46,-0.21,-0.02,-0.13,-13.50,0.88,-46.69
379805238,1.49,-1.00,9.58,-0.21,-0.02,-0.13,-13.50,0.88,-46.69
379814932,1.49,-1.00,9.58,-0.22,-0.00,-0.13,-13.50,0.88,-46.69
379824939,1.49,-1.00,9.58,-0.23,0.02,-0.13,-13.50,0.88,-46.69
379835269,-0.34,-0.42,8.20,-0.23,0.02,-0.13,-13.50,0.88,-46.69
379844989,-0.34,-0.42,8.20,-0.24,-0.02,-0.17,-13.50,0.88,-46.69
379854931,-0.34,-0.42,8.20,-0.23,-0.04,-0.19,-13.50,0.88,-46.69
379864571,0.80,-0.73,9.88,-0.23,-0.04,-0.19,-13.50,0.88,-46.69
379876024,1.11,-1.23,10.54,-0.23,-0.04,-0.19,-13.50,0.88,-46.69
379884908,1.11,-1.23,10.54,-0.25,-0.01,-0.23,-13.50,0.88,-46.69
379897968,2.07,-1.61,11.00,-0.25,-0.01,-0.23,-13.50,0.88,-46.69
379905286,-0.04,-1.42,9.61,-0.25,-0.01,-0.23,-13.50,0.88,-46.69
379914902,-0.04,-1.42,9.61,-0.26,0.03,-0.27,-13.50,0.88,-46.69
379924268,-0.04,-1.42,9.61,-0.25,-0.04,-0.29,-13.50,0.88,-46.69
379934485,0.50,-0.80,9.00,-0.25,-0.04,-0.29,-13.50,0.88,-46.69
379945215,1.00,-0.84,8.58,-0.25,-0.04,-0.29,-13.50,0.88,-46.69
379954933,1.00,-0.84,8.58,-0.29,-0.04,-0.33,-13.50,0.88,-46.69
379964982,-0.11,-0.65,9.39,-0.29,-0.04,-0.33,-13.50,0.88,-46.69
379975269,-0.65,-1.19,9.46,-0.29,-0.04,-0.33,-13.50,0.88,-46.69
379985759,-0.65,-1.19,9.46,-0.28,-0.04,-0.35,-13.50,0.88,-46.69
379994286,-0.65,-1.19,9.46,-0.26,-0.04,-0.34,-13.50,0.88,-46.69
380004815,0.96,-1.68,10.23,-0.26,-0.04,-0.34,-13.50,0.88,-46.69
380014909,0.96,-1.68,10.23,-0.25,-0.03,-0.34,-13.50,0.88,-46.69
380024910,0.96,-1.68,10.23,-0.25,0.01,-0.36,-13.50,0.88,-46.69
380035021,0.54,-1.91,9.81,-0.25,0.01,-0.36,-13.50,0.88,-46.69
380045229,1.30,-1.38,10.04,-0.25,0.01,-0.36,-13.50,0.88,-46.69
380054914,1.30,-1.38,10.04,-0.28,0.03,-0.46,-13.50,0.88,-46.69
380064297,1.30,-1.38,10.04,-0.30,0.01,-0.50,-13.50,0.88,-46.69
380074229,0.65,-1.23,9.42,-0.30,0.01,-0.50,-13.50,0.88,-46.69
380083394,0.65,-1.23,9.42,-0.31,0.04,-0.55,-13.50,0.88,-46.69
380095329,0.65,-1.23,9.42,-0.31,0.01,-0.59,-13.50,0.88,-46.69
380105223,0.84,-1.46,10.00,-0.31,0.01,-0.59,-13.50,0.88,-46.69
380114917,0.84,-1.46,10.00,-0.29,0.05,-0.61,-13.50,0.88,-46.69
380124892,0.84,-1.46,10.00,-0.28,0.03,-0.64,-13.50,0.88,-46.69
380134257,0.84,-1.46,10.00,-0.29,0.06,-0.67,-13.50,0.88,-46.69
380145321,0.30,-1.30,9.61,-0.29,0.06,-0.67,-13.50,0.88,-46.69
380154927,0.30,-1.30,9.61,-0.30,0.06,-0.73,-13.50,0.88,-46.69
380164936,0.30,-1.30,9.61,-0.31,0.07,-0.77,-13.50,0.88,-46.69
380174699,-0.61,-0.15,9.39,-0.31,0.07,-0.77,-13.50,0.88,-46.69
380186194,0.00,-0.19,9.81,-0.31,0.07,-0.77,-13.50,0.88,-46.69
380194950,0.00,-0.19,9.81,-0.33,0.04,-0.80,-13.50,0.88,-46.69
380204940,0.00,-0.19,9.81,-0.34,0.06,-0.79,-13.50,0.88,-46.69
380215237,-0.34,-0.61,8.85,-0.34,0.06,-0.79,-13.50,0.88,-46.69
380224902,-0.34,-0.61,8.85,-0.31,0.03,-0.77,-13.50,0.88,-46.69
380234942,-0.34,-0.61,8.85,-0.31,0.07,-0.75,-13.50,0.88,-46.69
380244630,0.96,-0.50,9.65,-0.31,0.07,-0.75,-13.50,0.88,-46.69
380255216,2.45,-1.15,10.99,-0.31,0.07,-0.75,-13.50,0.88,-46.69
380264909,2.45,-1.15,10.99,-0.34,0.14,-0.78,-13.50,0.88,-46.69
380274958,2.45,-1.15,10.99,-0.34,0.15,-0.80,-13.50,0.88,-46.69
380285278,-0.08,-1.30,8.73,-0.34,0.15,-0.80,-13.50,0.88,-46.69
380294890,-0.08,-1.30,8.73,-0.31,0.07,-0.86,-13.50,0.88,-46.69
380303934,-0.08,-1.30,8.73,-0.32,0.14,-0.90,-13.50,0.88,-46.69
380314492,1.38,-1.00,9.16,-0.32,0.14,-0.90,-13.50,0.88,-46.69
380325220,1.38,-1.00,9.16,-0.33,0.17,-1.00,-13.50,0.88,-46.69
380334948,1.38,-1.00,9.16,-0.34,0.21,-1.07,-13.50,0.88,-46.69
380344983,1.38,-1.00,9.16,-0.34,0.14,-1.14,-13.50,0.88,-46.69
380355222,2.45,-0.61,10.42,-0.34,0.14,-1.14,-13.50,0.88,-46.69
380364915,2.45,-0.61,10.42,-0.38,0.27,-1.24,-13.50,0.88,-46.69
380374303,2.45,-0.61,10.42,-0.36,0.20,-1.27,-13.50,0.88,-46.69
380384989,0.92,-1.46,11.15,-0.36,0.20,-1.27,-13.50,0.88,-46.69
380394995,0.92,-1.46,11.15,-0.34,0.24,-1.28,-13.50,0.88,-46.69
380404953,0.92,-1.46,11.15,-0.33,0.23,-1.28,-13.50,0.88,-46.69
380414959,0.27,-0.92,9.96,-0.33,0.23,-1.28,-13.50,0.88,-46.69
380425225,0.23,-1.19,9.58,-0.33,0.23,-1.28,-13.50,0.88,-46.69
380435009,0.23,-1.19,9.58,-0.26,0.27,-1.14,-13.50,0.88,-46.69
380444255,0.23,-1.19,9.58,-0.24,0.24,-1.07,-13.50,0.88,-46.69
380455526,1.68,-1.49,10.65,-0.24,0.24,-1.07,-13.50,0.88,-46.69
380463864,1.68,-1.49,10.65,-0.24,0.30,-0.98,-13.50,0.88,-46.69
380474732,1.68,-1.49,10.65,-0.21,0.29,-0.93,-13.50,0.88,-46.69
380484880,1.68,-1.49,10.65,-0.20,0.29,-0.89,-13.50,0.88,-46.69
380495314,-0.50,-3.60,9.81,-0.20,0.29,-0.89,-13.50,0.88,-46.69
380504897,-0.50,-3.60,9.81,-0.11,0.22,-0.88,-13.50,0.88,-46.69
380514255,-0.50,-3.60,9.81,-0.12,0.30,-0.87,-13.50,0.88,-46.69
380525319,0.65,-1.15,8.27,-0.12,0.30,-0.87,-13.50,0.88,-46.69
380534899,0.65,-1.15,8.27,-0.13,0.28,-0.92,-13.50,0.88,-46.69
380544936,0.65,-1.15,8.27,-0.17,0.36,-0.95,-13.50,0.88,-46.69
380554656,1.19,0.57,10.23,-0.17,0.36,-0.95,-13.50,0.88,-46.69
380565242,2.49,-0.30,12.10,-0.17,0.36,-0.95,-13.50,0.88,-46.69
380574935,2.49,-0.30,12.10,-0.22,0.40,-1.04,-13.50,0.88,-46.69
380585056,2.49,-0.30,12.10,-0.18,0.39,-1.04,-13.50,0.88,-46.69
380595350,0.61,-1.61,10.31,-0.18,0.39,-1.04,-13.50,0.88,-46.69
380604904,0.61,-1.61,10.31,-0.14,0.38,-1.08,-13.50,0.88,-46.69
380614922,0.61,-1.61,10.31,-0.17,0.41,-1.14,-13.50,0.88,-46.69
380624511,-0.11,-1.68,8.73,-0.17,0.41,-1.14,-13.50,0.88,-46.69
380634176,-0.15,-2.45,9.23,-0.17,0.41,-1.14,-13.50,0.88,-46.69
380644104,-0.15,-2.45,9.23,-0.16,0.36,-1.21,-13.50,0.88,-46.69
380655280,-0.15,-2.45,9.23,-0.13,0.37,-1.19,-13.50,0.88,-46.69
380665247,2.34,-0.69,11.03,-0.13,0.37,-1.19,-13.50,0.88,-46.69
380674951,2.34,-0.69,11.03,-0.10,0.44,-1.10,-13.50,0.88,-46.69
380684276,2.34,-0.69,11.03,-0.08,0.45,-1.03,-13.50,0.88,-46.69
380694583,0.57,-1.57,9.34,-0.08,0.45,-1.03,-13.50,0.88,-46.69
380705248,1.30,-1.72,9.23,-0.08,0.45,-1.03,-13.50,0.88,-46.69
380715021,1.30,-1.72,9.23,-0.03,0.43,-0.85,-13.50,0.88,-46.69
380724956,1.30,-1.72,9.23,-0.01,0.44,-0.78,-13.50,0.88,-46.69
380735224,2.99,-3.26,10.27,-0.01,0.44,-0.78,-13.50,0.88,-46.69
380744917,2.99,-3.26,10.27,0.04,0.44,-0.62,-13.50,0.88,-46.69
380754255,2.99,-3.26,10.27,0.09,0.46,-0.52,-13.50,0.88,-46.69
380764830,2.11,-4.41,9.77,0.09,0.46,-0.52,-13.50,0.88,-46.69
380774927,2.11,-4.41,9.77,0.17,0.41,-0.36,-13.50,0.88,-46.69
380785032,2.11,-4.41,9.77,0.20,0.44,-0.27,-13.50,0.88,-46.69
380795065,2.11,-4.41,9.77,0.21,0.46,-0.20,-13.50,0.88,-46.69
380805231,1.19,-3.68,8.81,0.21,0.46,-0.20,-13.50,0.88,-46.69
380814927,1.19,-3.68,8.81,0.21,0.41,-0.12,-13.50,0.88,-46.69
380824253,1.19,-3.68,8.81,0.21,0.41,-0.10,-13.50,0.88,-46.69
380835541,-0.34,-2.95,8.46,0.21,0.41,-0.10,-13.50,0.88,-46.69
380845009,-0.34,-2.95,8.46,0.22,0.40,-0.05,-13.50,0.88,-46.69
380854944,-0.34,-2.95,8.46,0.22,0.36,-0.05,-13.50,0.88,-46.69
380864877,-0.34,-2.95,8.46,0.21,0.32,-0.06,-13.50,0.88,-46.69
380875251,-0.61,-2.64,8.93,0.21,0.32,-0.06,-13.50,0.88,-46.69
380884897,-0.61,-2.64,8.93,0.19,0.34,-0.05,-13.50,0.88,-46.69
380893882,-0.61,-2.64,8.93,0.19,0.30,-0.04,-13.50,0.88,-46.69
380904967,-1.38,-1.11,9.54,0.19,0.30,-0.04,-13.50,0.88,-46.69
380915214,-1.38,-1.11,9.54,0.17,0.27,0.02,-13.50,0.88,-46.69
380924949,-1.38,-1.11,9.54,0.15,0.25,0.06,-13.50,0.88,-46.69
380934624,-1.38,-1.11,9.54,0.16,0.24,0.12,-13.50,0.88,-46.69
380945245,0.61,-0.23,11.22,0.16,0.24,0.12,-13.50,0.88,-46.69
380954910,0.61,-0.23,11.22,0.12,0.27,0.20,-13.50,0.88,-46.69
380964944,0.61,-0.23,11.22,0.13,0.19,0.21,-13.50,0.88,-46.69
380975260,-0.50,-1.38,8.31,0.13,0.19,0.21,-13.50,0.88,-46.69
380985047,-0.50,-1.38,8.31,0.08,0.18,0.17,-13.50,0.88,-46.69
380995029,-0.50,-1.38,8.31,0.07,0.12,0.13,-13.50,0.88,-46.69
381004578,0.77,-3.03,7.86,0.07,0.12,0.13,-13.50,0.88,-46.69
381015221,0.84,-3.07,7.82,0.07,0.12,0.13,-13.50,0.88,-46.69
381024911,0.84,-3.07,7.82,0.04,0.11,-0.00,-13.50,0.88,-46.69
381034952,0.84,-3.07,7.82,0.04,0.12,-0.05,-13.50,0.88,-46.69
381046047,-1.34,-3.33,6.44,0.04,0.12,-0.05,-13.50,0.88,-46.69
381054910,-1.34,-3.33,6.44,0.05,0.04,-0.13,-13.50,0.88,-46.69
381064289,-1.34,-3.33,6.44,0.07,0.02,-0.15,-13.50,0.88,-46.69
381074588,1.61,-3.26,10.53,0.07,0.02,-0.15,-13.50,0.88,-46.69
381085222,-0.92,-2.53,9.23,0.07,0.02,-0.15,-13.50,0.88,-46.69
381094975,-0.92,-2.53,9.23,0.08,0.03,-0.16,-13.50,0.88,-46.69
381105042,-0.92,-2.53,9.23,0.05,0.05,-0.17,-13.50,0.88,-46.69
381115225,5.36,-1.07,17.05,0.05,0.05,-0.17,-13.50,0.88,-46.69
381124920,5.36,-1.07,17.05,0.01,0.27,-0.17,-13.50,0.88,-46.69
381134245,5.36,-1.07,17.05,0.02,0.22,-0.21,-13.50,0.88,-46.69
381144827,8.58,0.04,18.31,0.02,0.22,-0.21,-13.50,0.88,-46.69
381154893,8.58,0.04,18.31,-0.08,0.49,-0.27,-13.50,0.88,-46.69
381164964,8.58,0.04,18.31,-0.19,0.49,-0.43,-13.50,0.88,-46.69
381174977,8.58,0.04,18.31,-0.13,0.23,-0.60,-13.50,0.88,-46.69
381185349,0.27,-1.95,4.67,-0.13,0.23,-0.60,-13.50,0.88,-46.69
381194948,0.27,-1.95,4.67,-0.20,0.23,-0.95,-13.50,0.88,-46.69
381204320,0.27,-1.95,4.67,-0.22,0.28,-1.09,-13.50,0.88,-46.69
381215563,-4.94,-1.42,4.48,-0.22,0.28,-1.09,-13.50,0.88,-46.69
381224924,-4.94,-1.42,4.48,-0.22,0.09,-1.34,-13.50,0.88,-46.69
381235030,-4.94,-1.42,4.48,-0.23,0.09,-1.44,-13.50,0.88,-46.69
381244847,-4.94,-1.42,4.48,-0.24,0.11,-1.47,-13.50,0.88,-46.69
381255237,-0.54,2.38,8.84,-0.24,0.11,-1.47,-13.50,0.88,-46.69
381264898,-0.54,2.38,8.84,-0.21,0.13,-1.37,-13.50,0.88,-46.69
381275015,-0.54,2.38,8.84,-0.09,0.08,-1.22,-13.50,0.88,-46.69
381284179,-0.61,1.11,14.33,-0.09,0.08,-1.22,-13.50,0.88,-46.69
381294150,-0.61,1.11,14.33,-0.11,0.28,-1.12,-13.50,0.88,-46.69
381305300,-0.61,1.11,14.33,-0.15,0.14,-1.20,-13.50,0.88,-46.69
381315058,-0.61,1.11,14.33,-0.17,0.14,-1.26,-13.50,0.88,-46.69
381324902,-0.61,1.11,14.33,-0.13,0.13,-1.22,-13.50,0.88,-46.69
381334909,-0.61,1.11,14.33,-0.10,0.16,-1.18,-13.50,0.88,-46.69
381344977,-0.61,1.11,14.33,-0.08,0.23,-1.10,-13.50,0.88,-46.69
381355282,-0.73,-1.65,8.58,-0.08,0.23,-1.10,-13.50,0.88,-46.69
381364911,-0.73,-1.65,8.58,0.12,0.06,-0.86,-13.50,0.88,-46.69
381374955,-0.73,-1.65,8.58,0.15,0.23,-0.76,-13.50,0.88,-46.69
381384631,-0.73,-1.65,8.58,0.23,0.25,-0.66,-13.50,0.88,-46.69
381395297,3.10,-4.18,12.26,0.23,0.25,-0.66,-13.50,0.88,-46.69
381405007,3.10,-4.18,12.26,0.20,0.33,-0.65,-13.50,0.88,-46.69
381415029,3.10,-4.18,12.26,0.19,0.19,-0.71,-13.50,0.88,-46.69
381425219,3.37,-5.09,8.66,0.19,0.19,-0.71,-13.50,0.88,-46.69
381434947,3.37,-5.09,8.66,0.07,0.35,-0.71,-13.50,0.88,-46.69
381445751,3.37,-5.09,8.66,0.13,0.27,-0.65,-13.50,0.88,-46.69
381454817,3.37,-5.09,8.66,0.17,0.29,-0.56,-13.50,0.88,-46.69
381464916,3.37,-5.09,8.66,0.20,0.41,-0.41,-13.50,0.88,-46.69
381474939,3.37,-5.09,8.66,0.24,0.48,-0.24,-13.50,0.88,-46.69
381484930,3.37,-5.09,8.66,0.27,0.52,-0.12,-13.50,0.88,-46.69
381495228,-10.19,-6.89,8.20,0.27,0.52,-0.12,-13.50,0.88,-46.69
381504958,-10.19,-6.89,8.20,0.40,0.27,-0.06,-13.50,0.88,-46.69
381514332,-10.19,-6.89,8.20,0.48,0.03,-0.06,-13.50,0.88,-46.69
381524831,8.46,1.65,8.39,0.48,0.03,-0.06,-13.50,0.88,-46.69
381533864,8.46,1.65,8.39,0.17,0.52,-0.19,-13.50,0.88,-46.69
381543735,8.46,1.65,8.39,0.08,0.73,-0.24,-13.50,0.88,-46.69
381555251,8.46,1.65,8.39,-0.30,1.11,-0.27,-13.50,0.88,-46.69
381565280,-41.41,-25.25,11.26,-0.30,1.11,-0.27,-13.50,0.88,-46.69
381574903,-41.41,-25.25,11.26,0.86,-0.70,0.19,-13.50,0.88,-46.69
381585406,-41.41,-25.25,11.26,1.17,-1.97,0.07,-13.50,0.88,-46.69
381596344,16.55,20.96,4.41,1.17,-1.97,0.07,-13.50,0.88,-46.69
381604927,16.55,20.96,4.41,-0.41,-0.29,-1.01,-13.50,0.88,-46.69
381615015,16.55,20.96,4.41,-0.10,0.41,-0.74,-13.50,0.88,-46.69
381624915,16.55,20.96,4.41,-0.43,1.24,-0.13,-13.50,0.88,-46.69
381635243,-2.76,7.17,5.90,-0.43,1.24,-0.13,-13.50,0.88,-46.69
381645023,-2.76,7.17,5.90,0.31,-0.90,-0.49,-13.50,0.88,-46.69
381654285,-2.76,7.17,5.90,-0.15,0.28,-0.43,-13.50,0.88,-46.69
381665388,0.80,-5.36,6.16,-0.15,0.28,-0.43,-13.50,0.88,-46.69
381674902,0.80,-5.36,6.16,0.07,-0.31,-0.20,-13.50,0.88,-46.69
381684948,0.80,-5.36,6.16,-0.00,0.06,-0.24,-13.50,0.88,-46.69
381694694,0.80,-5.36,6.16,-0.18,0.43,-0.31,-13.50,0.88,-46.69
381705245,-2.57,-3.91,8.66,-0.18,0.43,-0.31,-13.50,0.88,-46.69
381715737,-2.57,-3.91,8.66,-0.05,0.06,-0.42,-13.50,0.88,-46.69
381725009,-2.57,-3.91,8.66,-0.12,0.11,-0.43,-13.50,0.88,-46.69
381735218,-2.57,-3.91,8.66,-0.09,0.00,-0.42,-13.50,0.88,-46.69
381744908,-2.57,-3.91,8.66,-0.08,0.24,-0.37,-13.50,0.88,-46.69
381754953,-2.57,-3.91,8.66,-0.04,0.23,-0.29,-13.50,0.88,-46.69
381764552,-2.57,-3.91,8.66,-0.02,0.03,-0.25,-13.50,0.88,-46.69
381775229,2.99,-0.50,10.92,-0.02,0.03,-0.25,-13.50,0.88,-46.69
381785814,2.99,-0.50,10.92,-0.14,0.09,-0.23,-13.50,0.88,-46.69
381794976,2.99,-0.50,10.92,-0.14,0.08,-0.23,-13.50,0.88,-46.69
381805221,2.99,-0.50,10.92,-0.13,0.15,-0.21,-13.50,0.88,-46.69
381814933,2.99,-0.50,10.92,-0.12,0.13,-0.19,-13.50,0.88,-46.69
381824311,2.99,-0.50,10.92,-0.10,0.07,-0.15,-13.50,0.88,-46.69
381834497,2.99,-0.50,10.92,-0.11,0.20,-0.08,-13.50,0.88,-46.69
381845719,-3.83,-2.57,7.39,-0.11,0.20,-0.08,-13.50,0.88,-46.69
381854942,-3.83,-2.57,7.39,0.03,-0.03,0.07,-13.50,0.88,-46.69
381864961,-3.83,-2.57,7.39,0.05,-0.05,0.14,-13.50,0.88,-46.69
381875239,3.14,0.88,8.81,0.05,-0.05,0.14,-13.50,0.88,-46.69
381884897,3.14,0.88,8.81,0.05,-0.05,0.14,2.19,-2.19,-51.00
381894332,3.14,0.88,8.81,0.05,-0.05,0.14,2.31,-2.50,-48.75
381904830,3.14,0.88,8.81,-0.07,0.11,0.22,2.31,-2.50,-48.75
381915303,3.14,0.88,8.81,-0.07,-0.01,0.22,2.31,-2.50,-48.75
381924985,3.14,0.88,8.81,-0.10,-0.04,0.19,2.31,-2.50,-48.75
381934975,3.14,0.88,8.81,-0.08,-0.04,0.17,2.31,-2.50,-48.75
381945247,-1.00,-3.79,8.82,-0.08,-0.04,0.17,2.31,-2.50,-48.75
381954900,-1.00,-3.79,8.82,-0.08,-0.04,0.17,3.50,-2.62,-50.19
381964266,-1.00,-3.79,8.82,-0.08,-0.04,0.17,3.62,-2.25,-49.31
381974858,-1.00,-3.79,8.82,-0.12,-0.05,0.18,3.62,-2.25,-49.31
381985042,-1.00,-3.79,8.82,-0.11,-0.09,0.17,3.62,-2.25,-49.31
381995348,-1.00,-3.79,8.82,-0.11,-0.09,0.17,3.62,-2.25,-49.31
382004948,-1.00,-3.79,8.82,-0.16,-0.02,0.14,3.62,-2.25,-49.31
382015256,-1.00,-3.79,8.82,-0.19,-0.04,0.09,3.62,-2.25,-49.31
382024977,-1.00,-3.79,8.82,-0.20,-0.04,0.04,3.62,-2.25,-49.31
382034306,-1.00,-3.79,8.82,-0.24,-0.02,-0.02,3.62,-2.25,-49.31
382045883,-1.00,-3.79,8.82,-0.26,-0.01,-0.07,3.62,-2.25,-49.31
382054903,-1.00,-3.79,8.82,-0.27,0.02,-0.11,3.62,-2.25,-49.31
382064955,-1.00,-3.79,8.82,-0.28,-0.01,-0.17,3.62,-2.25,-49.31
382074734,-1.00,-3.79,8.82,-0.30,-0.03,-0.24,3.62,-2.25,-49.31
382085218,-6.59,-1.91,3.56,-0.30,-0.03,-0.24,3.62,-2.25,-49.31
382094914,-6.59,-1.91,3.56,-0.28,-0.16,-0.38,3.62,-2.25,-49.31
382105009,-6.59,-1.91,3.56,-0.29,-0.13,-0.45,3.62,-2.25,-49.31
382115248,-6.59,-1.91,3.56,-0.36,0.14,-0.51,3.62,-2.25,-49.31
382124881,-6.59,-1.91,3.56,-0.36,0.08,-0.57,3.62,-2.25,-49.31
382134999,-6.59,-1.91,3.56,-0.31,0.00,-0.62,3.62,-2.25,-49.31
382144556,-6.59,-1.91,3.56,-0.30,0.15,-0.69,3.62,-2.25,-49.31
382155256,-3.10,-5.21,7.59,-0.30,0.15,-0.69,3.62,-2.25,-49.31
382164938,-3.10,-5.21,7.59,-0.19,0.04,-0.85,3.62,-2.25,-49.31
382174946,-3.10,-5.21,7.59,-0.22,0.19,-0.94,3.62,-2.25,-49.31
382185361,-3.10,-5.21,7.59,-0.21,0.27,-0.99,3.62,-2.25,-49.31
382195287,-3.10,-5.21,7.59,-0.20,0.27,-1.07,3.62,-2.25,-49.31
382203874,-3.10,-5.21,7.59,-0.20,0.27,-1.07,3.25,-0.38,-48.94
382213368,-3.10,-5.21,7.59,-0.13,0.16,-1.19,3.25,-0.38,-48.94
382225267,-3.10,-5.21,7.59,-0.05,0.12,-1.16,3.25,-0.38,-48.94
382234973,-3.10,-5.21,7.59,-0.05,0.25,-1.12,3.25,-0.38,-48.94
382245036,-3.10,-5.21,7.59,-0.08,0.29,-1.10,3.25,-0.38,-48.94
382255250,-3.10,-5.21,7.59,-0.05,0.29,-1.06,3.25,-0.38,-48.94
382264937,-3.10,-5.21,7.59,0.02,0.32,-0.98,3.25,-0.38,-48.94
382274260,-3.10,-5.21,7.59,0.08,0.27,-0.92,3.25,-0.38,-48.94
382284846,-3.10,-5.21,7.59,0.10,0.29,-0.91,3.25,-0.38,-48.94
382294976,-3.10,-5.21,7.59,0.13,0.33,-0.89,3.25,-0.38,-48.94
382304911,-3.10,-5.21,7.59,0.15,0.32,-0.86,3.25,-0.38,-48.94
382315000,-3.10,-5.21,7.59,0.12,0.35,-0.86,3.25,-0.38,-48.94
382325251,0.08,-0.61,9.12,0.12,0.35,-0.86,3.25,-0.38,-48.94
382334977,0.08,-0.61,9.12,0.12,0.33,-0.83,3.25,-0.38,-48.94
382344286,0.08,-0.61,9.12,0.11,0.35,-0.81,3.25,-0.38,-48.94
382354852,0.08,-0.61,9.12,0.09,0.38,-0.78,3.25,-0.38,-48.94
382364911,0.08,-0.61,9.12,0.06,0.37,-0.75,3.25,-0.38,-48.94
382374948,0.08,-0.61,9.12,0.05,0.29,-0.74,3.25,-0.38,-48.94
382385045,0.08,-0.61,9.12,0.09,0.28,-0.73,3.25,-0.38,-48.94
382395285,0.08,-0.61,9.12,0.09,0.33,-0.70,3.25,-0.38,-48.94
382403865,0.08,-0.61,9.12,0.11,0.32,-0.68,3.25,-0.38,-48.94
382413778,0.08,-0.61,9.12,0.12,0.38,-0.65,3.25,-0.38,-48.94
382425508,0.08,-0.61,9.12,0.15,0.34,-0.61,3.25,-0.38,-48.94
382435308,-0.92,-0.38,11.07,0.15,0.34,-0.61,3.25,-0.38,-48.94
382445036,-0.92,-0.38,11.07,0.13,0.33,-0.52,3.25,-0.38,-48.94
382454801,-0.92,-0.38,11.07,0.13,0.34,-0.47,3.25,-0.38,-48.94
382465225,-0.92,-0.38,11.07,0.14,0.33,-0.41,3.25,-0.38,-48.94
382474924,-0.92,-0.38,11.07,0.18,0.29,-0.36,3.25,-0.38,-48.94
382484981,-0.92,-0.38,11.07,0.20,0.26,-0.32,3.25,-0.38,-48.94
382495310,-0.92,-0.38,11.07,0.17,0.24,-0.31,3.25,-0.38,-48.94
382504919,-0.92,-0.38,11.07,0.13,0.25,-0.32,3.25,-0.38,-48.94
382515003,-0.92,-0.38,11.07,0.12,0.24,-0.32,3.25,-0.38,-48.94
382524593,-0.92,-0.38,11.07,0.09,0.21,-0.31,3.25,-0.38,-48.94
382535266,-0.92,-0.38,11.07,0.07,0.15,-0.31,3.25,-0.38,-48.94
382544989,-0.92,-0.38,11.07,0.06,0.17,-0.31,3.25,-0.38,-48.94
382554973,-0.92,-0.38,11.07,0.01,0.22,-0.31,3.25,-0.38,-48.94
382565282,-0.92,-0.38,11.07,-0.02,0.21,-0.32,3.25,-0.38,-48.94
382574972,-0.92,-0.38,11.07,-0.02,0.17,-0.33,3.25,-0.38,-48.94
382584740,-0.92,-0.38,11.07,-0.04,0.15,-0.36,3.25,-0.38,-48.94
382594942,-0.92,-0.38,11.07,-0.05,0.15,-0.44,3.25,-0.38,-48.94
382604949,-0.92,-0.38,11.07,-0.07,0.21,-0.52,3.25,-0.38,-48.94
382614984,-0.92,-0.38,11.07,-0.07,0.23,-0.60,3.25,-0.38,-48.94
382624971,-0.92,-0.38,11.07,-0.06,0.26,-0.68,3.25,-0.38,-48.94
382635354,-0.92,-0.38,11.07,-0.01,0.24,-0.76,3.25,-0.38,-48.94
382645343,-0.92,-0.38,11.07,0.04,0.23,-0.82,3.25,-0.38,-48.94
382654264,-0.92,-0.38,11.07,0.09,0.24,-0.85,3.25,-0.38,-48.94
382664521,-0.92,-0.38,11.07,0.13,0.27,-0.84,3.25,-0.38,-48.94
382675236,0.04,-3.29,10.88,0.13,0.27,-0.84,3.25,-0.38,-48.94
382684945,0.04,-3.29,10.88,0.20,0.34,-0.73,3.25,-0.38,-48.94
382694967,0.04,-3.29,10.88,0.21,0.32,-0.65,3.25,-0.38,-48.94
382705316,0.04,-3.29,10.88,0.24,0.35,-0.53,3.25,-0.38,-48.94
382713891,0.04,-3.29,10.88,0.26,0.31,-0.41,3.25,-0.38,-48.94
382723724,0.04,-3.29,10.88,0.24,0.28,-0.31,3.25,-0.38,-48.94
382734875,0.04,-3.29,10.88,0.23,0.24,-0.21,3.25,-0.38,-48.94
382745315,0.15,2.14,10.50,0.23,0.24,-0.21,3.25,-0.38,-48.94
382754948,0.15,2.14,10.50,0.21,0.22,-0.02,3.25,-0.38,-48.94
382764973,0.15,2.14,10.50,0.18,0.21,0.04,3.25,-0.38,-48.94
382775272,0.15,2.14,10.50,0.18,0.19,0.09,3.25,-0.38,-48.94
382785049,0.15,2.14,10.50,0.18,0.15,0.13,3.25,-0.38,-48.94
382794345,0.15,2.14,10.50,0.14,0.14,0.12,3.25,-0.38,-48.94
382805522,0.15,2.14,10.50,0.11,0.18,0.09,3.25,-0.38,-48.94
382814967,0.15,2.14,10.50,0.11,0.20,0.08,3.25,-0.38,-48.94
382824959,0.15,2.14,10.50,0.11,0.20,0.06,3.25,-0.38,-48.94
382834977,0.15,2.14,10.50,0.10,0.14,0.01,3.25,-0.38,-48.94
382845321,0.15,2.14,10.50,0.07,0.12,-0.04,3.25,-0.38,-48.94
382854951,0.15,2.14,10.50,0.05,0.11,-0.08,3.25,-0.38,-48.94
382865014,0.15,2.14,10.50,0.09,0.00,-0.12,3.25,-0.38,-48.94
382875326,0.15,2.14,10.50,0.07,0.04,-0.15,3.25,-0.38,-48.94
382884949,0.15,2.14,10.50,0.04,0.06,-0.22,3.25,-0.38,-48.94
382894959,0.15,2.14,10.50,0.03,0.09,-0.27,3.25,-0.38,-48.94
382904654,0.15,2.14,10.50,-0.07,0.29,-0.34,3.25,-0.38,-48.94
382915631,0.15,2.14,10.50,-0.08,0.11,-0.41,3.25,-0.38,-48.94
382924951,0.15,2.14,10.50,-0.08,0.04,-0.46,3.25,-0.38,-48.94
382934951,0.15,2.14,10.50,-0.08,0.08,-0.49,3.25,-0.38,-48.94
382945366,0.15,2.14,10.50,-0.05,0.05,-0.51,3.25,-0.38,-48.94
382954937,0.15,2.14,10.50,-0.09,0.16,-0.53,3.25,-0.38,-48.94
382964939,0.15,2.14,10.50,-0.10,0.15,-0.55,3.25,-0.38,-48.94
382974562,0.15,2.14,10.50,-0.11,0.11,-0.60,3.25,-0.38,-48.94
382985350,0.15,2.14,10.50,-0.16,0.14,-0.66,3.25,-0.38,-48.94
382994655,0.15,2.14,10.50,-0.15,0.07,-0.71,3.25,-0.38,-48.94
383004967,0.15,2.14,10.50,-0.12,0.09,-0.74,3.25,-0.38,-48.94
383015293,0.15,2.14,10.50,-0.09,0.16,-0.77,3.25,-0.38,-48.94
383024919,0.15,2.14,10.50,-0.07,0.17,-0.80,3.25,-0.38,-48.94
383034359,0.15,2.14,10.50,-0.06,0.20,-0.84,3.25,-0.38,-48.94
383044542,0.15,2.14,10.50,-0.02,0.18,-0.86,3.25,-0.38,-48.94
383055317,-0.92,-4.14,8.66,-0.02,0.18,-0.86,3.25,-0.38,-48.94
383064932,-0.92,-4.14,8.66,0.06,0.21,-0.87,3.25,-0.38,-48.94
383075026,-0.92,-4.14,8.66,0.09,0.22,-0.86,3.25,-0.38,-48.94
383085285,-0.92,-4.14,8.66,0.11,0.22,-0.84,3.25,-0.38,-48.94
383094935,-0.92,-4.14,8.66,0.12,0.25,-0.81,3.25,-0.38,-48.94
383104345,-0.92,-4.14,8.66,0.14,0.27,-0.77,3.25,-0.38,-48.94
383114564,-0.92,-4.14,8.66,0.19,0.23,-0.73,3.25,-0.38,-48.94
383124185,-2.84,-2.61,7.70,0.19,0.23,-0.73,3.25,-0.38,-48.94
383133730,-2.84,-2.61,7.70,0.28,0.17,-0.58,3.25,-0.38,-48.94
383145332,-2.84,-2.61,7.70,0.32,0.18,-0.51,3.25,-0.38,-48.94
383155331,1.95,-2.26,12.34,0.32,0.18,-0.51,3.25,-0.38,-48.94
383164939,1.95,-2.26,12.34,0.30,0.31,-0.39,3.25,-0.38,-48.94
383174282,1.95,-2.26,12.34,0.32,0.34,-0.35,3.25,-0.38,-48.94
383184949,1.95,-2.26,12.34,0.34,0.27,-0.33,3.25,-0.38,-48.94
383194998,1.95,-2.26,12.34,0.33,0.31,-0.32,3.25,-0.38,-48.94
383204957,1.95,-2.26,12.34,0.34,0.31,-0.30,3.25,-0.38,-48.94
383214937,1.95,-2.26,12.34,0.41,0.21,-0.27,3.25,-0.38,-48.94
383225221,1.95,-2.26,12.34,0.44,0.25,-0.24,3.25,-0.38,-48.94
383234974,1.95,-2.26,12.34,0.46,0.26,-0.23,3.25,-0.38,-48.94
383244314,1.95,-2.26,12.34,0.48,0.24,-0.21,3.25,-0.38,-48.94
383254769,1.95,-2.26,12.34,0.48,0.29,-0.18,3.25,-0.38,-48.94
383264948,1.95,-2.26,12.34,0.49,0.31,-0.14,3.25,-0.38,-48.94
383274938,1.95,-2.26,12.34,0.49,0.28,-0.09,3.25,-0.38,-48.94
383284668,1.95,-2.26,12.34,0.49,0.29,-0.04,3.25,-0.38,-48.94
383295224,1.95,-2.26,12.34,0.52,0.27,0.04,3.25,-0.38,-48.94
383305025,1.95,-2.26,12.34,0.57,0.20,0.12,3.25,-0.38,-48.94
383315070,1.95,-2.26,12.34,0.60,0.18,0.18,3.25,-0.38,-48.94
383325238,1.95,-2.26,12.34,0.62,0.16,0.25,3.25,-0.38,-48.94
383334969,1.95,-2.26,12.34,0.62,0.23,0.32,3.25,-0.38,-48.94
383344938,1.95,-2.26,12.34,0.62,0.22,0.38,3.25,-0.38,-48.94
383354596,1.95,-2.26,12.34,0.62,0.23,0.44,3.25,-0.38,-48.94
383364628,1.95,-2.26,12.34,0.62,0.22,0.50,3.25,-0.38,-48.94
383374929,1.95,-2.26,12.34,0.65,0.10,0.57,3.25,-0.38,-48.94
383384425,1.95,-2.26,12.34,0.66,0.08,0.62,3.25,-0.38,-48.94
383394643,1.95,-2.26,12.34,0.63,0.13,0.63,3.25,-0.38,-48.94
383403848,1.95,-2.26,12.34,0.65,0.11,0.63,3.25,-0.38,-48.94
383413728,1.95,-2.26,12.34,0.67,0.08,0.63,3.25,-0.38,-48.94
383424884,1.95,-2.26,12.34,0.66,0.09,0.62,3.25,-0.38,-48.94
383434575,-0.19,-3.41,8.89,0.66,0.09,0.62,3.25,-0.38,-48.94
383444296,-0.19,-3.41,8.89,0.63,0.09,0.63,3.25,-0.38,-48.94
383454414,-0.19,-3.41,8.89,0.64,0.06,0.67,3.25,-0.38,-48.94
383464674,-0.19,-3.41,8.89,0.64,0.08,0.70,3.25,-0.38,-48.94
383474258,-0.19,-3.41,8.89,0.66,0.01,0.71,3.25,-0.38,-48.94
383484381,-0.19,-3.41,8.89,0.64,0.03,0.72,3.25,-0.38,-48.94
383494549,-0.19,-3.41,8.89,0.60,0.07,0.73,3.25,-0.38,-48.94
383504681,-0.19,-3.41,8.89,0.57,0.06,0.74,3.25,-0.38,-48.94
383515038,-0.19,-3.41,8.89,0.54,0.02,0.71,3.25,-0.38,-48.94
383524297,-0.19,-3.41,8.89,0.52,-0.00,0.68,3.25,-0.38,-48.94
383534610,-0.19,-3.41,8.89,0.48,0.05,0.69,3.25,-0.38,-48.94
383544252,-0.19,-3.41,8.89,0.47,-0.01,0.67,3.25,-0.38,-48.94
383554255,-0.19,-3.41,8.89,0.46,-0.02,0.67,3.25,-0.38,-48.94
383564607,-0.19,-3.41,8.89,0.43,-0.02,0.65,3.25,-0.38,-48.94
383574624,-0.19,-3.41,8.89,0.38,0.04,0.61,3.25,-0.38,-48.94
383585811,-0.19,-3.41,8.89,0.35,0.03,0.60,3.25,-0.38,-48.94
383594282,-0.19,-3.41,8.89,0.34,-0.06,0.57,3.25,-0.38,-48.94
383604614,-0.19,-3.41,8.89,0.28,-0.04,0.56,3.25,-0.38,-48.94
383614289,-0.19,-3.41,8.89,0.23,-0.02,0.56,3.25,-0.38,-48.94
383623870,-0.19,-3.41,8.89,0.23,-0.03,0.60,3.25,-0.38,-48.94
383633819,-0.19,-3.41,8.89,0.21,0.01,0.65,3.25,-0.38,-48.94
383644618,-0.19,-3.41,8.89,0.22,-0.03,0.71,3.25,-0.38,-48.94
383654377,-0.19,-3.41,8.89,0.22,0.00,0.76,3.25,-0.38,-48.94
383664060,-0.19,-3.41,8.89,0.22,-0.00,0.79,3.25,-0.38,-48.94
383674607,-0.19,-3.41,8.89,0.22,-0.08,0.77,3.25,-0.38,-48.94
383684271,-0.19,-3.41,8.89,0.18,-0.06,0.76,3.25,-0.38,-48.94
383694296,-0.19,-3.41,8.89,0.16,-0.06,0.74,3.25,-0.38,-48.94
383704663,-0.19,-3.41,8.89,0.15,-0.06,0.76,3.25,-0.38,-48.94
383715618,-0.19,-3.41,8.89,0.15,0.02,0.77,3.25,-0.38,-48.94
383724296,-0.19,-3.41,8.89,0.18,0.01,0.77,3.25,-0.38,-48.94
383734537,-0.19,-3.41,8.89,0.18,0.00,0.75,3.25,-0.38,-48.94
383744617,-0.19,-3.41,8.89,0.12,0.06,0.71,3.25,-0.38,-48.94
383754263,-0.19,-3.41,8.89,0.07,0.04,0.65,3.25,-0.38,-48.94
383764389,-0.19,-3.41,8.89,0.06,0.02,0.59,3.25,-0.38,-48.94
383774639,-0.19,-3.41,8.89,0.04,0.00,0.52,3.25,-0.38,-48.94
383585811,-0.19,-3.41,8.89,0.35,0.03,0.60,3.25,-0.38,-48.94
