timestamp,accX,accY,accZ,gyroX,gyroY,gyroZ,magX,magY,magZ
Left Turn
366940352,3.68,-1.61,10.15,0.04,0.14,-0.21,21.50,10.81,-38.94
366957081,3.68,-1.61,10.15,0.11,-0.12,-0.19,21.50,10.81,-38.94
366960792,3.68,-1.61,10.15,0.07,-0.06,-0.32,21.50,10.81,-38.94
366968885,-3.56,-2.26,6.20,0.07,-0.06,-0.32,21.50,10.81,-38.94
366979170,-3.56,-2.26,6.20,-0.07,0.27,-0.34,21.50,10.81,-38.94
366989634,-1.42,-1.99,8.82,-0.07,0.27,-0.34,21.50,10.81,-38.94
366998794,-1.42,-1.99,8.82,0.02,0.13,-0.32,21.50,10.81,-38.94
367010058,-1.42,-1.99,8.82,-0.07,0.26,-0.34,21.50,10.81,-38.94
367020708,-1.76,-2.03,8.04,-0.07,0.26,-0.34,21.50,10.81,-38.94
367030428,-1.76,-2.03,8.04,0.06,0.13,-0.35,21.50,10.81,-38.94
367040409,0.38,-0.34,10.39,0.06,0.13,-0.35,21.50,10.81,-38.94
367050757,-2.30,-0.84,8.31,0.06,0.13,-0.35,21.50,10.81,-38.94
367060393,-2.30,-0.84,8.31,0.01,0.16,-0.45,21.50,10.81,-38.94
367070492,-2.30,-0.84,8.31,0.03,0.12,-0.46,21.50,10.81,-38.94
367080371,0.04,-2.22,8.96,0.03,0.12,-0.46,21.50,10.81,-38.94
367090438,0.04,-2.22,8.96,0.05,0.12,-0.51,21.50,10.81,-38.94
367100485,0.04,-2.22,8.96,0.04,0.18,-0.50,21.50,10.81,-38.94
367110468,0.08,-2.84,10.61,0.04,0.18,-0.50,21.50,10.81,-38.94
367120741,-0.61,-2.07,10.07,0.04,0.18,-0.50,21.50,10.81,-38.94
367130377,-0.61,-2.07,10.07,0.10,0.22,-0.40,21.50,10.81,-38.94
367139832,-0.61,-2.07,10.07,0.07,0.25,-0.35,21.50,10.81,-38.94
367150437,-0.42,-1.53,9.27,0.07,0.25,-0.35,21.50,10.81,-38.94
367160372,-0.42,-1.53,9.27,0.14,0.15,-0.21,21.50,10.81,-38.94
367170401,-0.42,-1.53,9.27,0.08,0.28,-0.14,21.50,10.81,-38.94
367180415,-1.49,-1.11,9.16,0.08,0.28,-0.14,21.50,10.81,-38.94
367190680,1.42,-3.29,9.88,0.08,0.28,-0.14,21.50,10.81,-38.94
367200591,1.42,-3.29,9.88,0.19,0.27,0.12,21.50,10.81,-38.94
367209750,1.42,-3.29,9.88,0.25,0.16,0.18,21.50,10.81,-38.94
367220374,1.95,-2.34,10.15,0.25,0.16,0.18,21.50,10.81,-38.94
367230377,1.95,-2.34,10.15,0.21,0.35,0.29,21.50,10.81,-38.94
367240421,1.95,-2.34,10.15,0.35,0.02,0.33,21.50,10.81,-38.94
367250468,-3.60,-2.87,11.80,0.35,0.02,0.33,21.50,10.81,-38.94
367260763,1.00,-4.29,8.58,0.35,0.02,0.33,21.50,10.81,-38.94
367270401,1.00,-4.29,8.58,0.38,-0.10,0.38,21.50,10.81,-38.94
367279746,1.00,-4.29,8.58,0.27,0.25,0.37,21.50,10.81,-38.94
367290924,-1.91,-2.57,7.74,0.27,0.25,0.37,21.50,10.81,-38.94
367300455,-1.91,-2.57,7.74,0.33,0.10,0.39,21.50,10.81,-38.94
367310396,-1.91,-2.57,7.74,0.25,0.13,0.37,21.50,10.81,-38.94
367320269,-2.34,-1.46,10.31,0.25,0.13,0.37,21.50,10.81,-38.94
367330697,-4.60,-2.64,8.28,0.25,0.13,0.37,21.50,10.81,-38.94
367340464,-4.60,-2.64,8.28,0.35,0.00,0.45,21.50,10.81,-38.94
367350576,-4.60,-2.64,8.28,0.23,0.19,0.37,21.50,10.81,-38.94
367360849,-2.38,-1.19,6.82,0.23,0.19,0.37,21.50,10.81,-38.94
367370402,-2.38,-1.19,6.82,0.23,-0.05,0.28,21.50,10.81,-38.94
367380407,-2.38,-1.19,6.82,0.14,0.15,0.23,21.50,10.81,-38.94
367390055,-3.18,-1.38,7.36,0.14,0.15,0.23,21.50,10.81,-38.94
367400862,0.19,0.15,9.84,0.14,0.15,0.23,21.50,10.81,-38.94
367410367,0.19,0.15,9.84,0.12,0.04,0.09,21.50,10.81,-38.94
367420435,0.19,0.15,9.84,0.07,0.15,0.07,21.50,10.81,-38.94
367430736,0.23,0.15,9.88,0.07,0.15,0.07,21.50,10.81,-38.94
367440368,0.23,0.15,9.88,0.07,0.07,0.04,21.50,10.81,-38.94
367450494,0.23,0.15,9.88,0.04,0.10,0.04,21.50,10.81,-38.94
367459941,1.34,-0.08,9.12,0.04,0.10,0.04,21.50,10.81,-38.94
367471525,2.41,-0.46,9.54,0.04,0.10,0.04,21.50,10.81,-38.94
367480353,2.41,-0.46,9.54,0.01,0.13,-0.02,21.50,10.81,-38.94
367490409,2.41,-0.46,9.54,0.05,0.05,-0.04,21.50,10.81,-38.94
367500756,2.03,-1.27,12.34,0.05,0.05,-0.04,21.50,10.81,-38.94
367510372,2.03,-1.27,12.34,0.04,0.12,-0.06,21.50,10.81,-38.94
367519747,2.03,-1.27,12.34,0.09,0.00,-0.07,21.50,10.81,-38.94
367529982,-0.19,-1.07,10.73,0.09,0.00,-0.07,21.50,10.81,-38.94
367541169,-0.80,-0.61,9.00,0.09,0.00,-0.07,21.50,10.81,-38.94
367550520,-0.80,-0.61,9.00,0.08,-0.01,-0.11,21.50,10.81,-38.94
367560478,-0.54,-0.15,8.74,0.08,-0.01,-0.11,21.50,10.81,-38.94
367570700,-0.96,-0.19,8.08,0.08,-0.01,-0.11,21.50,10.81,-38.94
367580371,-0.96,-0.19,8.08,0.03,0.01,-0.12,21.50,10.81,-38.94
367589804,-0.96,-0.19,8.08,-0.02,0.12,-0.09,21.50,10.81,-38.94
367600483,-2.49,-1.07,10.03,-0.02,0.12,-0.09,21.50,10.81,-38.94
367610374,-2.49,-1.07,10.03,0.05,-0.03,0.04,21.50,10.81,-38.94
367620396,-2.49,-1.07,10.03,0.08,0.02,0.14,21.50,10.81,-38.94
367630485,-3.52,-1.68,7.85,0.08,0.02,0.14,21.50,10.81,-38.94
367640698,-2.87,-1.27,9.96,0.08,0.02,0.14,21.50,10.81,-38.94
367650434,-2.87,-1.27,9.96,0.11,-0.04,0.40,21.50,10.81,-38.94
367659760,-2.87,-1.27,9.96,0.08,-0.00,0.46,21.50,10.81,-38.94
367670982,-1.72,-3.52,9.08,0.08,-0.00,0.46,21.50,10.81,-38.94
367680385,-1.72,-3.52,9.08,0.13,0.03,0.59,21.50,10.81,-38.94
367690395,-1.72,-3.52,9.08,0.18,-0.03,0.63,21.50,10.81,-38.94
367700260,-1.95,-2.91,8.16,0.18,-0.03,0.63,21.50,10.81,-38.94
367710697,-4.98,-3.07,5.66,0.18,-0.03,0.63,21.50,10.81,-38.94
367720362,-4.98,-3.07,5.66,0.21,-0.17,0.66,21.50,10.81,-38.94
367730491,-4.98,-3.07,5.66,0.17,-0.11,0.65,21.50,10.81,-38.94
367741143,-0.19,-1.91,9.04,0.17,-0.11,0.65,21.50,10.81,-38.94
367750505,-0.19,-1.91,9.04,0.14,-0.17,0.57,21.50,10.81,-38.94
367760408,-0.19,-1.91,9.04,0.08,-0.01,0.56,21.50,10.81,-38.94
367770045,2.61,-1.19,15.02,0.08,-0.01,0.56,21.50,10.81,-38.94
367779642,1.00,-1.27,13.95,0.08,-0.01,0.56,21.50,10.81,-38.94
367790253,1.00,-1.27,13.95,0.06,0.14,0.44,21.50,10.81,-38.94
367800920,1.00,-1.27,13.95,0.06,0.01,0.36,21.50,10.81,-38.94
367810700,-1.34,1.38,7.55,0.06,0.01,0.36,21.50,10.81,-38.94
367820371,-1.34,1.38,7.55,-0.10,0.07,0.17,21.50,10.81,-38.94
367829782,-1.34,1.38,7.55,-0.15,-0.02,0.09,21.50,10.81,-38.94
367839975,-0.73,0.80,9.34,-0.15,-0.02,0.09,21.50,10.81,-38.94
367850758,0.11,-0.92,10.03,-0.15,-0.02,0.09,21.50,10.81,-38.94
367860451,0.11,-0.92,10.03,-0.14,-0.00,0.04,21.50,10.81,-38.94
367870442,0.11,-0.92,10.03,-0.12,-0.06,0.04,21.50,10.81,-38.94
367880707,1.07,-0.88,11.96,-0.12,-0.06,0.04,21.50,10.81,-38.94
367890373,1.07,-0.88,11.96,-0.16,0.03,0.04,21.50,10.81,-38.94
367899755,1.07,-0.88,11.96,-0.17,0.08,0.02,21.50,10.81,-38.94
367910326,-1.34,-1.30,8.82,-0.17,0.08,0.02,21.50,10.81,-38.94
367920374,-1.34,-1.30,8.82,-0.18,0.04,-0.03,21.50,10.81,-38.94
367930425,-1.34,-1.30,8.82,-0.15,0.03,-0.03,21.50,10.81,-38.94
367940527,-1.34,-1.30,8.82,-0.12,0.01,-0.03,21.50,10.81,-38.94
367950823,-1.95,-1.49,8.74,-0.12,0.01,-0.03,21.50,10.81,-38.94
367960345,-1.95,-1.49,8.74,-0.11,-0.03,-0.05,21.50,10.81,-38.94
367971152,-1.95,-1.49,8.74,-0.08,-0.07,-0.06,21.50,10.81,-38.94
367980289,-1.30,-2.41,9.30,-0.08,-0.07,-0.06,21.50,10.81,-38.94
367990376,-1.30,-2.41,9.30,-0.11,-0.01,-0.18,21.50,10.81,-38.94
368000644,-1.30,-2.41,9.30,-0.10,-0.02,-0.25,21.50,10.81,-38.94
368010427,-1.30,-2.41,9.30,-0.13,0.06,-0.34,21.50,10.81,-38.94
368020695,1.19,-0.84,11.19,-0.13,0.06,-0.34,21.50,10.81,-38.94
368030417,1.19,-0.84,11.19,-0.15,0.09,-0.52,21.50,10.81,-38.94
368039765,1.19,-0.84,11.19,-0.20,0.15,-0.62,21.50,10.81,-38.94
368051018,0.08,0.50,9.08,-0.20,0.15,-0.62,21.50,10.81,-38.94
368060427,0.08,0.50,9.08,-0.22,0.06,-0.80,21.50,10.81,-38.94
368070414,0.08,0.50,9.08,-0.24,0.08,-0.88,21.50,10.81,-38.94
368080240,1.34,2.11,8.89,-0.24,0.08,-0.88,21.50,10.81,-38.94
368090666,-0.15,2.45,9.61,-0.24,0.08,-0.88,21.50,10.81,-38.94
368100441,-0.15,2.45,9.61,-0.29,0.12,-1.07,21.50,10.81,-38.94
368110429,-0.15,2.45,9.61,-0.31,0.12,-1.12,21.50,10.81,-38.94
368120697,-1.95,0.96,11.54,-0.31,0.12,-1.12,21.50,10.81,-38.94
368130425,-1.95,0.96,11.54,-0.28,0.06,-1.16,21.50,10.81,-38.94
368140555,-1.95,0.96,11.54,-0.29,0.13,-1.19,21.50,10.81,-38.94
368150083,1.11,0.77,10.27,-0.29,0.13,-1.19,21.50,10.81,-38.94
368160703,1.65,1.42,11.04,-0.29,0.13,-1.19,21.50,10.81,-38.94
368170385,1.65,1.42,11.04,-0.28,0.19,-1.16,21.50,10.81,-38.94
368179331,1.65,1.42,11.04,-0.21,0.07,-1.13,21.50,10.81,-38.94
368190358,0.80,-0.08,8.77,-0.21,0.07,-1.13,21.50,10.81,-38.94
368200862,0.80,-0.08,8.77,-0.18,0.17,-1.06,21.50,10.81,-38.94
368210415,0.80,-0.08,8.77,-0.13,0.07,-1.04,21.50,10.81,-38.94
368219945,0.92,-1.76,10.00,-0.13,0.07,-1.04,21.50,10.81,-38.94
368230684,0.15,-2.38,9.38,-0.13,0.07,-1.04,21.50,10.81,-38.94
368240426,0.15,-2.38,9.38,-0.05,0.12,-0.90,21.50,10.81,-38.94
368250475,0.15,-2.38,9.38,-0.03,0.17,-0.86,21.50,10.81,-38.94
368260678,0.15,-2.61,10.00,-0.03,0.17,-0.86,21.50,10.81,-38.94
368270449,0.15,-2.61,10.00,0.04,0.20,-0.73,21.50,10.81,-38.94
368279747,0.15,-2.61,10.00,0.07,0.19,-0.65,21.50,10.81,-38.94
368290320,-0.73,-2.84,8.43,0.07,0.19,-0.65,21.50,10.81,-38.94
368300419,-0.73,-2.84,8.43,0.17,0.15,-0.43,21.50,10.81,-38.94
368310397,-0.73,-2.84,8.43,0.21,0.14,-0.31,21.50,10.81,-38.94
368320389,-0.73,-2.84,8.43,0.25,0.18,-0.18,21.50,10.81,-38.94
368330689,-1.88,-3.45,8.01,0.25,0.18,-0.18,21.50,10.81,-38.94
368340526,-1.88,-3.45,8.01,0.36,0.08,0.10,21.50,10.81,-38.94
368349770,-1.88,-3.45,8.01,0.40,0.13,0.25,21.50,10.81,-38.94
368360338,-2.22,-5.17,7.93,0.40,0.13,0.25,21.50,10.81,-38.94
368371113,-2.22,-5.17,7.93,0.51,0.04,0.51,21.50,10.81,-38.94
368380424,-2.22,-5.17,7.93,0.52,0.09,0.61,21.50,10.81,-38.94
368390487,-2.22,-5.17,7.93,0.49,0.18,0.67,21.50,10.81,-38.94
368400806,0.11,-4.75,8.89,0.49,0.18,0.67,21.50,10.81,-38.94
368410356,0.11,-4.75,8.89,0.55,0.09,0.77,21.50,10.81,-38.94
368419712,0.11,-4.75,8.89,0.54,0.05,0.77,21.50,10.81,-38.94
368430907,-1.57,-5.17,8.20,0.54,0.05,0.77,21.50,10.81,-38.94
368440403,-1.57,-5.17,8.20,0.57,0.06,0.79,21.50,10.81,-38.94
368449374,-1.57,-5.17,8.20,0.61,-0.04,0.79,21.50,10.81,-38.94
368459132,-1.57,-5.17,8.20,0.51,0.13,0.74,21.50,10.81,-38.94
368471048,-0.80,-2.64,8.08,0.51,0.13,0.74,21.50,10.81,-38.94
368480367,-0.80,-2.64,8.08,0.53,0.01,0.73,21.50,10.81,-38.94
368490432,-0.80,-2.64,8.08,0.47,0.12,0.74,21.50,10.81,-38.94
368500781,-1.57,-1.84,9.77,0.47,0.12,0.74,21.50,10.81,-38.94
368510366,-1.57,-1.84,9.77,0.49,0.03,0.77,21.50,10.81,-38.94
368520418,-1.57,-1.84,9.77,0.47,0.03,0.77,21.50,10.81,-38.94
368530007,-1.57,-1.84,9.77,0.47,-0.03,0.78,21.50,10.81,-38.94
368541582,-0.46,-1.04,11.07,0.47,-0.03,0.78,21.50,10.81,-38.94
368550569,-0.46,-1.04,11.07,0.45,0.01,0.82,21.50,10.81,-38.94
368560413,-0.46,-1.04,11.07,0.44,0.00,0.83,21.50,10.81,-38.94
368570712,-1.15,-1.76,7.70,0.44,0.00,0.83,21.50,10.81,-38.94
368580367,-1.15,-1.76,7.70,0.47,-0.10,0.88,21.50,10.81,-38.94
368589728,-1.15,-1.76,7.70,0.42,-0.03,0.85,21.50,10.81,-38.94
368599950,-1.23,-3.41,8.01,0.42,-0.03,0.85,21.50,10.81,-38.94
368611534,-0.73,-3.10,9.38,0.42,-0.03,0.85,21.50,10.81,-38.94
368620386,-0.73,-3.10,9.38,0.47,-0.12,0.87,21.50,10.81,-38.94
368630448,-0.73,-3.10,9.38,0.47,-0.11,0.86,21.50,10.81,-38.94
368639649,-2.18,-2.57,8.58,0.47,-0.11,0.86,21.50,10.81,-38.94
368649212,-2.18,-2.57,8.58,0.50,-0.11,0.95,21.50,10.81,-38.94
368660085,-2.18,-2.57,8.58,0.53,-0.18,0.98,21.50,10.81,-38.94
368670376,-0.19,-1.27,9.92,0.53,-0.18,0.98,21.50,10.81,-38.94
368680477,-0.19,-1.27,9.92,0.49,-0.11,1.11,21.50,10.81,-38.94
368690418,-0.19,-1.27,9.92,0.51,-0.18,1.18,21.50,10.81,-38.94
368700470,-0.19,-1.27,9.92,0.48,-0.14,1.26,21.50,10.81,-38.94
368710693,0.34,-0.96,9.04,0.48,-0.14,1.26,21.50,10.81,-38.94
368720354,0.34,-0.96,9.04,0.47,-0.16,1.42,21.50,10.81,-38.94
368729715,0.34,-0.96,9.04,0.50,-0.20,1.51,21.50,10.81,-38.94
368741909,0.92,-2.14,9.96,0.50,-0.20,1.51,21.50,10.81,-38.94
368750562,0.92,-2.14,9.96,0.52,-0.17,1.66,21.50,10.81,-38.94
368760398,0.92,-2.14,9.96,0.52,-0.18,1.71,21.50,10.81,-38.94
368769351,0.92,-2.14,9.96,0.51,-0.18,1.71,21.50,10.81,-38.94
368780377,0.19,-3.56,8.42,0.51,-0.18,1.71,21.50,10.81,-38.94
368790671,0.19,-3.56,8.42,0.53,-0.17,1.74,21.50,10.81,-38.94
368799844,0.19,-3.56,8.42,0.47,-0.10,1.71,21.50,10.81,-38.94
368810852,-0.23,-1.38,10.19,0.47,-0.10,1.71,21.50,10.81,-38.94
368820362,-0.23,-1.38,10.19,0.47,-0.16,1.67,21.50,10.81,-38.94
368830413,-0.23,-1.38,10.19,0.43,-0.12,1.62,21.50,10.81,-38.94
368840123,-0.23,-1.38,10.19,0.47,-0.21,1.63,21.50,10.81,-38.94
368850810,2.45,-0.84,10.92,0.47,-0.21,1.63,21.50,10.81,-38.94
368860413,2.45,-0.84,10.92,0.38,-0.06,1.62,21.50,10.81,-38.94
368870487,2.45,-0.84,10.92,0.36,-0.07,1.64,21.50,10.81,-38.94
368879644,1.11,0.23,10.07,0.36,-0.07,1.64,21.50,10.81,-38.94
368889172,1.11,0.23,10.07,0.31,-0.07,1.62,21.50,10.81,-38.94
368900807,1.11,0.23,10.07,0.30,-0.08,1.62,21.50,10.81,-38.94
368910319,1.11,0.23,10.07,0.27,-0.10,1.58,21.50,10.81,-38.94
368920373,1.11,0.23,10.07,0.22,-0.06,1.56,21.50,10.81,-38.94
368930375,1.11,0.23,10.07,0.18,-0.02,1.54,21.50,10.81,-38.94
368940497,1.11,0.23,10.07,0.17,-0.07,1.50,21.50,10.81,-38.94
368950827,1.11,0.50,9.88,0.17,-0.07,1.50,21.50,10.81,-38.94
368960428,1.11,0.50,9.88,0.12,0.05,1.47,21.50,10.81,-38.94
368969767,1.11,0.50,9.88,0.13,-0.09,1.42,21.50,10.81,-38.94
368979985,1.11,0.50,9.88,0.10,-0.13,1.34,21.50,10.81,-38.94
368990687,1.34,-0.15,9.61,0.10,-0.13,1.34,21.50,10.81,-38.94
369000477,1.34,-0.15,9.61,0.06,-0.07,1.25,21.50,10.81,-38.94
369009496,1.34,-0.15,9.61,0.03,-0.04,1.21,21.50,10.81,-38.94
369020398,0.84,0.80,10.80,0.03,-0.04,1.21,21.50,10.81,-38.94
369030697,0.84,0.80,10.80,-0.06,-0.05,1.05,21.50,10.81,-38.94
369039750,0.84,0.80,10.80,-0.02,-0.02,1.04,21.50,10.81,-38.94
369050288,0.84,0.80,10.80,0.01,-0.09,1.00,21.50,10.81,-38.94
369060442,0.84,0.80,10.80,-0.05,0.12,0.94,21.50,10.81,-38.94
369070479,0.84,0.80,10.80,-0.06,0.13,0.88,21.50,10.81,-38.94
369080501,0.84,0.80,10.80,-0.06,0.02,0.80,21.50,10.81,-38.94
369090695,-1.76,2.57,9.50,-0.06,0.02,0.80,21.50,10.81,-38.94
369100462,-1.76,2.57,9.50,-0.22,0.21,0.62,21.50,10.81,-38.94
369109720,-1.76,2.57,9.50,-0.24,0.07,0.46,21.50,10.81,-38.94
369121021,-1.80,2.07,7.09,-0.24,0.07,0.46,21.50,10.81,-38.94
369130388,-1.80,2.07,7.09,-0.32,0.09,0.22,21.50,10.81,-38.94
369140535,-1.80,2.07,7.09,-0.35,0.03,0.11,21.50,10.81,-38.94
369150492,-1.80,2.07,7.09,-0.38,0.05,0.02,21.50,10.81,-38.94
369161119,1.99,1.04,12.64,-0.38,0.05,0.02,21.50,10.81,-38.94
369170416,1.99,1.04,12.64,-0.36,0.15,-0.05,21.50,10.81,-38.94
369179705,1.99,1.04,12.64,-0.38,0.16,-0.11,21.50,10.81,-38.94
369190812,-0.15,2.41,11.72,-0.38,0.16,-0.11,21.50,10.81,-38.94
369201202,-0.15,2.41,11.72,-0.46,0.20,-0.23,21.50,10.81,-38.94
369210409,-0.15,2.41,11.72,-0.46,0.15,-0.29,21.50,10.81,-38.94
369220123,-0.15,2.41,11.72,-0.48,0.18,-0.35,21.50,10.81,-38.94
369230708,-2.61,2.07,6.75,-0.48,0.18,-0.35,21.50,10.81,-38.94
369240368,-2.61,2.07,6.75,-0.45,0.12,-0.43,21.50,10.81,-38.94
369250593,-2.61,2.07,6.75,-0.41,0.03,-0.43,21.50,10.81,-38.94
369260735,-2.30,-0.38,4.52,-0.41,0.03,-0.43,21.50,10.81,-38.94
369270388,-2.30,-0.38,4.52,-0.27,-0.06,-0.37,21.50,10.81,-38.94
369280409,-2.30,-0.38,4.52,-0.25,-0.08,-0.33,21.50,10.81,-38.94
369290007,-2.30,-0.38,4.52,-0.26,-0.04,-0.27,21.50,10.81,-38.94
369300753,0.84,-0.46,11.80,-0.26,-0.04,-0.27,21.50,10.81,-38.94
369310350,0.84,-0.46,11.80,-0.25,-0.05,-0.15,21.50,10.81,-38.94
369320384,0.84,-0.46,11.80,-0.22,0.02,-0.06,21.50,10.81,-38.94
369330682,-1.95,-2.11,8.58,-0.22,0.02,-0.06,21.50,10.81,-38.94
369340504,-1.95,-2.11,8.58,-0.22,0.02,-0.06,5.81,-19.38,-39.12
369349760,-1.95,-2.11,8.58,-0.22,0.02,-0.06,5.75,-19.88,-39.44
369359989,-1.95,-2.11,8.58,-0.05,-0.05,0.19,5.75,-19.88,-39.44
369370797,-2.53,-2.03,6.89,-0.05,-0.05,0.19,5.75,-19.88,-39.44
369380401,-2.53,-2.03,6.89,0.01,-0.11,0.29,5.75,-19.88,-39.44
369390389,-2.53,-2.03,6.89,0.01,-0.09,0.33,5.75,-19.88,-39.44
369400784,-1.49,-2.38,9.16,0.01,-0.09,0.33,5.75,-19.88,-39.44
369410404,-1.49,-2.38,9.16,0.01,-0.09,0.33,4.94,-19.56,-39.69
369419808,-1.49,-2.38,9.16,0.01,-0.09,0.33,4.62,-19.31,-39.44
369430284,-1.49,-2.38,9.16,0.12,-0.02,0.61,4.62,-19.31,-39.44
369440384,-1.49,-2.38,9.16,0.14,-0.03,0.67,4.62,-19.31,-39.44
369450451,-1.49,-2.38,9.16,0.18,0.01,0.73,4.62,-19.31,-39.44
369460414,-1.49,-2.38,9.16,0.23,-0.02,0.79,4.62,-19.31,-39.44
369470759,0.42,-1.84,8.88,0.23,-0.02,0.79,4.62,-19.31,-39.44
369480408,0.42,-1.84,8.88,0.22,0.08,0.85,4.62,-19.31,-39.44
369489724,0.42,-1.84,8.88,0.23,0.06,0.87,4.62,-19.31,-39.44
369501151,0.42,-1.84,8.88,0.21,0.14,0.86,4.62,-19.31,-39.44
369510436,0.42,-1.84,8.88,0.24,-0.04,0.84,4.62,-19.31,-39.44
369520408,0.42,-1.84,8.88,0.31,-0.19,0.80,4.62,-19.31,-39.44
369529325,0.42,-1.84,8.88,0.26,0.03,0.82,4.62,-19.31,-39.44
369540849,-2.61,-1.46,9.20,0.26,0.03,0.82,4.62,-19.31,-39.44
369550856,3.10,0.65,11.19,0.26,0.03,0.82,4.62,-19.31,-39.44
369560498,3.10,0.65,11.19,0.25,0.07,0.93,4.62,-19.31,-39.44
369570884,3.10,0.65,11.19,0.20,0.26,1.05,4.62,-19.31,-39.44
369580378,3.10,0.65,11.19,0.38,-0.18,1.14,4.62,-19.31,-39.44
369590376,3.10,0.65,11.19,0.39,-0.23,1.10,4.62,-19.31,-39.44
369600215,3.10,0.65,11.19,0.24,0.17,1.15,4.62,-19.31,-39.44
369610731,0.34,-1.04,8.20,0.24,0.17,1.15,4.62,-19.31,-39.44
369620387,0.34,-1.04,8.20,0.24,0.17,1.15,1.94,-21.06,-37.69
369630425,0.34,-1.04,8.20,0.24,0.17,1.15,2.00,-20.56,-37.25
369640705,0.34,-1.04,8.20,0.24,-0.06,1.16,2.00,-20.56,-37.25
369650461,0.34,-1.04,8.20,0.27,-0.05,1.19,2.00,-20.56,-37.25
369660492,0.34,-1.04,8.20,0.33,-0.12,1.21,2.00,-20.56,-37.25
369670087,0.34,-1.04,8.20,0.33,-0.04,1.20,2.00,-20.56,-37.25
369680711,0.34,-1.04,8.20,0.31,0.02,1.21,2.00,-20.56,-37.25
369690389,0.34,-1.04,8.20,0.32,0.01,1.21,2.00,-20.56,-37.25
369699338,0.34,-1.04,8.20,0.32,0.01,1.21,-0.56,-21.44,-36.06
369709171,0.34,-1.04,8.20,0.29,0.04,1.17,-0.56,-21.44,-36.06
369721049,0.65,-1.04,10.57,0.29,0.04,1.17,-0.56,-21.44,-36.06
369729749,0.65,-1.04,10.57,0.26,0.05,1.09,-0.56,-21.44,-36.06
369740070,0.65,-1.04,10.57,0.23,0.09,1.06,-0.56,-21.44,-36.06
369750796,-0.34,0.69,10.04,0.23,0.09,1.06,-0.56,-21.44,-36.06
369760430,-0.34,0.69,10.04,0.18,0.14,0.95,-0.56,-21.44,-36.06
369770442,-0.34,0.69,10.04,0.18,0.14,0.95,-2.50,-21.06,-38.31
369780759,-0.34,0.69,10.04,0.13,0.17,0.85,-2.50,-21.06,-38.31
369790488,-0.34,0.69,10.04,0.09,0.17,0.78,-2.50,-21.06,-38.31
369799716,-0.34,0.69,10.04,0.05,0.16,0.70,-2.50,-21.06,-38.31
369810342,-0.34,0.69,10.04,0.03,0.15,0.62,-2.50,-21.06,-38.31
369820390,-0.34,0.69,10.04,0.00,0.19,0.56,-2.50,-21.06,-38.31
369830441,-0.34,0.69,10.04,-0.01,0.20,0.50,-2.50,-21.06,-38.31
369840474,-0.34,0.69,10.04,-0.02,0.19,0.44,-2.50,-21.06,-38.31
369850871,-0.34,0.69,10.04,-0.03,0.19,0.40,-2.50,-21.06,-38.31
369860398,-0.34,0.69,10.04,-0.02,0.12,0.38,-2.50,-21.06,-38.31
369869736,-0.34,0.69,10.04,-0.06,0.22,0.38,-2.50,-21.06,-38.31
369881031,-0.34,0.69,10.04,-0.07,0.23,0.40,-2.50,-21.06,-38.31
369890387,-0.34,0.69,10.04,-0.07,0.25,0.44,-2.50,-21.06,-38.31
369900479,-0.34,0.69,10.04,-0.08,0.26,0.47,-2.50,-21.06,-38.31
369910293,-0.34,0.69,10.04,-0.05,0.17,0.53,-2.50,-21.06,-38.31
369920748,-0.34,0.69,10.04,-0.03,0.17,0.59,-2.50,-21.06,-38.31
369930403,-0.34,0.69,10.04,0.00,0.12,0.65,-2.50,-21.06,-38.31
369940543,-0.34,0.69,10.04,0.03,0.12,0.72,-2.50,-21.06,-38.31
369949687,-0.34,0.69,10.04,0.05,0.13,0.79,-2.50,-21.06,-38.31
369959170,-0.34,0.69,10.04,0.08,0.12,0.84,-2.50,-21.06,-38.31
369970752,-0.34,0.69,10.04,0.11,0.12,0.89,-2.50,-21.06,-38.31
369980147,-0.34,0.69,10.04,0.14,0.12,0.95,-2.50,-21.06,-38.31
369990840,-0.34,0.69,10.04,0.16,0.15,0.98,-2.50,-21.06,-38.31
370000507,-0.34,0.69,10.04,0.15,0.23,1.02,-2.50,-21.06,-38.31
370010429,-0.34,0.69,10.04,0.14,0.23,1.04,-2.50,-21.06,-38.31
370020727,-0.34,0.69,10.04,0.14,0.24,1.04,-2.50,-21.06,-38.31
370030403,-0.34,0.69,10.04,0.13,0.28,1.03,-2.50,-21.06,-38.31
370040413,-0.34,0.69,10.04,0.13,0.23,1.00,-2.50,-21.06,-38.31
370050069,-0.34,0.69,10.04,0.12,0.23,0.96,-2.50,-21.06,-38.31
370060725,-0.34,0.69,10.04,0.07,0.24,0.91,-2.50,-21.06,-38.31
370070443,-0.34,0.69,10.04,0.07,0.14,0.85,-2.50,-21.06,-38.31
370080488,-0.34,0.69,10.04,0.04,0.22,0.81,-2.50,-21.06,-38.31
370090732,-0.34,0.69,10.04,0.03,0.26,0.80,-2.50,-21.06,-38.31
370100498,-0.34,0.69,10.04,0.01,0.25,0.79,-2.50,-21.06,-38.31
370109713,-0.34,0.69,10.04,-0.06,0.32,0.76,-2.50,-21.06,-38.31
370119970,-0.34,0.69,10.04,-0.06,0.22,0.75,-2.50,-21.06,-38.31
370130723,-1.23,1.68,8.32,-0.06,0.22,0.75,-2.50,-21.06,-38.31
370140499,-1.23,1.68,8.32,-0.08,0.19,0.75,-2.50,-21.06,-38.31
370149378,-1.23,1.68,8.32,-0.09,0.20,0.75,-2.50,-21.06,-38.31
370160375,-1.23,1.68,8.32,-0.13,0.27,0.75,-2.50,-21.06,-38.31
370170758,-1.23,1.68,8.32,-0.12,0.19,0.74,-2.50,-21.06,-38.31
370180022,-1.23,1.68,8.32,-0.11,0.22,0.76,-2.50,-21.06,-38.31
370190084,-1.23,1.68,8.32,-0.10,0.20,0.78,-2.50,-21.06,-38.31
370201233,-1.23,1.68,8.32,-0.11,0.27,0.78,-2.50,-21.06,-38.31
370210395,-1.23,1.68,8.32,-0.10,0.23,0.79,-2.50,-21.06,-38.31
370220443,-1.23,1.68,8.32,-0.06,0.12,0.77,-2.50,-21.06,-38.31
370230735,-1.23,1.68,8.32,-0.08,0.28,0.80,-2.50,-21.06,-38.31
370240387,-1.23,1.68,8.32,-0.03,0.16,0.83,-2.50,-21.06,-38.31
370249730,-1.23,1.68,8.32,-0.01,0.11,0.83,-2.50,-21.06,-38.31
370261010,-1.23,1.68,8.32,-0.04,0.24,0.86,-2.50,-21.06,-38.31
370270481,-1.23,1.68,8.32,-0.00,0.17,0.90,-2.50,-21.06,-38.31
370280404,-1.23,1.68,8.32,-0.01,0.17,0.91,-2.50,-21.06,-38.31
370290422,-1.23,1.68,8.32,-0.01,0.19,0.93,-2.50,-21.06,-38.31
370300798,-1.23,1.68,8.32,0.00,0.23,0.98,-2.50,-21.06,-38.31
370310403,-1.23,1.68,8.32,-0.02,0.27,1.00,-2.50,-21.06,-38.31
370320494,-1.23,1.68,8.32,0.00,0.15,0.99,-2.50,-21.06,-38.31
370330791,-1.23,1.68,8.32,0.01,0.12,1.00,-2.50,-21.06,-38.31
370340516,-1.23,1.68,8.32,-0.00,0.15,1.01,-2.50,-21.06,-38.31
370349346,-1.23,1.68,8.32,-0.01,0.15,1.02,-2.50,-21.06,-38.31
370358908,-1.23,1.68,8.32,-0.02,0.19,1.05,-2.50,-21.06,-38.31
370370731,-1.23,1.68,8.32,-0.06,0.23,1.07,-2.50,-21.06,-38.31
370380404,-1.23,1.68,8.32,-0.09,0.24,1.09,-2.50,-21.06,-38.31
370390483,-1.23,1.68,8.32,-0.08,0.23,1.12,-2.50,-21.06,-38.31
370400620,-1.23,1.68,8.32,-0.06,0.25,1.13,-2.50,-21.06,-38.31
370410448,-1.23,1.68,8.32,-0.06,0.22,1.11,-2.50,-21.06,-38.31
370420425,-1.23,1.68,8.32,-0.10,0.23,1.06,-2.50,-21.06,-38.31
370430015,-1.23,1.68,8.32,-0.13,0.22,1.01,-2.50,-21.06,-38.31
370440725,-1.23,1.68,8.32,-0.15,0.21,0.97,-2.50,-21.06,-38.31
370450485,-1.23,1.68,8.32,-0.18,0.24,0.90,-2.50,-21.06,-38.31
370460441,-1.23,1.68,8.32,-0.18,0.22,0.85,-2.50,-21.06,-38.31
370470524,-1.23,1.68,8.32,-0.19,0.21,0.82,-2.50,-21.06,-38.31
370480426,-1.23,1.68,8.32,-0.23,0.28,0.78,-2.50,-21.06,-38.31
370489784,-1.23,1.68,8.32,-0.24,0.24,0.73,-2.50,-21.06,-38.31
370499987,-1.23,1.68,8.32,-0.24,0.16,0.68,-2.50,-21.06,-38.31
370510721,-0.61,0.84,9.54,-0.24,0.16,0.68,-2.50,-21.06,-38.31
370520435,-0.61,0.84,9.54,-0.27,0.15,0.59,-2.50,-21.06,-38.31
370530443,-0.61,0.84,9.54,-0.30,0.21,0.56,-2.50,-21.06,-38.31
370540829,-0.61,0.84,9.54,-0.33,0.26,0.54,-2.50,-21.06,-38.31
370549356,-0.61,0.84,9.54,-0.33,0.22,0.52,-2.50,-21.06,-38.31
370559198,-0.61,0.84,9.54,-0.33,0.23,0.51,-2.50,-21.06,-38.31
370570429,-0.61,0.84,9.54,-0.33,0.19,0.50,-2.50,-21.06,-38.31
370580739,-1.19,0.46,8.78,-0.33,0.19,0.50,-2.50,-21.06,-38.31
370589859,-1.19,0.46,8.78,-0.34,0.21,0.48,-2.50,-21.06,-38.31
370600565,-1.19,0.46,8.78,-0.34,0.18,0.47,-2.50,-21.06,-38.31
370610744,-1.19,0.46,8.78,-0.35,0.21,0.47,-2.50,-21.06,-38.31
370620390,-1.19,0.46,8.78,-0.33,0.13,0.47,-2.50,-21.06,-38.31
370629731,-1.19,0.46,8.78,-0.34,0.15,0.46,-2.50,-21.06,-38.31
370640380,-1.19,0.46,8.78,-0.33,0.14,0.47,-2.50,-21.06,-38.31
370650464,-1.19,0.46,8.78,-0.31,0.10,0.48,-2.50,-21.06,-38.31
370659807,-1.19,0.46,8.78,-0.31,0.14,0.48,-2.50,-21.06,-38.31
370670352,-1.19,0.46,8.78,-0.29,0.13,0.48,-2.50,-21.06,-38.31
370680069,-1.19,0.46,8.78,-0.26,0.13,0.48,-2.50,-21.06,-38.31
370689732,-1.19,0.46,8.78,-0.27,0.20,0.48,-2.50,-21.06,-38.31
370699786,-1.19,0.46,8.78,-0.27,0.18,0.49,-2.50,-21.06,-38.31
370710173,-1.19,0.46,8.78,-0.26,0.15,0.48,-2.50,-21.06,-38.31
370720406,-1.19,0.46,8.78,-0.26,0.10,0.46,-2.50,-21.06,-38.31
370729743,-1.19,0.46,8.78,-0.27,0.13,0.45,-2.50,-21.06,-38.31
370740217,-1.19,0.46,8.78,-0.26,0.11,0.44,-2.50,-21.06,-38.31
370750094,-1.19,0.46,8.78,-0.28,0.11,0.43,-2.50,-21.06,-38.31
370759734,-1.19,0.46,8.78,-0.29,0.11,0.41,-2.50,-21.06,-38.31
370769760,-1.19,0.46,8.78,-0.29,0.08,0.41,-2.50,-21.06,-38.31
370780043,-1.19,0.46,8.78,-0.29,0.12,0.43,-2.50,-21.06,-38.31
370789713,-1.19,0.46,8.78,-0.28,0.13,0.46,-2.50,-21.06,-38.31
370799845,-1.19,0.46,8.78,-0.29,0.13,0.46,-2.50,-21.06,-38.31
370810012,-1.19,0.46,8.78,-0.29,0.12,0.44,-2.50,-21.06,-38.31
370820071,-1.19,0.46,8.78,-0.31,0.13,0.43,-2.50,-21.06,-38.31
370829752,-1.19,0.46,8.78,-0.33,0.13,0.40,-2.50,-21.06,-38.31
370839731,-1.19,0.46,8.78,-0.34,0.09,0.36,-2.50,-21.06,-38.31
370850063,-1.19,0.46,8.78,-0.36,0.10,0.31,-2.50,-21.06,-38.31
370859749,-1.19,0.46,8.78,-0.38,0.13,0.26,-2.50,-21.06,-38.31
370869813,-1.19,0.46,8.78,-0.36,0.03,0.22,-2.50,-21.06,-38.31
370879355,-1.19,0.46,8.78,-0.39,0.09,0.17,-2.50,-21.06,-38.31
370889718,-1.19,0.46,8.78,-0.40,0.11,0.12,-2.50,-21.06,-38.31
370900134,-1.19,0.46,8.78,-0.35,0.00,0.08,-2.50,-21.06,-38.31
370909783,-1.19,0.46,8.78,-0.39,0.12,0.04,-2.50,-21.06,-38.31
370920092,-1.19,0.46,8.78,-0.38,0.03,-0.01,-2.50,-21.06,-38.31
370929770,-1.19,0.46,8.78,-0.42,0.06,-0.06,-2.50,-21.06,-38.31
370941228,-1.19,0.46,8.78,-0.43,0.05,-0.10,-2.50,-21.06,-38.31
370950483,-1.19,0.46,8.78,-0.42,0.05,-0.14,-2.50,-21.06,-38.31
370959755,-1.19,0.46,8.78,-0.42,0.09,-0.16,-2.50,-21.06,-38.31
370969751,-1.19,0.46,8.78,-0.42,0.01,-0.19,-2.50,-21.06,-38.31
370979812,-1.19,0.46,8.78,-0.42,0.04,-0.22,-2.50,-21.06,-38.31
370990093,-1.19,0.46,8.78,-0.43,0.09,-0.23,-2.50,-21.06,-38.31
370999731,-1.19,0.46,8.78,-0.40,-0.02,-0.23,-2.50,-21.06,-38.31
371010204,-1.19,0.46,8.78,-0.41,0.07,-0.24,-2.50,-21.06,-38.31
371020043,-1.19,0.46,8.78,-0.38,0.01,-0.23,-2.50,-21.06,-38.31
371030083,1.04,0.65,8.78,-0.38,0.01,-0.23,-2.50,-21.06,-38.31
371039735,1.04,0.65,8.78,-0.38,0.05,-0.22,-2.50,-21.06,-38.31
371049703,1.04,0.65,8.78,-0.36,-0.00,-0.22,-2.50,-21.06,-38.31
371060062,1.04,0.65,8.78,-0.34,-0.03,-0.23,-2.50,-21.06,-38.31
371071176,1.04,0.65,8.78,-0.36,0.05,-0.25,-2.50,-21.06,-38.31
371079785,1.04,0.65,8.78,-0.33,-0.04,-0.26,-2.50,-21.06,-38.31
371089853,1.04,0.65,8.78,-0.34,-0.02,-0.28,-2.50,-21.06,-38.31
371100107,-2.91,-0.77,8.78,-0.34,-0.02,-0.28,-2.50,-21.06,-38.31
371109781,-2.91,-0.77,8.78,-0.32,-0.01,-0.36,-2.50,-21.06,-38.31
371119489,-2.91,-0.77,8.78,-0.28,-0.07,-0.38,-2.50,-21.06,-38.31
371130068,-2.91,-0.77,8.78,-0.34,0.08,-0.41,-2.50,-21.06,-38.31
371141212,-2.91,-0.77,8.78,-0.35,0.07,-0.45,-2.50,-21.06,-38.31
371149805,-2.91,-0.77,8.78,-0.30,-0.08,-0.49,-2.50,-21.06,-38.31
371160066,-2.91,-0.77,8.78,-0.32,-0.04,-0.52,-2.50,-21.06,-38.31
371169752,-2.91,-0.77,8.78,-0.33,0.03,-0.53,-2.50,-21.06,-38.31
371179755,-2.91,-0.77,8.78,-0.31,-0.02,-0.53,-2.50,-21.06,-38.31
371189467,-2.91,-0.77,8.78,-0.29,-0.06,-0.54,-2.50,-21.06,-38.31
371200060,-2.91,-0.77,8.78,-0.30,0.02,-0.52,-2.50,-21.06,-38.31
371209787,-2.91,-0.77,8.78,-0.27,0.03,-0.47,-2.50,-21.06,-38.31
371219766,-2.91,-0.77,8.78,-0.23,-0.04,-0.44,-2.50,-21.06,-38.31
371230082,-2.91,-0.77,8.78,-0.21,-0.02,-0.40,-2.50,-21.06,-38.31
371239742,-2.91,-0.77,8.78,-0.19,0.01,-0.35,-2.50,-21.06,-38.31
371249730,-2.91,-0.77,8.78,-0.20,0.02,-0.32,-2.50,-21.06,-38.31
371259425,-2.91,-0.77,8.78,-0.16,-0.04,-0.27,-2.50,-21.06,-38.31
371269669,-2.91,-0.77,8.78,-0.14,-0.01,-0.21,-2.50,-21.06,-38.31
371279180,-2.91,-0.77,8.78,-0.13,-0.06,-0.16,-2.50,-21.06,-38.31
371290108,-2.91,-0.77,8.78,-0.14,0.03,-0.11,-2.50,-21.06,-38.31
371300054,-2.91,-0.77,8.78,-0.08,0.00,-0.04,-2.50,-21.06,-38.31
371309793,-2.91,-0.77,8.78,-0.04,-0.02,0.02,-2.50,-21.06,-38.31
371319736,-2.91,-0.77,8.78,-0.01,0.02,0.07,-2.50,-21.06,-38.31
371329366,-2.91,-0.77,8.78,0.05,-0.03,0.12,-2.50,-21.06,-38.31
371340182,-2.91,-0.77,8.78,0.06,-0.02,0.15,-2.50,-21.06,-38.31
371349778,-2.91,-0.77,8.78,0.05,0.04,0.18,-2.50,-21.06,-38.31
371359800,-2.91,-0.77,8.78,0.08,-0.00,0.19,-2.50,-21.06,-38.31
371370123,-2.91,-0.77,8.78,0.09,-0.04,0.21,-2.50,-21.06,-38.31
371379717,-2.91,-0.77,8.78,0.07,0.01,0.22,-2.50,-21.06,-38.31
371389748,-2.91,-0.77,8.78,0.07,-0.03,0.24,-2.50,-21.06,-38.31
371401474,-2.91,-0.77,8.78,0.08,0.02,0.29,-2.50,-21.06,-38.31
371410104,-2.91,-0.77,8.78,0.08,0.06,0.35,-2.50,-21.06,-38.31
371419756,-2.91,-0.77,8.78,0.12,-0.00,0.41,-2.50,-21.06,-38.31
371429758,-2.91,-0.77,8.78,0.13,0.02,0.51,-2.50,-21.06,-38.31
371440060,-2.91,-0.77,8.78,0.11,0.08,0.60,-2.50,-21.06,-38.31
371449723,-2.91,-0.77,8.78,0.20,-0.12,0.69,-2.50,-21.06,-38.31
371459782,-2.91,-0.77,8.78,0.21,-0.07,0.80,-2.50,-21.06,-38.31
371471277,-2.91,-0.77,8.78,0.18,0.08,0.92,-2.50,-21.06,-38.31
371480054,-2.91,-0.77,8.78,0.26,-0.04,1.01,-2.50,-21.06,-38.31
371489764,-2.91,-0.77,8.78,0.29,-0.01,1.08,-2.50,-21.06,-38.31
371499589,-2.91,-0.77,8.78,0.27,0.06,1.13,-2.50,-21.06,-38.31
371510074,-2.91,-0.77,8.78,0.27,-0.07,1.12,-2.50,-21.06,-38.31
371519805,-2.91,-0.77,8.78,0.24,-0.09,1.07,-2.50,-21.06,-38.31
371529751,-2.91,-0.77,8.78,0.20,-0.02,1.02,-2.50,-21.06,-38.31
371539860,-2.91,-0.77,8.78,0.15,-0.01,0.96,-2.50,-21.06,-38.31
371550096,-2.91,-0.77,8.78,0.10,0.02,0.87,-2.50,-21.06,-38.31
371559779,-2.91,-0.77,8.78,0.06,0.03,0.80,-2.50,-21.06,-38.31
371569440,-2.91,-0.77,8.78,0.00,0.08,0.71,-2.50,-21.06,-38.31
371580082,-2.91,-0.77,8.78,-0.01,0.08,0.65,-2.50,-21.06,-38.31
371589715,-2.91,-0.77,8.78,-0.02,0.02,0.59,-2.50,-21.06,-38.31
371599832,-2.91,-0.77,8.78,-0.09,0.00,0.47,-2.50,-21.06,-38.31
371609749,-2.91,-0.77,8.78,-0.11,-0.06,0.39,-2.50,-21.06,-38.31
371620103,-2.91,-0.77,8.78,-0.15,-0.02,0.33,-2.50,-21.06,-38.31
371629359,-2.91,-0.77,8.78,-0.18,-0.06,0.25,-2.50,-21.06,-38.31
371638806,-2.91,-0.77,8.78,-0.17,-0.08,0.22,-2.50,-21.06,-38.31
371650479,-2.91,-0.77,8.78,-0.21,0.03,0.20,-2.50,-21.06,-38.31
371659763,-2.91,-0.77,8.78,-0.22,-0.00,0.18,-2.50,-21.06,-38.31
371670516,-2.91,-0.77,8.78,-0.22,0.00,0.17,-2.50,-21.06,-38.31
371680077,-2.91,-0.77,8.78,-0.24,-0.02,0.13,-2.50,-21.06,-38.31
371689730,-2.91,-0.77,8.78,-0.24,-0.07,0.08,-2.50,-21.06,-38.31
371699734,-2.91,-0.77,8.78,-0.27,0.00,0.05,-2.50,-21.06,-38.31
371709407,-2.91,-0.77,8.78,-0.26,-0.04,0.01,-2.50,-21.06,-38.31
371720785,-2.91,-0.77,8.78,-0.28,0.00,-0.01,-2.50,-21.06,-38.31
371729746,-2.91,-0.77,8.78,-0.27,0.00,0.00,-2.50,-21.06,-38.31
371539860,-2.91,-0.77,8.78,0.15,-0.01,0.96,-2.50,-21.06,-38.31
371550096,-2.91,-0.77,8.78,0.10,0.02,0.87,-2.50,-21.06,-38.31
371559779,-2.91,-0.77,8.78,0.06,0.03,0.80,-2.50,-21.06,-38.31
371569440,-2.91,-0.77,8.78,0.00,0.08,0.71,-2.50,-21.06,-38.31
371580082,-2.91,-0.77,8.78,-0.01,0.08,0.65,-2.50,-21.06,-38.31
371589715,-2.91,-0.77,8.78,-0.02,0.02,0.59,-2.50,-21.06,-38.31
371599832,-2.91,-0.77,8.78,-0.09,0.00,0.47,-2.50,-21.06,-38.31
371609749,-2.91,-0.77,8.78,-0.11,-0.06,0.39,-2.50,-21.06,-38.31
371620103,-2.91,-0.77,8.78,-0.15,-0.02,0.33,-2.50,-21.06,-38.31
371629359,-2.91,-0.77,8.78,-0.18,-0.06,0.25,-2.50,-21.06,-38.31
371638806,-2.91,-0.77,8.78,-0.17,-0.08,0.22,-2.50,-21.06,-38.31
371650479,-2.91,-0.77,8.78,-0.21,0.03,0.20,-2.50,-21.06,-38.31
371659763,-2.91,-0.77,8.78,-0.22,-0.00,0.18,-2.50,-21.06,-38.31
371670516,-2.91,-0.77,8.78,-0.22,0.00,0.17,-2.50,-21.06,-38.31
371680077,-2.91,-0.77,8.78,-0.24,-0.02,0.13,-2.50,-21.06,-38.31
371689730,-2.91,-0.77,8.78,-0.24,-0.07,0.08,-2.50,-21.06,-38.31
371699734,-2.91,-0.77,8.78,-0.27,0.00,0.05,-2.50,-21.06,-38.31
371709407,-2.91,-0.77,8.78,-0.26,-0.04,0.01,-2.50,-21.06,-38.31
371720785,-2.91,-0.77,8.78,-0.28,0.00,-0.01,-2.50,-21.06,-38.31
371729746,-2.91,-0.77,8.78,-0.27,0.00,0.00,-2.50,-21.06,-38.31
