timestamp,accX,accY,accZ,gyroX,gyroY,gyroZ,magX,magY,magZ
Left Turn
476338665,-0.19,-3.41,8.89,-0.04,0.01,0.39,3.25,-0.38,-48.94
476355327,-0.19,-3.41,8.89,-0.07,0.01,0.34,3.25,-0.38,-48.94
476358057,-0.19,-3.41,8.89,0.33,-0.02,1.17,3.25,-0.38,-48.94
476367044,1.07,-1.34,8.82,0.33,-0.02,1.17,3.25,-0.38,-48.94
476377812,1.07,-1.34,8.82,0.38,-0.02,1.33,3.25,-0.38,-48.94
476387790,1.07,-1.34,8.82,0.37,-0.00,1.43,3.25,-0.38,-48.94
476398129,1.07,-1.34,8.82,0.38,0.01,1.48,3.25,-0.38,-48.94
476407892,1.07,-1.34,8.82,0.41,-0.02,1.54,3.25,-0.38,-48.94
476417901,1.07,-1.34,8.82,0.43,0.02,1.59,3.25,-0.38,-48.94
476427384,1.07,-1.34,8.82,0.43,0.03,1.62,3.25,-0.38,-48.94
476438136,1.07,-1.34,8.82,0.42,0.07,1.61,3.25,-0.38,-48.94
476447840,1.07,-1.34,8.82,0.44,0.08,1.59,3.25,-0.38,-48.94
476457872,1.07,-1.34,8.82,0.44,0.06,1.55,3.25,-0.38,-48.94
476468331,1.07,-1.34,8.82,0.41,0.09,1.48,3.25,-0.38,-48.94
476477808,1.07,-1.34,8.82,0.38,0.04,1.38,3.25,-0.38,-48.94
476487841,1.07,-1.34,8.82,0.34,0.03,1.30,3.25,-0.38,-48.94
476498097,1.07,-1.34,8.82,0.25,0.09,1.21,3.25,-0.38,-48.94
476508196,1.07,-1.34,8.82,0.20,0.08,1.14,3.25,-0.38,-48.94
476517896,1.07,-1.34,8.82,0.18,0.13,1.12,3.25,-0.38,-48.94
476527840,1.07,-1.34,8.82,0.14,0.21,1.09,3.25,-0.38,-48.94
476538233,1.07,-1.34,8.82,0.13,0.18,1.05,3.25,-0.38,-48.94
476547856,1.07,-1.34,8.82,0.11,0.19,1.01,3.25,-0.38,-48.94
476557810,1.07,-1.34,8.82,0.08,0.20,0.96,3.25,-0.38,-48.94
476568134,1.07,-1.34,8.82,0.03,0.18,0.88,3.25,-0.38,-48.94
476578418,0.42,0.88,10.07,0.03,0.18,0.88,3.25,-0.38,-48.94
476587813,0.42,0.88,10.07,-0.06,0.19,0.69,3.25,-0.38,-48.94
476597814,0.42,0.88,10.07,-0.07,0.18,0.60,3.25,-0.38,-48.94
476608204,0.42,0.88,10.07,-0.08,0.19,0.54,3.25,-0.38,-48.94
476617954,0.42,0.88,10.07,-0.11,0.22,0.49,3.25,-0.38,-48.94
476627827,0.42,0.88,10.07,-0.13,0.19,0.44,3.25,-0.38,-48.94
476637913,0.42,0.88,10.07,-0.12,0.19,0.39,3.25,-0.38,-48.94
476648166,0.50,0.34,8.31,-0.12,0.19,0.39,3.25,-0.38,-48.94
476657871,0.50,0.34,8.31,-0.09,0.10,0.37,3.25,-0.38,-48.94
476667570,0.50,0.34,8.31,-0.15,0.19,0.37,3.25,-0.38,-48.94
476678147,0.50,0.34,8.31,-0.16,0.16,0.39,3.25,-0.38,-48.94
476687813,0.50,0.34,8.31,-0.13,0.12,0.42,3.25,-0.38,-48.94
476697866,0.50,0.34,8.31,-0.10,0.14,0.44,3.25,-0.38,-48.94
476708210,0.50,0.34,8.31,-0.09,0.13,0.47,3.25,-0.38,-48.94
476717909,0.50,0.34,8.31,-0.08,0.14,0.51,3.25,-0.38,-48.94
476727826,0.50,0.34,8.31,-0.09,0.16,0.54,3.25,-0.38,-48.94
476737563,0.50,0.34,8.31,-0.06,0.12,0.61,3.25,-0.38,-48.94
476749501,0.50,0.34,8.31,-0.05,0.14,0.68,3.25,-0.38,-48.94
476757847,0.50,0.34,8.31,-0.00,0.12,0.77,3.25,-0.38,-48.94
476767970,0.50,0.34,8.31,0.04,0.12,0.86,3.25,-0.38,-48.94
476778135,0.50,0.34,8.31,0.06,0.15,0.93,3.25,-0.38,-48.94
476787820,0.50,0.34,8.31,0.10,0.10,0.98,3.25,-0.38,-48.94
476798263,0.50,0.34,8.31,0.11,0.11,1.04,3.25,-0.38,-48.94
476807446,0.50,0.34,8.31,0.11,0.13,1.08,3.25,-0.38,-48.94
476818315,0.50,0.34,8.31,0.13,0.10,1.12,3.25,-0.38,-48.94
476827820,0.50,0.34,8.31,0.13,0.14,1.17,3.25,-0.38,-48.94
476837426,0.50,0.34,8.31,0.13,0.13,1.20,3.25,-0.38,-48.94
476848135,0.50,0.34,8.31,0.13,0.10,1.22,3.25,-0.38,-48.94
476857877,0.50,0.34,8.31,0.11,0.11,1.26,3.25,-0.38,-48.94
476867984,0.50,0.34,8.31,0.12,0.13,1.28,3.25,-0.38,-48.94
476877453,0.50,0.34,8.31,0.13,0.11,1.28,3.25,-0.38,-48.94
476888135,0.50,0.34,8.31,0.12,0.14,1.29,3.25,-0.38,-48.94
476897815,0.50,0.34,8.31,0.12,0.17,1.29,3.25,-0.38,-48.94
476907881,0.50,0.34,8.31,0.12,0.16,1.26,3.25,-0.38,-48.94
476918281,0.50,0.34,8.31,0.09,0.17,1.20,3.25,-0.38,-48.94
476927794,0.50,0.34,8.31,0.06,0.21,1.12,3.25,-0.38,-48.94
476939038,0.50,0.34,8.31,0.04,0.18,1.03,3.25,-0.38,-48.94
476949507,0.50,0.34,8.31,-0.01,0.20,0.91,3.25,-0.38,-48.94
476958134,0.50,0.34,8.31,-0.08,0.23,0.77,3.25,-0.38,-48.94
476967971,0.50,0.34,8.31,-0.12,0.17,0.63,3.25,-0.38,-48.94
476977874,0.50,0.34,8.31,-0.17,0.16,0.50,3.25,-0.38,-48.94
476988133,0.50,0.34,8.31,-0.20,0.15,0.39,3.25,-0.38,-48.94
476997899,0.50,0.34,8.31,-0.21,0.07,0.29,3.25,-0.38,-48.94
477007810,0.50,0.34,8.31,-0.22,-0.02,0.20,3.25,-0.38,-48.94
477018015,0.50,0.34,8.31,-0.21,-0.12,0.16,3.25,-0.38,-48.94
477028140,0.50,0.34,8.31,-0.21,-0.14,0.16,3.25,-0.38,-48.94
477037804,0.50,0.34,8.31,-0.21,-0.19,0.17,3.25,-0.38,-48.94
477047623,0.50,0.34,8.31,-0.21,-0.22,0.24,3.25,-0.38,-48.94
477058129,0.50,0.34,8.31,-0.22,-0.12,0.35,3.25,-0.38,-48.94
477067997,0.50,0.34,8.31,-0.22,-0.03,0.45,3.25,-0.38,-48.94
477077445,0.50,0.34,8.31,-0.18,-0.10,0.50,3.25,-0.38,-48.94
477087791,0.50,0.34,8.31,-0.12,-0.23,0.57,3.25,-0.38,-48.94
477098155,0.50,0.34,8.31,-0.06,-0.28,0.64,3.25,-0.38,-48.94
477107793,0.50,0.34,8.31,-0.11,-0.11,0.74,3.25,-0.38,-48.94
477117571,0.50,0.34,8.31,-0.16,0.10,0.81,3.25,-0.38,-48.94
477128170,0.50,0.34,8.31,-0.11,0.14,0.89,3.25,-0.38,-48.94
477137918,0.50,0.34,8.31,-0.02,0.13,1.03,3.25,-0.38,-48.94
477147864,0.50,0.34,8.31,0.06,0.09,1.15,3.25,-0.38,-48.94
477157796,0.50,0.34,8.31,0.08,0.12,1.18,3.25,-0.38,-48.94
477168273,-2.14,-4.41,8.96,0.08,0.12,1.18,3.25,-0.38,-48.94
477177793,-2.14,-4.41,8.96,0.17,0.14,1.25,3.25,-0.38,-48.94
477187433,-2.14,-4.41,8.96,0.15,0.06,1.16,3.25,-0.38,-48.94
477199221,-2.14,-4.41,8.96,0.05,0.04,1.04,3.25,-0.38,-48.94
477207895,-2.14,-4.41,8.96,-0.03,0.07,0.97,3.25,-0.38,-48.94
477218647,-2.14,-4.41,8.96,-0.02,0.04,0.95,3.25,-0.38,-48.94
477228120,-2.14,-4.41,8.96,-0.01,-0.03,0.92,3.25,-0.38,-48.94
477237791,-2.14,-4.41,8.96,-0.01,0.03,0.93,3.25,-0.38,-48.94
477247856,-2.14,-4.41,8.96,-0.00,0.14,0.98,3.25,-0.38,-48.94
477257446,-2.14,-4.41,8.96,-0.02,0.14,0.97,3.25,-0.38,-48.94
477268995,-2.14,-4.41,8.96,-0.05,0.05,0.92,3.25,-0.38,-48.94
477277473,-2.14,-4.41,8.96,-0.12,0.15,0.85,3.25,-0.38,-48.94
477287844,-2.14,-4.41,8.96,-0.13,0.06,0.81,3.25,-0.38,-48.94
477297819,-2.14,-4.41,8.96,-0.19,0.07,0.74,3.25,-0.38,-48.94
477308165,-1.61,1.46,5.52,-0.19,0.07,0.74,3.25,-0.38,-48.94
477317938,-1.61,1.46,5.52,-0.25,-0.03,0.58,3.25,-0.38,-48.94
477327471,-1.61,1.46,5.52,-0.26,0.03,0.57,3.25,-0.38,-48.94
477338906,-1.61,1.46,5.52,-0.25,0.00,0.54,3.25,-0.38,-48.94
477348651,-1.61,1.46,5.52,-0.30,0.10,0.58,3.25,-0.38,-48.94
477358489,-1.61,1.46,5.52,-0.31,0.21,0.57,3.25,-0.38,-48.94
477368873,-1.61,1.46,5.52,-0.26,0.09,0.58,3.25,-0.38,-48.94
477377813,-1.61,1.46,5.52,-0.30,0.36,0.61,3.25,-0.38,-48.94
477388928,-1.61,1.46,5.52,-0.27,0.41,0.60,3.25,-0.38,-48.94
477398881,-1.61,1.46,5.52,-0.23,0.33,0.58,3.25,-0.38,-48.94
477407815,-1.61,1.46,5.52,-0.37,0.56,0.54,3.25,-0.38,-48.94
477418612,-1.61,1.46,5.52,-0.43,0.54,0.41,3.25,-0.38,-48.94
477428440,-1.61,1.46,5.52,-0.30,0.08,0.26,3.25,-0.38,-48.94
477438775,-1.61,1.46,5.52,-0.35,0.20,0.18,3.25,-0.38,-48.94
477448481,-1.61,1.46,5.52,-0.43,0.45,0.13,3.25,-0.38,-48.94
477458540,-1.61,1.46,5.52,-0.42,0.53,0.13,3.25,-0.38,-48.94
477468462,-1.61,1.46,5.52,-0.82,1.05,0.16,3.25,-0.38,-48.94
477478740,-1.61,1.46,5.52,-0.71,0.45,-0.07,3.25,-0.38,-48.94
477488559,-1.61,1.46,5.52,-0.27,-0.83,-0.32,3.25,-0.38,-48.94
477497484,-1.61,1.46,5.52,0.18,-0.99,-0.48,3.25,-0.38,-48.94
477508734,-1.61,1.46,5.52,-0.05,-0.48,-0.64,3.25,-0.38,-48.94
477518418,-1.61,1.46,5.52,-0.34,0.14,-0.36,3.25,-0.38,-48.94
477528542,-1.61,1.46,5.52,-0.72,0.93,0.13,3.25,-0.38,-48.94
477538474,-1.61,1.46,5.52,-0.68,0.37,0.19,3.25,-0.38,-48.94
477548690,-1.61,1.46,5.52,-0.07,-0.66,0.28,3.25,-0.38,-48.94
477558464,-1.61,1.46,5.52,-0.39,0.27,0.43,3.25,-0.38,-48.94
477567537,-1.61,1.46,5.52,-0.61,0.59,0.34,3.25,-0.38,-48.94
477578669,-1.61,1.46,5.52,-0.16,-0.52,0.19,3.25,-0.38,-48.94
477588331,-1.61,1.46,5.52,-0.12,-0.49,0.25,3.25,-0.38,-48.94
477598355,-1.61,1.46,5.52,-0.37,0.32,0.36,3.25,-0.38,-48.94
477608678,-1.61,1.46,5.52,-0.43,0.31,0.31,3.25,-0.38,-48.94
477618341,-1.61,1.46,5.52,-0.12,-0.38,0.29,3.25,-0.38,-48.94
477628493,-1.61,1.46,5.52,-0.20,0.03,0.38,3.25,-0.38,-48.94
477637416,-1.61,1.46,5.52,-0.19,0.21,0.44,3.25,-0.38,-48.94
477648654,-1.61,1.46,5.52,-0.02,-0.31,0.45,3.25,-0.38,-48.94
477657446,-1.61,1.46,5.52,-0.12,-0.09,0.46,3.25,-0.38,-48.94
477668447,-1.61,1.46,5.52,-0.14,0.09,0.55,3.25,-0.38,-48.94
477678609,-1.61,1.46,5.52,0.03,-0.18,0.63,3.25,-0.38,-48.94
477688252,-1.61,1.46,5.52,-0.04,0.05,0.69,3.25,-0.38,-48.94
477698462,-1.61,1.46,5.52,-0.09,0.19,0.77,3.25,-0.38,-48.94
477707426,-1.61,1.46,5.52,0.06,-0.11,0.83,3.25,-0.38,-48.94
477718659,-1.61,1.46,5.52,0.08,-0.04,0.92,3.25,-0.38,-48.94
477728265,-1.61,1.46,5.52,-0.01,0.04,0.95,3.25,-0.38,-48.94
477738423,-1.61,1.46,5.52,-0.01,-0.08,0.89,3.25,-0.38,-48.94
477748634,-1.61,1.46,5.52,-0.00,0.04,0.89,3.25,-0.38,-48.94
477758252,-1.61,1.46,5.52,0.06,-0.01,0.89,3.25,-0.38,-48.94
477768503,-1.61,1.46,5.52,0.09,-0.12,0.80,3.25,-0.38,-48.94
477778498,-1.61,1.46,5.52,0.04,-0.01,0.71,3.25,-0.38,-48.94
477788588,-1.61,1.46,5.52,0.00,0.11,0.67,3.25,-0.38,-48.94
477798400,-1.61,1.46,5.52,-0.03,0.15,0.61,3.25,-0.38,-48.94
477808170,-1.61,1.46,5.52,0.04,-0.12,0.48,3.25,-0.38,-48.94
477818324,-1.61,1.46,5.52,-0.05,-0.19,0.35,3.25,-0.38,-48.94
477828561,-1.61,1.46,5.52,-0.30,0.17,0.29,3.25,-0.38,-48.94
477838427,-1.61,1.46,5.52,-0.27,0.22,0.24,3.25,-0.38,-48.94
477848316,-1.61,1.46,5.52,-0.07,0.06,0.26,3.25,-0.38,-48.94
477858586,-1.61,1.46,5.52,-0.07,0.09,0.16,3.25,-0.38,-48.94
477868466,-1.61,1.46,5.52,-0.13,-0.16,-0.06,3.25,-0.38,-48.94
477878056,-1.61,1.46,5.52,-0.32,-0.09,-0.27,3.25,-0.38,-48.94
477888219,-1.61,1.46,5.52,-0.46,0.16,-0.41,3.25,-0.38,-48.94
477898560,-1.61,1.46,5.52,-0.44,0.23,-0.57,3.25,-0.38,-48.94
477908442,-1.61,1.46,5.52,-0.28,-0.00,-0.72,3.25,-0.38,-48.94
477918361,-1.61,1.46,5.52,-0.17,-0.13,-0.71,3.25,-0.38,-48.94
477928564,-1.61,1.46,5.52,-0.21,-0.02,-0.59,3.25,-0.38,-48.94
477938487,-1.61,1.46,5.52,-0.34,0.16,-0.50,3.25,-0.38,-48.94
477947996,-1.61,1.46,5.52,-0.34,0.08,-0.53,3.25,-0.38,-48.94
477958550,-1.61,1.46,5.52,-0.22,-0.06,-0.52,3.25,-0.38,-48.94
477968343,-1.61,1.46,5.52,-0.23,0.04,-0.52,3.25,-0.38,-48.94
477978346,-1.61,1.46,5.52,-0.21,0.01,-0.60,3.25,-0.38,-48.94
477988277,-1.61,1.46,5.52,-0.19,-0.12,-0.68,3.25,-0.38,-48.94
477998562,-1.61,1.46,5.52,-0.25,-0.06,-0.72,3.25,-0.38,-48.94
478008401,-1.61,1.46,5.52,-0.25,-0.05,-0.64,3.25,-0.38,-48.94
478018043,-1.61,1.46,5.52,-0.24,0.05,-0.47,3.25,-0.38,-48.94
478028554,-1.61,1.46,5.52,-0.15,-0.06,-0.33,3.25,-0.38,-48.94
478038291,-1.61,1.46,5.52,-0.01,-0.35,-0.14,3.25,-0.38,-48.94
478048344,-1.61,1.46,5.52,-0.09,0.06,0.11,3.25,-0.38,-48.94
478058577,-1.61,1.46,5.52,-0.06,0.16,0.26,3.25,-0.38,-48.94
478068339,-1.61,1.46,5.52,-0.01,-0.06,0.32,3.25,-0.38,-48.94
478078394,-1.61,1.46,5.52,-0.12,0.11,0.38,3.25,-0.38,-48.94
478087904,-1.61,1.46,5.52,-0.14,0.09,0.38,3.25,-0.38,-48.94
478098552,-1.61,1.46,5.52,-0.07,-0.20,0.32,3.25,-0.38,-48.94
478108269,-1.61,1.46,5.52,-0.15,-0.10,0.38,3.25,-0.38,-48.94
478118450,-1.61,1.46,5.52,-0.29,0.03,0.40,3.25,-0.38,-48.94
478128597,-1.61,1.46,5.52,-0.23,-0.25,0.39,3.25,-0.38,-48.94
478138367,-1.61,1.46,5.52,-0.28,0.03,0.49,3.25,-0.38,-48.94
478148480,-1.61,1.46,5.52,-0.27,0.13,0.60,3.25,-0.38,-48.94
478158548,-1.61,1.46,5.52,-0.21,-0.16,0.60,3.25,-0.38,-48.94
478168625,-1.61,1.46,5.52,-0.40,0.11,0.54,3.25,-0.38,-48.94
478178258,-1.61,1.46,5.52,-0.43,0.04,0.39,3.25,-0.38,-48.94
478188264,-1.61,1.46,5.52,-0.39,-0.14,0.30,3.25,-0.38,-48.94
478198155,-1.61,1.46,5.52,-0.59,0.15,0.15,3.25,-0.38,-48.94
478208198,-1.61,1.46,5.52,-0.61,-0.15,-0.12,3.25,-0.38,-48.94
478218384,-1.61,1.46,5.52,-0.55,-0.37,-0.26,3.25,-0.38,-48.94
478228437,-1.61,1.46,5.52,-0.64,-0.08,-0.29,3.25,-0.38,-48.94
478238575,-1.61,1.46,5.52,-0.63,-0.10,-0.33,3.25,-0.38,-48.94
478248297,-1.61,1.46,5.52,-0.69,0.03,-0.36,3.25,-0.38,-48.94
478258076,-1.61,1.46,5.52,-0.68,0.13,-0.36,3.25,-0.38,-48.94
478268199,-1.61,1.46,5.52,-0.55,-0.00,-0.33,3.25,-0.38,-48.94
478278513,-1.61,1.46,5.52,-0.51,-0.06,-0.34,3.25,-0.38,-48.94
478288344,-1.61,1.46,5.52,-0.52,-0.02,-0.34,3.25,-0.38,-48.94
478298192,-1.61,1.46,5.52,-0.53,-0.03,-0.35,3.25,-0.38,-48.94
478308517,-1.61,1.46,5.52,-0.63,0.01,-0.37,3.25,-0.38,-48.94
478318280,-1.61,1.46,5.52,-0.57,-0.17,-0.38,3.25,-0.38,-48.94
478327938,-1.61,1.46,5.52,-0.43,-0.26,-0.26,3.25,-0.38,-48.94
478338173,-1.61,1.46,5.52,-0.54,0.13,-0.14,3.25,-0.38,-48.94
478348518,-1.61,1.46,5.52,-0.61,0.22,-0.12,3.25,-0.38,-48.94
478358252,-1.61,1.46,5.52,-0.51,0.16,-0.07,3.25,-0.38,-48.94
478368117,-1.61,1.46,5.52,-0.54,0.18,-0.02,3.25,-0.38,-48.94
478378425,-1.61,1.46,5.52,-0.50,-0.13,-0.05,3.25,-0.38,-48.94
478388206,-1.61,1.46,5.52,-0.57,-0.15,-0.12,3.25,-0.38,-48.94
478397758,-1.61,1.46,5.52,-0.57,-0.31,-0.15,3.25,-0.38,-48.94
478408066,-1.61,1.46,5.52,-0.65,-0.16,-0.15,3.25,-0.38,-48.94
478418470,-1.61,1.46,5.52,-0.69,-0.07,-0.19,3.25,-0.38,-48.94
478428141,-1.61,1.46,5.52,-0.67,0.01,-0.19,3.25,-0.38,-48.94
478438041,-1.61,1.46,5.52,-0.79,0.20,-0.25,3.25,-0.38,-48.94
478448416,-1.61,1.46,5.52,-0.67,-0.18,-0.31,3.25,-0.38,-48.94
478458122,-1.61,1.46,5.52,-0.64,-0.27,-0.33,3.25,-0.38,-48.94
478467584,-1.61,1.46,5.52,-0.75,-0.12,-0.39,3.25,-0.38,-48.94
478478041,-1.61,1.46,5.52,-0.76,-0.16,-0.47,3.25,-0.38,-48.94
478488394,-1.61,1.46,5.52,-0.76,-0.10,-0.46,3.25,-0.38,-48.94
478498095,-1.61,1.46,5.52,-0.85,0.17,-0.50,3.25,-0.38,-48.94
478507979,-1.61,1.46,5.52,-0.71,-0.25,-0.60,3.25,-0.38,-48.94
478518304,-1.61,1.46,5.52,-0.70,-0.17,-0.65,3.25,-0.38,-48.94
478528068,-1.61,1.46,5.52,-0.79,-0.03,-0.71,3.25,-0.38,-48.94
478537582,-1.61,1.46,5.52,-0.75,-0.21,-0.81,3.25,-0.38,-48.94
478548271,-1.61,1.46,5.52,-0.75,0.02,-0.87,3.25,-0.38,-48.94
478557976,-1.61,1.46,5.52,-0.70,-0.02,-0.91,3.25,-0.38,-48.94
478568032,-1.61,1.46,5.52,-0.71,-0.10,-1.01,3.25,-0.38,-48.94
478578252,-1.61,1.46,5.52,-0.76,0.07,-1.13,3.25,-0.38,-48.94
478587994,-1.61,1.46,5.52,-0.63,-0.18,-1.18,3.25,-0.38,-48.94
478598026,-1.61,1.46,5.52,-0.62,-0.16,-1.22,3.25,-0.38,-48.94
478607523,-1.61,1.46,5.52,-0.67,-0.01,-1.32,3.25,-0.38,-48.94
478618209,-1.61,1.46,5.52,-0.61,0.03,-1.38,3.25,-0.38,-48.94
478627893,-1.61,1.46,5.52,-0.54,0.05,-1.36,3.25,-0.38,-48.94
478638241,-1.61,1.46,5.52,-0.59,0.27,-1.36,3.25,-0.38,-48.94
478648251,-1.61,1.46,5.52,-0.55,0.23,-1.42,3.25,-0.38,-48.94
478657883,-1.61,1.46,5.52,-0.37,-0.01,-1.40,3.25,-0.38,-48.94
478668007,-1.61,1.46,5.52,-0.36,0.13,-1.31,3.25,-0.38,-48.94
478677456,-1.61,1.46,5.52,-0.28,0.10,-1.27,3.25,-0.38,-48.94
478688146,-1.61,1.46,5.52,-0.25,0.16,-1.20,3.25,-0.38,-48.94
478697837,-1.61,1.46,5.52,-0.27,0.24,-1.16,3.25,-0.38,-48.94
478707876,-1.61,1.46,5.52,-0.11,0.04,-1.07,3.25,-0.38,-48.94
478717823,-1.61,1.46,5.52,-0.07,0.14,-0.97,3.25,-0.38,-48.94
478728110,-1.61,1.46,5.52,-0.09,0.23,-0.89,3.25,-0.38,-48.94
478737915,-1.61,1.46,5.52,-0.09,0.30,-0.80,3.25,-0.38,-48.94
478748071,-1.61,1.46,5.52,-0.01,0.38,-0.66,3.25,-0.38,-48.94
478758150,-1.61,1.46,5.52,0.06,0.33,-0.55,3.25,-0.38,-48.94
478767810,-1.61,1.46,5.52,0.24,-0.05,-0.50,3.25,-0.38,-48.94
478777790,-1.61,1.46,5.52,0.26,0.02,-0.52,3.25,-0.38,-48.94
478787725,-1.61,1.46,5.52,0.18,0.15,-0.57,3.25,-0.38,-48.94
478798065,-1.61,1.46,5.52,0.05,0.32,-0.70,3.25,-0.38,-48.94
478807843,-1.61,1.46,5.52,-0.14,0.54,-0.85,3.25,-0.38,-48.94
478817892,-1.61,1.46,5.52,-0.17,0.33,-0.98,3.25,-0.38,-48.94
478827750,-1.61,1.46,5.52,-0.30,0.48,-1.08,3.25,-0.38,-48.94
478837802,-1.61,1.46,5.52,-0.31,0.56,-1.14,3.25,-0.38,-48.94
478847630,-1.61,1.46,5.52,-0.11,0.41,-1.14,3.25,-0.38,-48.94
478857710,-1.61,1.46,5.52,0.05,0.34,-1.12,3.25,-0.38,-48.94
478868070,-1.61,1.46,5.52,0.23,0.15,-1.12,3.25,-0.38,-48.94
478877790,-1.61,1.46,5.52,0.18,0.45,-1.16,3.25,-0.38,-48.94
478887719,-1.61,1.46,5.52,0.04,0.68,-1.25,3.25,-0.38,-48.94
478898052,-1.61,1.46,5.52,-0.02,0.56,-1.37,3.25,-0.38,-48.94
478907750,-1.61,1.46,5.52,-0.00,0.44,-1.44,3.25,-0.38,-48.94
478917528,-1.61,1.46,5.52,0.04,0.44,-1.42,3.25,-0.38,-48.94
478927611,-1.61,1.46,5.52,0.04,0.44,-1.32,3.25,-0.38,-48.94
478938021,-1.61,1.46,5.52,0.03,0.56,-1.20,3.25,-0.38,-48.94
478947740,-1.61,1.46,5.52,0.15,0.63,-1.04,3.25,-0.38,-48.94
478957621,-1.61,1.46,5.52,0.30,0.44,-0.82,3.25,-0.38,-48.94
478968014,-1.61,1.46,5.52,0.37,0.28,-0.73,3.25,-0.38,-48.94
478978103,-1.61,1.46,5.52,0.32,0.47,-0.66,3.25,-0.38,-48.94
478988544,-1.61,1.46,5.52,0.31,0.52,-0.55,3.25,-0.38,-48.94
478997953,-6.47,-2.61,10.88,0.31,0.52,-0.55,3.25,-0.38,-48.94
479006889,-6.47,-2.61,10.88,0.31,0.52,-0.55,-5.81,-2.50,-50.19
479017692,-6.47,-2.61,10.88,0.40,0.21,-0.30,-5.81,-2.50,-50.19
479027559,-6.47,-2.61,10.88,0.47,0.01,-0.22,-5.81,-2.50,-50.19
479037859,-6.47,-2.61,10.88,0.46,0.11,-0.17,-5.81,-2.50,-50.19
479047676,-6.47,-2.61,10.88,0.31,0.52,-0.07,-5.81,-2.50,-50.19
479058145,-6.47,-2.61,10.88,0.13,0.75,-0.08,-5.81,-2.50,-50.19
479068252,-6.47,-2.61,10.88,0.26,0.27,-0.13,-5.81,-2.50,-50.19
479077535,-6.47,-2.61,10.88,0.26,0.27,-0.13,-4.56,-2.69,-49.44
479086896,-6.47,-2.61,10.88,0.26,0.27,-0.13,-5.69,-2.56,-49.75
479097512,-6.47,-2.61,10.88,0.24,0.40,-0.01,-5.69,-2.56,-49.75
479107821,-6.47,-2.61,10.88,0.28,0.11,0.04,-5.69,-2.56,-49.75
479117610,-6.47,-2.61,10.88,0.28,0.08,0.10,-5.69,-2.56,-49.75
479128009,-6.47,-2.61,10.88,0.30,0.11,0.19,-5.69,-2.56,-49.75
479138195,-6.47,-2.61,10.88,0.32,0.12,0.26,-5.69,-2.56,-49.75
479147515,-6.47,-2.61,10.88,0.32,0.12,0.26,-4.38,-4.06,-49.12
479156893,-6.47,-2.61,10.88,0.32,0.12,0.26,-4.56,-4.94,-48.56
479167611,-6.47,-2.61,10.88,0.35,0.16,0.54,-4.56,-4.94,-48.56
479177795,4.48,-8.58,5.98,0.35,0.16,0.54,-4.56,-4.94,-48.56
479187558,4.48,-8.58,5.98,0.36,0.24,0.46,-4.56,-4.94,-48.56
479198041,4.48,-8.58,5.98,0.45,0.19,0.42,-4.56,-4.94,-48.56
479208077,4.48,-8.58,5.98,0.41,0.23,0.29,-4.56,-4.94,-48.56
479217529,4.48,-8.58,5.98,0.41,0.23,0.29,-3.38,-5.38,-47.75
479226888,4.48,-8.58,5.98,0.41,0.23,0.29,-3.50,-5.00,-48.25
479237434,4.48,-8.58,5.98,0.32,0.24,0.13,-3.50,-5.00,-48.25
479247773,-0.50,2.49,10.61,0.32,0.24,0.13,-3.50,-5.00,-48.25
479257527,-0.50,2.49,10.61,0.25,0.15,0.05,-3.50,-5.00,-48.25
479267904,-0.50,2.49,10.61,0.19,0.16,0.03,-3.50,-5.00,-48.25
479278082,-0.50,2.49,10.61,0.12,0.19,-0.02,-3.50,-5.00,-48.25
479287436,-0.50,2.49,10.61,0.12,0.19,-0.02,-3.75,-5.25,-48.31
479296895,-0.50,2.49,10.61,0.12,0.19,-0.02,-3.56,-4.94,-48.75
479307437,-0.50,2.49,10.61,0.06,0.26,-0.33,-3.56,-4.94,-48.75
479317824,-4.83,-3.37,9.84,0.06,0.26,-0.33,-3.56,-4.94,-48.75
479327438,-4.83,-3.37,9.84,0.14,0.04,-0.48,-3.56,-4.94,-48.75
479337861,-4.83,-3.37,9.84,0.17,0.06,-0.50,-3.56,-4.94,-48.75
479348102,-4.83,-3.37,9.84,0.14,0.06,-0.52,-3.56,-4.94,-48.75
479357419,-4.83,-3.37,9.84,0.14,0.06,-0.52,-2.25,-5.94,-47.75
479367773,-4.83,-3.37,9.84,0.14,0.06,-0.52,-3.12,-5.81,-48.44
479378140,-4.83,-3.37,9.84,0.18,-0.00,-0.38,-3.12,-5.81,-48.44
479387409,-4.83,-3.37,9.84,0.18,-0.00,-0.38,-1.62,-6.44,-48.38
479397772,-4.83,-3.37,9.84,0.18,-0.00,-0.38,-2.69,-6.19,-50.00
479407430,-4.83,-3.37,9.84,0.21,0.20,-0.11,-2.69,-6.19,-50.00
479418525,-4.83,-3.37,9.84,0.28,0.13,-0.04,-2.69,-6.19,-50.00
479428505,-4.83,-3.37,9.84,0.32,0.08,0.00,-2.69,-6.19,-50.00
479438122,-4.83,-3.37,9.84,0.32,0.08,0.00,-1.94,-6.25,-49.69
479448455,-4.83,-3.37,9.84,0.32,0.08,0.00,-2.62,-6.75,-49.81
479458152,-4.83,-3.37,9.84,0.32,0.08,0.00,-2.25,-6.00,-49.44
479468280,-4.83,-3.37,9.84,0.32,0.08,0.00,-2.25,-6.75,-48.06
479478188,-4.83,-3.37,9.84,0.32,0.08,0.00,-2.25,-6.75,-48.06
479488484,-4.83,-3.37,9.84,0.32,0.08,0.00,-1.62,-7.56,-48.56
479498142,-4.83,-3.37,9.84,0.32,0.08,0.00,-0.62,-8.44,-46.06
479507652,-4.83,-3.37,9.84,0.32,0.08,0.00,-0.75,-7.38,-47.94
479517208,-4.83,-3.37,9.84,0.32,0.08,0.00,-1.25,-7.00,-48.56
479528407,-4.83,-3.37,9.84,0.26,0.19,0.24,-1.25,-7.00,-48.56
479538580,-4.83,-3.37,9.84,0.29,-0.10,0.17,-1.25,-7.00,-48.56
479548065,-4.83,-3.37,9.84,0.29,-0.10,0.17,-0.25,-8.75,-45.88
479558365,-4.83,-3.37,9.84,0.29,-0.10,0.17,-1.31,-7.75,-48.94
479568143,-4.83,-3.37,9.84,0.29,-0.10,0.17,-0.62,-8.44,-47.69
479577758,-4.83,-3.37,9.84,0.29,-0.10,0.17,-1.62,-8.00,-47.19
479588306,-4.83,-3.37,9.84,0.29,-0.10,0.17,-1.38,-8.69,-47.88
479598037,-4.83,-3.37,9.84,0.29,-0.10,0.17,-1.56,-7.81,-48.50
479608135,-4.83,-3.37,9.84,0.29,-0.10,0.17,0.38,-8.94,-46.50
479618022,-4.83,-3.37,9.84,0.29,-0.10,0.17,-0.56,-10.06,-46.12
479628302,-4.83,-3.37,9.84,0.29,-0.10,0.17,-1.75,-9.44,-48.19
479638091,-4.83,-3.37,9.84,0.29,-0.10,0.17,-1.62,-9.31,-47.38
479647553,-4.83,-3.37,9.84,0.29,-0.10,0.17,-1.56,-9.94,-48.88
479658291,-4.83,-3.37,9.84,0.29,-0.10,0.17,-0.44,-8.38,-48.50
479667946,-4.83,-3.37,9.84,0.29,-0.10,0.17,-0.88,-9.56,-47.56
479678070,-4.83,-3.37,9.84,0.29,-0.10,0.17,-1.62,-8.56,-48.81
479687915,-4.83,-3.37,9.84,0.29,-0.10,0.17,-1.75,-9.44,-48.19
479698224,-4.83,-3.37,9.84,0.29,-0.10,0.17,-1.88,-10.12,-49.00
479708012,-4.83,-3.37,9.84,0.29,-0.10,0.17,-1.56,-10.38,-47.56
479717479,-4.83,-3.37,9.84,0.29,-0.10,0.17,-1.56,-10.38,-47.56
479728120,-4.83,-3.37,9.84,0.29,-0.10,0.17,-0.50,-10.62,-46.00
479737939,-4.83,-3.37,9.84,0.29,-0.10,0.17,-0.94,-11.06,-46.44
479747966,-4.83,-3.37,9.84,0.29,-0.10,0.17,-0.81,-11.12,-45.94
479758223,-4.83,-3.37,9.84,0.29,-0.10,0.17,-0.31,-10.75,-45.06
479767871,-4.83,-3.37,9.84,0.29,-0.10,0.17,0.31,-10.94,-45.69
479777986,-4.83,-3.37,9.84,0.29,-0.10,0.17,0.31,-11.69,-44.31
479787517,-4.83,-3.37,9.84,0.29,-0.10,0.17,-0.19,-11.62,-44.88
479798143,-4.83,-3.37,9.84,0.29,-0.10,0.17,0.88,-11.94,-44.94
479807831,-4.83,-3.37,9.84,0.29,-0.10,0.17,0.25,-12.44,-44.69
479817908,-4.83,-3.37,9.84,0.29,-0.10,0.17,-0.75,-10.62,-45.62
479828125,-4.83,-3.37,9.84,0.29,-0.10,0.17,-0.44,-11.19,-45.88
479837778,-4.83,-3.37,9.84,0.29,-0.10,0.17,-0.75,-12.50,-46.12
479847879,-4.83,-3.37,9.84,0.29,-0.10,0.17,-0.31,-12.06,-47.31
479857417,-4.83,-3.37,9.84,0.29,-0.10,0.17,-2.00,-11.12,-47.94
479868087,-4.83,-3.37,9.84,0.29,-0.10,0.17,-0.56,-11.88,-46.56
479877780,-4.83,-3.37,9.84,0.29,-0.10,0.17,-0.75,-12.75,-46.06
479887857,-4.83,-3.37,9.84,0.29,-0.10,0.17,-1.06,-11.81,-47.12
479897741,-4.83,-3.37,9.84,0.29,-0.10,0.17,-1.19,-11.94,-48.00
479907734,-4.83,-3.37,9.84,0.29,-0.10,0.17,-1.88,-12.00,-47.75
479917823,-4.83,-3.37,9.84,0.29,-0.10,0.17,-0.19,-12.56,-41.75
479927406,-4.83,-3.37,9.84,0.29,-0.10,0.17,0.56,-14.12,-42.12
479938002,-4.83,-3.37,9.84,0.29,-0.10,0.17,-0.81,-13.19,-44.69
479947708,-4.83,-3.37,9.84,0.29,-0.10,0.17,-1.12,-12.94,-44.44
479957768,-4.83,-3.37,9.84,0.29,-0.10,0.17,-0.88,-13.44,-45.12
479968085,-4.83,-3.37,9.84,0.29,-0.10,0.17,-0.19,-14.12,-43.94
479977670,-4.83,-3.37,9.84,0.29,-0.10,0.17,-0.19,-14.44,-43.88
479987866,-4.83,-3.37,9.84,0.29,-0.10,0.17,-1.31,-13.12,-45.25
479997840,-4.83,-3.37,9.84,0.29,-0.10,0.17,-1.31,-13.12,-45.25
480007985,-4.83,-3.37,9.84,0.29,-0.10,0.17,-1.75,-13.81,-46.06
480017653,-4.83,-3.37,9.84,0.29,-0.10,0.17,-0.56,-13.38,-45.44
480027615,-4.83,-3.37,9.84,0.29,-0.10,0.17,-1.31,-13.62,-45.62
480037986,-4.83,-3.37,9.84,0.29,-0.10,0.17,-2.44,-13.81,-45.88
480047630,-4.83,-3.37,9.84,0.29,-0.10,0.17,-1.50,-13.50,-46.50
480057703,-4.83,-3.37,9.84,0.29,-0.10,0.17,-1.94,-14.19,-45.25
480067671,-4.83,-3.37,9.84,0.29,-0.10,0.17,-1.94,-14.19,-45.25
480077914,-4.83,-3.37,9.84,0.29,-0.10,0.17,-0.25,-14.88,-42.56
480087661,-4.83,-3.37,9.84,0.29,-0.10,0.17,-0.62,-15.31,-43.00
480097415,-4.83,-3.37,9.84,0.29,-0.10,0.17,-0.38,-14.50,-43.06
480107858,-4.83,-3.37,9.84,0.29,-0.10,0.17,-0.75,-14.19,-43.25
480117543,-4.83,-3.37,9.84,0.29,-0.10,0.17,-1.94,-14.88,-43.81
480127663,-4.83,-3.37,9.84,0.29,-0.10,0.17,-1.00,-14.81,-42.75
480137607,-4.83,-3.37,9.84,0.29,-0.10,0.17,-1.00,-14.81,-42.75
480147857,-4.83,-3.37,9.84,0.29,-0.10,0.17,-1.75,-14.81,-44.62
480157618,-4.83,-3.37,9.84,0.29,-0.10,0.17,-2.31,-15.12,-44.31
480167534,-4.83,-3.37,9.84,0.29,-0.10,0.17,-2.38,-14.06,-45.75
480177799,-4.83,-3.37,9.84,0.29,-0.10,0.17,-2.31,-15.19,-45.50
480187535,-4.83,-3.37,9.84,0.29,-0.10,0.17,-2.25,-14.31,-41.94
480197599,-4.83,-3.37,9.84,0.29,-0.10,0.17,-3.00,-14.38,-45.44
480207499,-4.83,-3.37,9.84,0.29,-0.10,0.17,-3.75,-13.25,-45.44
480217778,-4.83,-3.37,9.84,0.29,-0.10,0.17,-2.69,-14.31,-45.81
480227551,-4.83,-3.37,9.84,0.29,-0.10,0.17,-3.56,-14.44,-44.75
480237381,-4.83,-3.37,9.84,0.29,-0.10,0.17,-2.81,-15.25,-43.06
480247841,-4.83,-3.37,9.84,0.29,-0.10,0.17,-1.12,-14.75,-43.25
480257443,-4.83,-3.37,9.84,0.29,-0.10,0.17,-3.44,-14.00,-43.94
480267542,-4.83,-3.37,9.84,0.29,-0.10,0.17,-2.50,-14.69,-43.19
480277436,-4.83,-3.37,9.84,0.29,-0.10,0.17,-2.06,-14.75,-43.06
480287778,-4.83,-3.37,9.84,0.29,-0.10,0.17,-3.31,-14.88,-43.75
480297556,-4.83,-3.37,9.84,0.29,-0.10,0.17,-4.19,-13.62,-44.25
480307486,-4.83,-3.37,9.84,0.29,-0.10,0.17,-3.50,-14.19,-44.38
480317817,-4.83,-3.37,9.84,0.29,-0.10,0.17,-3.56,-13.62,-44.50
480327420,-4.83,-3.37,9.84,0.29,-0.10,0.17,-4.56,-13.19,-45.69
480337507,-4.83,-3.37,9.84,0.29,-0.10,0.17,-3.94,-14.69,-44.81
480347761,-4.83,-3.37,9.84,0.29,-0.10,0.17,-4.00,-13.81,-45.00
480357408,-4.83,-3.37,9.84,0.29,-0.10,0.17,-4.25,-13.12,-46.00
480367513,-4.83,-3.37,9.84,0.29,-0.10,0.17,-4.50,-13.69,-43.81
480377398,-4.83,-3.37,9.84,0.29,-0.10,0.17,-3.06,-13.75,-43.94
480387826,-4.83,-3.37,9.84,0.29,-0.10,0.17,-3.69,-13.31,-45.00
480397465,-4.83,-3.37,9.84,0.29,-0.10,0.17,-3.44,-13.69,-44.00
480407415,-4.83,-3.37,9.84,0.29,-0.10,0.17,-5.25,-13.69,-45.75
480417792,-4.83,-3.37,9.84,0.29,-0.10,0.17,-3.69,-13.00,-45.06
480427404,-4.83,-3.37,9.84,0.29,-0.10,0.17,-4.62,-12.38,-45.88
480437434,-4.83,-3.37,9.84,0.29,-0.10,0.17,-4.75,-13.31,-46.50
480447476,-4.83,-3.37,9.84,0.29,-0.10,0.17,-5.69,-12.62,-47.31
480457716,-4.83,-3.37,9.84,0.29,-0.10,0.17,-4.56,-13.69,-46.00
480467521,-4.83,-3.37,9.84,0.29,-0.10,0.17,-5.56,-13.44,-45.44
480477397,-4.83,-3.37,9.84,0.29,-0.10,0.17,-5.25,-12.88,-45.50
480487703,-4.83,-3.37,9.84,0.29,-0.10,0.17,-5.12,-13.31,-46.62
480497456,-4.83,-3.37,9.84,0.29,-0.10,0.17,-5.50,-13.25,-46.69
480507401,-4.83,-3.37,9.84,0.29,-0.10,0.17,-4.75,-13.00,-44.94
480517523,-4.83,-3.37,9.84,0.29,-0.10,0.17,-5.62,-13.12,-45.50
480527709,-4.83,-3.37,9.84,0.29,-0.10,0.17,-3.69,-13.31,-45.00
480537550,-4.83,-3.37,9.84,0.29,-0.10,0.17,-4.06,-12.50,-44.81
480547452,-4.83,-3.37,9.84,0.29,-0.10,0.17,-5.19,-12.00,-46.50
480557719,-4.83,-3.37,9.84,0.29,-0.10,0.17,-5.50,-11.50,-47.88
480567514,-4.83,-3.37,9.84,0.29,-0.10,0.17,-5.38,-12.62,-47.62
480577407,-4.83,-3.37,9.84,0.29,-0.10,0.17,-5.81,-12.25,-46.12
480587403,-4.83,-3.37,9.84,0.29,-0.10,0.17,-5.06,-11.81,-47.75
480597785,-4.83,-3.37,9.84,0.29,-0.10,0.17,-6.62,-11.44,-48.19
480607434,-4.83,-3.37,9.84,0.29,-0.10,0.17,-6.50,-12.06,-47.62
480617489,-4.83,-3.37,9.84,0.29,-0.10,0.17,-5.94,-13.44,-47.19
480627688,-4.83,-3.37,9.84,0.29,-0.10,0.17,-5.50,-12.50,-46.44
480637414,-4.83,-3.37,9.84,0.29,-0.10,0.17,-6.12,-11.81,-47.56
480647492,-4.83,-3.37,9.84,0.29,-0.10,0.17,-6.25,-11.38,-46.44
480657410,-4.83,-3.37,9.84,0.29,-0.10,0.17,-6.25,-11.38,-46.44
480667843,-4.83,-3.37,9.84,0.29,-0.10,0.17,-5.38,-11.56,-47.44
480677716,-4.83,-3.37,9.84,0.29,-0.10,0.17,-6.12,-11.75,-45.94
480686857,-13.79,-2.80,12.22,0.29,-0.10,0.17,-6.12,-11.75,-45.94
480697744,-13.79,-2.80,12.22,0.29,-0.10,0.17,-6.62,-10.94,-47.88
480707785,-13.79,-2.80,12.22,0.29,-0.10,0.17,-6.12,-11.00,-47.31
480717563,18.43,4.60,8.12,0.29,-0.10,0.17,-6.12,-11.00,-47.31
480726843,3.37,0.08,4.67,0.29,-0.10,0.17,-6.12,-11.00,-47.31
480737826,3.37,0.08,4.67,0.29,-0.10,0.17,-6.12,-11.00,-47.31
480747775,3.37,0.08,4.67,0.29,-0.10,0.17,-6.31,-10.81,-46.56
480756877,1.76,-0.04,7.77,0.29,-0.10,0.17,-6.31,-10.81,-46.56
480767833,1.76,-0.04,7.77,0.29,-0.10,0.17,-6.12,-10.25,-47.06
480777727,1.76,-0.04,7.77,0.29,-0.10,0.17,-6.12,-9.94,-47.12
480786962,10.80,0.23,15.13,0.29,-0.10,0.17,-6.12,-9.94,-47.12
480797473,10.80,0.23,15.13,0.29,-0.10,0.17,-7.12,-9.75,-48.25
480807769,10.80,0.23,15.13,0.29,-0.10,0.17,-6.44,-10.75,-47.06
480817493,10.80,0.23,15.13,0.29,-0.10,0.17,-6.56,-12.44,-44.62
480827391,10.80,0.23,15.13,0.29,-0.10,0.17,-6.56,-11.19,-47.81
480838053,10.80,0.23,15.13,0.29,-0.10,0.17,-6.25,-11.38,-46.44
480847433,6.40,0.23,10.77,0.29,-0.10,0.17,-6.25,-11.38,-46.44
480856914,6.44,0.30,5.32,0.29,-0.10,0.17,-6.25,-11.38,-46.44
480867538,6.44,0.30,5.32,0.29,-0.10,0.17,-5.75,-10.00,-47.00
480878037,6.44,0.30,5.32,0.29,-0.10,0.17,-5.38,-10.00,-46.94
480887404,-1.15,-0.96,11.76,0.29,-0.10,0.17,-5.38,-10.00,-46.94
480896860,1.42,0.38,6.51,0.29,-0.10,0.17,-5.38,-10.00,-46.94
480907758,1.42,0.38,6.51,0.29,-0.10,0.17,-6.69,-9.25,-47.81
480917940,1.42,0.38,6.51,0.29,-0.10,0.17,-6.25,-9.06,-47.31
480927721,-4.02,-3.37,9.96,0.29,-0.10,0.17,-6.25,-9.06,-47.31
480937518,1.11,-1.30,10.27,0.29,-0.10,0.17,-6.25,-9.06,-47.31
480947452,1.61,-0.38,9.08,0.29,-0.10,0.17,-6.25,-9.06,-47.31
480956861,-2.49,-0.77,9.58,0.29,-0.10,0.17,-6.25,-9.06,-47.31
480968209,-2.49,-0.77,9.58,0.29,-0.10,0.17,-5.94,-8.31,-49.06
480978056,-2.49,-0.77,9.58,0.29,-0.10,0.17,-6.81,-8.94,-48.31
480987410,-1.84,-0.08,10.00,0.29,-0.10,0.17,-6.81,-8.94,-48.31
480996953,4.21,4.25,11.41,0.29,-0.10,0.17,-6.81,-8.94,-48.31
481007771,4.21,4.25,11.41,0.29,-0.10,0.17,-6.00,-9.56,-48.00
481017815,4.21,4.25,11.41,0.29,-0.10,0.17,-6.19,-9.44,-48.94
481027411,-0.50,-0.54,8.70,0.29,-0.10,0.17,-6.19,-9.44,-48.94
481036855,-0.23,1.23,9.96,0.29,-0.10,0.17,-6.19,-9.44,-48.94
481048098,-0.23,1.23,9.96,0.29,-0.10,0.17,-6.94,-9.94,-49.00
481057436,2.49,-1.76,11.30,0.29,-0.10,0.17,-6.94,-9.94,-49.00
481067031,0.77,-2.64,10.57,0.29,-0.10,0.17,-6.94,-9.94,-49.00
481077715,0.77,-2.64,10.57,0.29,-0.10,0.17,-6.38,-8.75,-47.81
481087728,0.77,-2.64,10.57,0.29,-0.10,0.17,-6.75,-9.50,-48.19
481097422,0.96,-2.26,8.01,0.29,-0.10,0.17,-6.75,-9.50,-48.19
481107412,2.76,-2.61,9.31,0.29,-0.10,0.17,-6.75,-9.50,-48.19
481117556,2.72,-2.95,10.19,0.29,-0.10,0.17,-6.75,-9.50,-48.19
481127714,2.72,-2.95,10.19,0.29,-0.10,0.17,-6.06,-10.00,-46.69
481137527,-3.03,-2.87,9.92,0.29,-0.10,0.17,-6.06,-10.00,-46.69
481147766,-1.04,-3.45,10.41,0.29,-0.10,0.17,-6.06,-10.00,-46.69
481157410,-0.61,-2.87,8.04,0.29,-0.10,0.17,-6.06,-10.00,-46.69
481167505,-1.61,-2.87,7.13,0.29,-0.10,0.17,-6.06,-10.00,-46.69
481177391,-2.72,-1.61,7.70,0.29,-0.10,0.17,-6.06,-10.00,-46.69
481187744,-2.76,-0.80,8.62,0.29,-0.10,0.17,-6.06,-10.00,-46.69
481197442,-0.80,-2.18,9.80,0.29,-0.10,0.17,-6.06,-10.00,-46.69
481207493,-1.00,-1.84,10.23,0.29,-0.10,0.17,-6.06,-10.00,-46.69
481217884,-0.57,-1.42,11.22,0.29,-0.10,0.17,-6.06,-10.00,-46.69
481227409,-1.84,0.96,8.74,0.29,-0.10,0.17,-6.06,-10.00,-46.69
481237706,0.19,0.88,8.54,0.29,-0.10,0.17,-6.06,-10.00,-46.69
481246876,0.19,0.88,8.54,0.02,-0.04,0.50,-6.06,-10.00,-46.69
481257519,1.65,0.27,10.27,0.02,-0.04,0.50,-6.06,-10.00,-46.69
481267869,1.65,0.27,10.27,0.02,-0.04,0.50,-7.19,-9.88,-45.31
481277740,-1.04,0.88,9.08,0.02,-0.04,0.50,-7.19,-9.88,-45.31
481287424,0.11,1.00,10.19,0.02,-0.04,0.50,-7.19,-9.88,-45.31
481297424,-0.54,1.53,7.85,0.02,-0.04,0.50,-7.19,-9.88,-45.31
481307714,1.34,0.69,8.32,0.02,-0.04,0.50,-7.19,-9.88,-45.31
481318235,1.34,0.69,8.32,-0.20,0.11,0.32,-7.19,-9.88,-45.31
481327412,-0.88,-0.27,11.57,-0.20,0.11,0.32,-7.19,-9.88,-45.31
481137527,-3.03,-2.87,9.92,0.29,-0.10,0.17,-6.06,-10.00,-46.69
