timestamp,accX,accY,accZ,gyroX,gyroY,gyroZ,magX,magY,magZ
Break
288544713,-25.44,-14.67,11.99,-0.14,0.45,-0.18,3.69,3.81,-45.88
288561494,-25.44,-14.67,11.99,0.60,-0.99,-0.07,3.69,3.81,-45.88
288564698,2.38,-2.84,8.81,0.60,-0.99,-0.07,3.69,3.81,-45.88
288572315,2.38,-2.84,8.81,-0.05,-0.04,-0.12,3.69,3.81,-45.88
288582658,2.38,-2.84,8.81,-0.05,-0.04,-0.12,-12.50,6.06,-49.06
288593422,-2.80,-2.07,10.35,-0.05,-0.04,-0.12,-12.50,6.06,-49.06
288604250,-0.77,-1.95,12.34,-0.05,-0.04,-0.12,-12.50,6.06,-49.06
288613912,-0.77,-1.95,12.34,-0.04,-0.03,-0.07,-12.50,6.06,-49.06
288623828,-0.77,-1.95,12.34,-0.03,0.10,-0.04,-12.50,6.06,-49.06
288634151,0.88,2.34,6.36,-0.03,0.10,-0.04,-12.50,6.06,-49.06
288643883,0.88,2.34,6.36,-0.03,-0.12,0.00,-12.50,6.06,-49.06
288653258,0.88,2.34,6.36,-0.15,0.23,0.02,-12.50,6.06,-49.06
288663773,-3.79,-3.03,10.88,-0.15,0.23,0.02,-12.50,6.06,-49.06
288673845,-3.79,-3.03,10.88,0.11,-0.27,0.04,-12.50,6.06,-49.06
288683938,-3.79,-3.03,10.88,-0.03,-0.01,0.02,-12.50,6.06,-49.06
288693896,-3.79,-3.03,10.88,-0.04,0.06,0.08,-12.50,6.06,-49.06
288704257,0.27,-0.46,11.07,-0.04,0.06,0.08,-12.50,6.06,-49.06
288713896,0.27,-0.46,11.07,-0.10,0.14,0.04,-12.50,6.06,-49.06
288723190,0.27,-0.46,11.07,-0.07,0.06,0.01,-12.50,6.06,-49.06
288733774,-1.15,-0.42,6.63,-0.07,0.06,0.01,-12.50,6.06,-49.06
288743936,-1.15,-0.42,6.63,-0.01,-0.06,0.03,-12.50,6.06,-49.06
288754012,-1.15,-0.42,6.63,-0.06,-0.04,-0.06,-12.50,6.06,-49.06
288763908,-1.15,-0.42,6.63,-0.07,0.11,-0.03,-12.50,6.06,-49.06
288774169,-0.88,-2.64,6.36,-0.07,0.11,-0.03,-12.50,6.06,-49.06
288783831,-0.88,-2.64,6.36,0.05,-0.20,-0.07,-12.50,6.06,-49.06
288793198,-0.88,-2.64,6.36,-0.11,0.16,-0.09,-12.50,6.06,-49.06
288804483,-1.49,-1.84,8.20,-0.11,0.16,-0.09,-12.50,6.06,-49.06
288814676,-1.49,-1.84,8.20,-0.01,-0.11,-0.12,-12.50,6.06,-49.06
288823834,-1.49,-1.84,8.20,-0.09,0.14,-0.13,-12.50,6.06,-49.06
288833745,-1.00,-1.04,9.27,-0.09,0.14,-0.13,-12.50,6.06,-49.06
288844148,2.61,-0.46,10.49,-0.09,0.14,-0.13,-12.50,6.06,-49.06
288853896,2.61,-0.46,10.49,-0.16,0.21,-0.18,-12.50,6.06,-49.06
288863936,2.61,-0.46,10.49,-0.13,0.01,-0.20,-12.50,6.06,-49.06
288874284,0.42,1.04,10.80,-0.13,0.01,-0.20,-12.50,6.06,-49.06
288883838,0.42,1.04,10.80,-0.10,0.01,-0.16,-12.50,6.06,-49.06
288893890,0.42,1.04,10.80,-0.08,-0.04,-0.14,-12.50,6.06,-49.06
288903599,3.41,0.04,9.08,-0.08,-0.04,-0.14,-12.50,6.06,-49.06
288914254,-0.54,1.68,10.15,-0.08,-0.04,-0.14,-12.50,6.06,-49.06
288923843,-0.54,1.68,10.15,-0.20,0.03,-0.16,-12.50,6.06,-49.06
288933851,-0.54,1.68,10.15,-0.26,0.11,-0.25,-12.50,6.06,-49.06
288944261,-5.48,-3.45,9.46,-0.26,0.11,-0.25,-12.50,6.06,-49.06
288953949,-5.48,-3.45,9.46,-0.17,-0.20,-0.31,-12.50,6.06,-49.06
288963853,-5.48,-3.45,9.46,-0.27,-0.00,-0.29,-12.50,6.06,-49.06
288973421,-5.79,-3.98,4.33,-0.27,-0.00,-0.29,-12.50,6.06,-49.06
288984159,-3.29,-2.68,9.77,-0.27,-0.00,-0.29,-12.50,6.06,-49.06
288993961,-3.29,-2.68,9.77,-0.12,-0.05,0.02,-12.50,6.06,-49.06
289003924,-3.29,-2.68,9.77,-0.06,-0.04,0.10,-12.50,6.06,-49.06
289014186,-1.00,-3.68,7.36,-0.06,-0.04,0.10,-12.50,6.06,-49.06
289023885,-1.00,-3.68,7.36,-0.03,0.03,0.13,-12.50,6.06,-49.06
289033191,-1.00,-3.68,7.36,-0.01,-0.22,0.07,-12.50,6.06,-49.06
289043436,3.79,-2.11,11.57,-0.01,-0.22,0.07,-12.50,6.06,-49.06
289054579,-0.42,-2.61,5.32,-0.01,-0.22,0.07,-12.50,6.06,-49.06
289063844,-0.42,-2.61,5.32,-0.11,0.05,0.02,-12.50,6.06,-49.06
289073895,-0.42,-2.61,5.32,0.00,-0.34,-0.05,-12.50,6.06,-49.06
289084166,4.14,-0.42,13.21,0.00,-0.34,-0.05,-12.50,6.06,-49.06
289093830,4.14,-0.42,13.21,-0.25,0.20,-0.04,-12.50,6.06,-49.06
289103274,4.14,-0.42,13.21,-0.04,-0.15,-0.04,-12.50,6.06,-49.06
289114533,0.57,-1.46,12.64,-0.04,-0.15,-0.04,-12.50,6.06,-49.06
289123886,0.57,-1.46,12.64,-0.16,-0.07,-0.15,-12.50,6.06,-49.06
289133874,0.57,-1.46,12.64,-0.12,-0.11,-0.16,-12.50,6.06,-49.06
289143956,0.57,-1.46,12.64,-0.18,0.01,-0.14,-12.50,6.06,-49.06
289154281,-1.15,0.50,8.01,-0.18,0.01,-0.14,-12.50,6.06,-49.06
289163835,-1.15,0.50,8.01,-0.25,-0.04,-0.34,-12.50,6.06,-49.06
289173199,-1.15,0.50,8.01,-0.24,-0.04,-0.36,-12.50,6.06,-49.06
289184390,0.42,0.30,7.05,-0.24,-0.04,-0.36,-12.50,6.06,-49.06
289193803,0.42,0.30,7.05,-0.20,-0.18,-0.42,-12.50,6.06,-49.06
289204082,0.42,0.30,7.05,-0.25,-0.08,-0.42,-12.50,6.06,-49.06
289213728,0.42,0.30,7.05,-0.30,0.16,-0.38,-12.50,6.06,-49.06
289224216,-8.54,-4.02,9.39,-0.30,0.16,-0.38,-12.50,6.06,-49.06
289233843,-8.54,-4.02,9.39,-0.12,-0.20,-0.43,-12.50,6.06,-49.06
289243914,-8.54,-4.02,9.39,-0.12,-0.29,-0.46,-12.50,6.06,-49.06
289254252,5.13,1.84,5.79,-0.12,-0.29,-0.46,-12.50,6.06,-49.06
289263944,5.13,1.84,5.79,-0.37,0.29,-0.45,-12.50,6.06,-49.06
289273887,5.13,1.84,5.79,-0.29,0.09,-0.52,-12.50,6.06,-49.06
289283513,5.13,1.84,5.79,-0.17,-0.10,-0.50,-12.50,6.06,-49.06
289294162,4.86,-0.11,9.23,-0.17,-0.10,-0.50,-12.50,6.06,-49.06
289303937,4.86,-0.11,9.23,-0.19,0.08,-0.46,-12.50,6.06,-49.06
289313873,4.86,-0.11,9.23,-0.17,0.04,-0.50,-12.50,6.06,-49.06
289323160,-0.30,0.73,12.07,-0.17,0.04,-0.50,-12.50,6.06,-49.06
289332252,-0.30,0.73,12.07,-0.23,0.07,-0.51,-12.50,6.06,-49.06
289345105,-0.30,0.73,12.07,-0.17,0.02,-0.52,-12.50,6.06,-49.06
289353905,6.89,1.61,15.05,-0.17,0.02,-0.52,-12.50,6.06,-49.06
289363846,6.89,1.61,15.05,-0.18,-0.00,-0.46,-12.50,6.06,-49.06
289373837,6.89,1.61,15.05,-0.23,0.31,-0.44,-12.50,6.06,-49.06
289383871,6.89,1.61,15.05,-0.06,0.20,-0.39,-12.50,6.06,-49.06
289394283,-3.37,-0.57,9.73,-0.06,0.20,-0.39,-12.50,6.06,-49.06
289403917,-3.37,-0.57,9.73,-0.12,0.10,-0.45,-12.50,6.06,-49.06
289413198,-3.37,-0.57,9.73,-0.15,-0.08,-0.54,-12.50,6.06,-49.06
289423436,3.26,1.38,7.59,-0.15,-0.08,-0.54,-12.50,6.06,-49.06
289434203,1.46,-1.53,10.88,-0.15,-0.08,-0.54,-12.50,6.06,-49.06
289443862,1.46,-1.53,10.88,-0.10,0.07,-0.45,-12.50,6.06,-49.06
289454000,1.46,-1.53,10.88,0.01,0.05,-0.36,-12.50,6.06,-49.06
289464166,3.07,-1.91,11.26,0.01,0.05,-0.36,-12.50,6.06,-49.06
289473827,3.07,-1.91,11.26,0.02,0.08,-0.31,-12.50,6.06,-49.06
289483185,3.07,-1.91,11.26,-0.05,0.08,-0.39,-12.50,6.06,-49.06
289493739,3.56,-2.34,12.95,-0.05,0.08,-0.39,-12.50,6.06,-49.06
289503896,3.56,-2.34,12.95,0.02,0.18,-0.29,-12.50,6.06,-49.06
289513928,3.56,-2.34,12.95,0.01,0.18,-0.30,-12.50,6.06,-49.06
289523882,3.56,-2.34,12.95,0.03,0.10,-0.32,-12.50,6.06,-49.06
289534208,1.42,-0.04,9.16,0.03,0.10,-0.32,-12.50,6.06,-49.06
289544682,1.42,-0.04,9.16,-0.06,0.26,-0.28,-12.50,6.06,-49.06
289553294,1.42,-0.04,9.16,-0.06,0.17,-0.35,-12.50,6.06,-49.06
289564392,1.42,-0.04,9.16,0.09,-0.21,-0.38,-12.50,6.06,-49.06
289573833,1.42,-0.04,9.16,0.17,-0.32,-0.28,-12.50,6.06,-49.06
289583853,1.42,-0.04,9.16,0.04,0.10,-0.17,-12.50,6.06,-49.06
289593859,1.42,-0.04,9.16,-0.04,0.43,-0.15,-12.50,6.06,-49.06
289604255,-0.54,-3.64,14.36,-0.04,0.43,-0.15,-12.50,6.06,-49.06
289614644,-0.54,-3.64,14.36,0.18,0.05,-0.09,-12.50,6.06,-49.06
289623885,-0.54,-3.64,14.36,0.02,0.27,-0.15,-12.50,6.06,-49.06
289634217,-0.54,-3.64,14.36,0.08,-0.10,-0.26,-12.50,6.06,-49.06
289643872,-0.54,-3.64,14.36,0.00,0.07,-0.27,-12.50,6.06,-49.06
289653607,-0.54,-3.64,14.36,-0.09,0.35,-0.24,-12.50,6.06,-49.06
289663512,-0.54,-3.64,14.36,0.11,-0.04,-0.24,-12.50,6.06,-49.06
289674186,6.74,-0.50,13.83,0.11,-0.04,-0.24,-12.50,6.06,-49.06
289683878,6.74,-0.50,13.83,0.00,0.21,-0.24,-12.50,6.06,-49.06
289693870,6.74,-0.50,13.83,0.09,0.03,-0.25,-12.50,6.06,-49.06
289704221,0.65,-1.65,13.33,0.09,0.03,-0.25,-12.50,6.06,-49.06
289713866,0.65,-1.65,13.33,0.08,0.13,-0.21,-12.50,6.06,-49.06
289723861,0.65,-1.65,13.33,0.13,-0.02,-0.21,-12.50,6.06,-49.06
289733493,0.65,-1.65,13.33,0.10,0.08,-0.20,-12.50,6.06,-49.06
289745013,0.11,-0.27,9.96,0.10,0.08,-0.20,-12.50,6.06,-49.06
289753988,0.11,-0.27,9.96,0.03,0.07,-0.23,-12.50,6.06,-49.06
289763876,0.11,-0.27,9.96,0.08,0.10,-0.18,-12.50,6.06,-49.06
289774164,1.38,1.00,9.00,0.08,0.10,-0.18,-12.50,6.06,-49.06
289783854,1.38,1.00,9.00,0.08,0.07,-0.18,-12.50,6.06,-49.06
289793200,1.38,1.00,9.00,0.04,0.06,-0.21,-12.50,6.06,-49.06
289803624,1.38,1.00,9.00,0.11,-0.08,-0.16,-12.50,6.06,-49.06
289814153,4.48,-1.49,7.17,0.11,-0.08,-0.16,-12.50,6.06,-49.06
289823855,4.48,-1.49,7.17,0.01,0.14,-0.15,-12.50,6.06,-49.06
289833900,4.48,-1.49,7.17,0.05,0.14,-0.12,-12.50,6.06,-49.06
289844206,-0.38,-2.41,11.04,0.05,0.14,-0.12,-12.50,6.06,-49.06
289853891,-0.38,-2.41,11.04,0.09,0.17,-0.05,-12.50,6.06,-49.06
289863281,-0.38,-2.41,11.04,0.12,0.03,-0.09,-12.50,6.06,-49.06
289873785,-0.19,0.00,9.04,0.12,0.03,-0.09,-12.50,6.06,-49.06
289883834,-0.19,0.00,9.04,0.03,0.05,-0.15,-12.50,6.06,-49.06
289893884,-0.19,0.00,9.04,0.05,0.05,-0.16,-12.50,6.06,-49.06
289903942,-0.19,0.00,9.04,0.07,0.04,-0.13,-12.50,6.06,-49.06
289914162,2.49,-1.88,9.69,0.07,0.04,-0.13,-12.50,6.06,-49.06
289923807,2.49,-1.88,9.69,0.06,0.13,-0.14,-12.50,6.06,-49.06
289933227,2.49,-1.88,9.69,0.09,0.04,-0.14,-12.50,6.06,-49.06
289944475,-2.30,0.84,7.55,0.09,0.04,-0.14,-12.50,6.06,-49.06
289953945,-2.30,0.84,7.55,-0.07,0.12,-0.22,-12.50,6.06,-49.06
289963885,-2.30,0.84,7.55,0.01,-0.15,-0.27,-12.50,6.06,-49.06
289972780,-2.30,0.84,7.55,0.02,-0.06,-0.19,-12.50,6.06,-49.06
289983837,3.64,-0.88,9.50,0.02,-0.06,-0.19,-12.50,6.06,-49.06
289994169,3.64,-0.88,9.50,0.07,0.08,-0.13,-12.50,6.06,-49.06
290004728,3.64,-0.88,9.50,0.04,0.16,-0.15,-12.50,6.06,-49.06
290014205,3.64,-0.88,9.50,0.01,0.12,-0.17,-12.50,6.06,-49.06
290023848,3.64,-0.88,9.50,0.03,-0.01,-0.20,-12.50,6.06,-49.06
290033954,3.64,-0.88,9.50,0.02,0.02,-0.21,-12.50,6.06,-49.06
290043560,3.64,-0.88,9.50,-0.04,0.10,-0.23,-12.50,6.06,-49.06
290054257,-1.99,-1.80,8.85,-0.04,0.10,-0.23,-12.50,6.06,-49.06
290063924,-1.99,-1.80,8.85,-0.01,-0.03,-0.29,-12.50,6.06,-49.06
290073834,-1.99,-1.80,8.85,-0.02,0.06,-0.25,-12.50,6.06,-49.06
290084159,0.88,0.04,8.42,-0.02,0.06,-0.25,-12.50,6.06,-49.06
290093826,0.88,0.04,8.42,0.04,-0.03,-0.26,-12.50,6.06,-49.06
290103237,0.88,0.04,8.42,-0.03,0.12,-0.27,-12.50,6.06,-49.06
290113450,0.88,0.04,8.42,-0.01,0.10,-0.26,-12.50,6.06,-49.06
290124176,1.61,-0.65,10.54,-0.01,0.10,-0.26,-12.50,6.06,-49.06
290133847,1.61,-0.65,10.54,-0.01,0.01,-0.27,-12.50,6.06,-49.06
290144028,1.61,-0.65,10.54,-0.02,0.05,-0.29,-12.50,6.06,-49.06
290154299,1.72,0.50,9.96,-0.02,0.05,-0.29,-12.50,6.06,-49.06
290163831,1.72,0.50,9.96,-0.02,0.05,-0.29,-15.50,5.69,-51.44
290173161,1.72,0.50,9.96,-0.02,0.05,-0.29,-14.94,7.25,-53.31
290183443,1.72,0.50,9.96,-0.01,0.11,-0.22,-14.94,7.25,-53.31
290193495,1.99,-1.00,10.46,-0.01,0.11,-0.22,-14.94,7.25,-53.31
290204057,1.99,-1.00,10.46,0.04,0.00,-0.20,-14.94,7.25,-53.31
290213889,1.99,-1.00,10.46,-0.02,0.08,-0.21,-14.94,7.25,-53.31
290224144,1.84,-1.19,10.84,-0.02,0.08,-0.21,-14.94,7.25,-53.31
290233838,1.84,-1.19,10.84,-0.01,0.05,-0.22,-14.94,7.25,-53.31
290243251,1.84,-1.19,10.84,0.00,0.06,-0.21,-14.94,7.25,-53.31
290253907,1.84,-1.19,10.84,0.01,0.09,-0.20,-14.94,7.25,-53.31
290263843,1.84,-1.19,10.84,0.01,0.15,-0.21,-14.94,7.25,-53.31
290273932,1.84,-1.19,10.84,0.08,-0.07,-0.21,-14.94,7.25,-53.31
290283896,1.84,-1.19,10.84,0.03,0.05,-0.20,-14.94,7.25,-53.31
290294155,1.04,0.23,8.70,0.03,0.05,-0.20,-14.94,7.25,-53.31
290303916,1.04,0.23,8.70,0.01,-0.01,-0.24,-14.94,7.25,-53.31
290314678,1.04,0.23,8.70,-0.04,0.19,-0.25,-14.94,7.25,-53.31
290324376,1.04,0.23,8.70,0.01,0.13,-0.22,-14.94,7.25,-53.31
290333861,1.04,0.23,8.70,0.04,0.00,-0.24,-14.94,7.25,-53.31
290343996,1.04,0.23,8.70,0.03,-0.02,-0.25,-14.94,7.25,-53.31
290353892,1.04,0.23,8.70,0.02,0.02,-0.23,-14.94,7.25,-53.31
290364177,-1.11,-2.18,9.12,0.02,0.02,-0.23,-14.94,7.25,-53.31
290373866,-1.11,-2.18,9.12,0.02,0.02,-0.23,-14.06,5.31,-51.38
290383900,-1.11,-2.18,9.12,0.02,0.02,-0.23,-15.25,6.00,-51.94
290394285,-1.11,-2.18,9.12,-0.03,0.08,-0.28,-15.25,6.00,-51.94
290403946,-1.11,-2.18,9.12,-0.01,0.05,-0.29,-15.25,6.00,-51.94
290413917,-1.11,-2.18,9.12,0.00,0.10,-0.27,-15.25,6.00,-51.94
290423490,-1.11,-2.18,9.12,-0.05,0.24,-0.28,-15.25,6.00,-51.94
290434155,-1.11,-2.18,9.12,0.01,0.11,-0.32,-15.25,6.00,-51.94
290443846,-1.11,-2.18,9.12,0.04,-0.03,-0.32,-15.25,6.00,-51.94
290454045,-1.11,-2.18,9.12,-0.03,0.11,-0.33,-15.25,6.00,-51.94
290464176,-1.11,-2.18,9.12,-0.07,0.07,-0.40,-15.25,6.00,-51.94
290473838,-1.11,-2.18,9.12,-0.04,-0.02,-0.41,-15.25,6.00,-51.94
290483187,-1.11,-2.18,9.12,-0.01,0.08,-0.35,-15.25,6.00,-51.94
290493433,-1.11,-2.18,9.12,0.02,-0.01,-0.32,-15.25,6.00,-51.94
290504217,0.80,-0.34,10.15,0.02,-0.01,-0.32,-15.25,6.00,-51.94
290513867,0.80,-0.34,10.15,-0.02,0.13,-0.37,-15.25,6.00,-51.94
290523892,0.80,-0.34,10.15,0.04,0.00,-0.34,-15.25,6.00,-51.94
290534184,0.80,-0.34,10.15,-0.01,0.11,-0.33,-15.25,6.00,-51.94
290543956,0.80,-0.34,10.15,0.02,-0.03,-0.36,-15.25,6.00,-51.94
290553396,0.80,-0.34,10.15,0.02,0.02,-0.37,-15.25,6.00,-51.94
290563743,0.80,-0.34,10.15,-0.04,0.25,-0.34,-15.25,6.00,-51.94
290573841,0.80,-0.34,10.15,-0.01,0.21,-0.36,-15.25,6.00,-51.94
290583842,0.80,-0.34,10.15,0.05,0.06,-0.36,-15.25,6.00,-51.94
290593893,0.80,-0.34,10.15,0.01,0.03,-0.38,-15.25,6.00,-51.94
290604227,0.80,-0.34,10.15,0.02,-0.06,-0.37,-15.25,6.00,-51.94
290612889,0.80,-0.34,10.15,0.02,0.04,-0.31,-15.25,6.00,-51.94
290622663,0.80,-0.34,10.15,-0.00,0.19,-0.29,-15.25,6.00,-51.94
290633755,0.80,-0.34,10.15,0.08,0.12,-0.29,-15.25,6.00,-51.94
290644165,0.80,-1.38,10.84,0.08,0.12,-0.29,-15.25,6.00,-51.94
290654016,0.80,-1.38,10.84,0.12,0.04,-0.24,-15.25,6.00,-51.94
290663940,0.80,-1.38,10.84,0.08,-0.02,-0.29,-15.25,6.00,-51.94
290674200,0.80,-1.38,10.84,0.03,0.05,-0.29,-15.25,6.00,-51.94
290683846,0.80,-1.38,10.84,0.06,0.06,-0.26,-15.25,6.00,-51.94
290693164,0.80,-1.38,10.84,0.09,0.07,-0.22,-15.25,6.00,-51.94
290704417,0.80,-1.38,10.84,0.06,0.18,-0.25,-15.25,6.00,-51.94
290713875,0.80,-1.38,10.84,0.09,0.14,-0.26,-15.25,6.00,-51.94
290723869,0.80,-1.38,10.84,0.10,0.04,-0.26,-15.25,6.00,-51.94
290733629,0.80,-1.38,10.84,0.07,0.11,-0.24,-15.25,6.00,-51.94
290744383,0.80,-1.38,10.84,0.07,0.16,-0.26,-15.25,6.00,-51.94
290753977,0.80,-1.38,10.84,0.11,-0.02,-0.24,-15.25,6.00,-51.94
290763961,0.80,-1.38,10.84,0.05,0.13,-0.25,-15.25,6.00,-51.94
290774213,0.80,-1.38,10.84,0.09,0.04,-0.23,-15.25,6.00,-51.94
290783880,0.80,-1.38,10.84,0.14,0.09,-0.19,-15.25,6.00,-51.94
290793840,0.80,-1.38,10.84,0.13,0.12,-0.19,-15.25,6.00,-51.94
290803506,0.80,-1.38,10.84,0.13,-0.02,-0.20,-15.25,6.00,-51.94
290814270,0.80,-1.38,10.84,0.06,0.21,-0.20,-15.25,6.00,-51.94
290823910,0.80,-1.38,10.84,0.13,0.01,-0.22,-15.25,6.00,-51.94
290833988,0.80,-1.38,10.84,0.12,0.02,-0.22,-15.25,6.00,-51.94
290844207,0.80,-1.38,10.84,0.01,0.21,-0.26,-15.25,6.00,-51.94
290853916,0.80,-1.38,10.84,0.08,0.04,-0.25,-15.25,6.00,-51.94
290863241,0.80,-1.38,10.84,0.07,0.14,-0.28,-15.25,6.00,-51.94
290873429,0.80,-1.38,10.84,0.13,-0.03,-0.26,-15.25,6.00,-51.94
290884171,-0.88,0.77,9.73,0.13,-0.03,-0.26,-15.25,6.00,-51.94
290893853,-0.88,0.77,9.73,0.08,0.15,-0.24,-15.25,6.00,-51.94
290903979,-0.88,0.77,9.73,0.15,-0.04,-0.23,-15.25,6.00,-51.94
290914597,-0.88,0.77,9.73,0.11,0.15,-0.21,-15.25,6.00,-51.94
290923859,-0.88,0.77,9.73,0.15,0.02,-0.22,-15.25,6.00,-51.94
290933194,-0.88,0.77,9.73,0.10,0.07,-0.24,-15.25,6.00,-51.94
290943883,-0.88,0.77,9.73,0.04,0.24,-0.25,-15.25,6.00,-51.94
290953996,-0.88,0.77,9.73,0.10,0.01,-0.26,-15.25,6.00,-51.94
290963908,-0.88,0.77,9.73,0.11,-0.03,-0.28,-15.25,6.00,-51.94
290973868,-0.88,0.77,9.73,0.10,0.02,-0.28,-15.25,6.00,-51.94
290984178,-0.88,0.77,9.73,0.16,-0.06,-0.22,-15.25,6.00,-51.94
290993879,-0.88,0.77,9.73,0.07,0.27,-0.21,-15.25,6.00,-51.94
291003373,-0.88,0.77,9.73,0.13,0.13,-0.24,-15.25,6.00,-51.94
291014613,-0.88,0.77,9.73,0.18,0.06,-0.21,-15.25,6.00,-51.94
291023871,-0.88,0.77,9.73,0.11,0.22,-0.20,-15.25,6.00,-51.94
291033877,-0.88,0.77,9.73,0.19,-0.09,-0.22,-15.25,6.00,-51.94
291043876,-0.88,0.77,9.73,0.12,0.06,-0.21,-15.25,6.00,-51.94
291054245,-0.88,0.77,9.73,0.07,0.18,-0.21,-15.25,6.00,-51.94
291063942,-0.88,0.77,9.73,0.17,-0.06,-0.23,-15.25,6.00,-51.94
291073187,-0.88,0.77,9.73,0.15,0.06,-0.20,-15.25,6.00,-51.94
291084383,-0.88,0.77,9.73,0.18,0.08,-0.13,-15.25,6.00,-51.94
291093895,-0.88,0.77,9.73,0.19,0.02,-0.12,-15.25,6.00,-51.94
291103929,-0.88,0.77,9.73,0.14,0.16,-0.13,-15.25,6.00,-51.94
291113668,-0.88,0.77,9.73,0.19,0.06,-0.12,-15.25,6.00,-51.94
291124200,-0.88,0.77,9.73,0.23,0.02,-0.05,-15.25,6.00,-51.94
291133887,-0.88,0.77,9.73,0.17,0.16,-0.05,-15.25,6.00,-51.94
291143711,-0.88,0.77,9.73,0.19,0.09,-0.05,-15.25,6.00,-51.94
291154320,-0.88,0.77,9.73,0.19,0.15,-0.05,-15.25,6.00,-51.94
291163901,-0.88,0.77,9.73,0.21,0.01,-0.03,-15.25,6.00,-51.94
291173255,-0.88,0.77,9.73,0.18,0.07,-0.02,-15.25,6.00,-51.94
291183465,-0.88,0.77,9.73,0.13,0.14,-0.04,-15.25,6.00,-51.94
291194165,-0.88,0.77,9.73,0.21,0.01,-0.02,-15.25,6.00,-51.94
291203921,-0.88,0.77,9.73,0.21,0.15,0.04,-15.25,6.00,-51.94
291214000,-0.88,0.77,9.73,0.28,0.01,0.08,-15.25,6.00,-51.94
291224181,-0.88,0.77,9.73,0.28,-0.08,0.10,-15.25,6.00,-51.94
291233855,-0.88,0.77,9.73,0.17,0.23,0.13,-15.25,6.00,-51.94
291243204,-0.88,0.77,9.73,0.21,0.10,0.10,-15.25,6.00,-51.94
291253531,-0.88,0.77,9.73,0.29,-0.18,0.12,-15.25,6.00,-51.94
291264195,-1.19,-1.57,6.32,0.29,-0.18,0.12,-15.25,6.00,-51.94
291273960,-1.19,-1.57,6.32,0.22,-0.04,0.07,-15.25,6.00,-51.94
291284003,-1.19,-1.57,6.32,0.28,-0.12,0.09,-15.25,6.00,-51.94
291294195,-1.19,-1.57,6.32,0.09,0.34,0.10,-15.25,6.00,-51.94
291303919,-1.19,-1.57,6.32,0.23,-0.02,0.06,-15.25,6.00,-51.94
291313222,-1.19,-1.57,6.32,0.25,-0.00,0.11,-15.25,6.00,-51.94
291323783,-1.19,-1.57,6.32,0.14,0.22,0.09,-15.25,6.00,-51.94
291333895,-1.19,-1.57,6.32,0.22,-0.06,0.07,-15.25,6.00,-51.94
291343959,-1.19,-1.57,6.32,0.18,0.18,0.09,-15.25,6.00,-51.94
291354008,-1.19,-1.57,6.32,0.24,0.01,0.12,-15.25,6.00,-51.94
291364190,-1.19,-1.57,6.32,0.26,-0.09,0.12,-15.25,6.00,-51.94
291373911,-1.19,-1.57,6.32,0.17,0.08,0.11,-15.25,6.00,-51.94
291383210,-1.19,-1.57,6.32,0.16,0.08,0.11,-15.25,6.00,-51.94
291393103,-1.19,-1.57,6.32,0.18,0.06,0.12,-15.25,6.00,-51.94
291402717,-1.19,-1.57,6.32,0.18,0.05,0.15,-15.25,6.00,-51.94
291414297,-1.19,-1.57,6.32,0.22,-0.10,0.16,-15.25,6.00,-51.94
291423849,-1.19,-1.57,6.32,0.22,-0.03,0.19,-15.25,6.00,-51.94
291434189,-1.19,-1.57,6.32,0.20,0.03,0.19,-15.25,6.00,-51.94
291443923,-1.19,-1.57,6.32,0.20,0.03,0.19,-15.25,6.00,-51.94
291453279,-1.19,-1.57,6.32,0.16,0.14,0.20,-15.25,6.00,-51.94
291464248,-1.19,-1.57,6.32,0.20,-0.03,0.19,-15.25,6.00,-51.94
291473911,-1.19,-1.57,6.32,0.14,0.13,0.19,-15.25,6.00,-51.94
291483946,-1.19,-1.57,6.32,0.15,0.05,0.17,-15.25,6.00,-51.94
291493577,-1.19,-1.57,6.32,0.18,-0.04,0.17,-15.25,6.00,-51.94
291504264,-1.19,-1.57,6.32,0.10,0.15,0.17,-15.25,6.00,-51.94
291513636,-1.19,-1.57,6.32,0.16,-0.04,0.16,-15.25,6.00,-51.94
291523887,-1.19,-1.57,6.32,0.21,-0.10,0.18,-15.25,6.00,-51.94
291534202,-1.19,-1.57,6.32,0.12,0.21,0.22,-15.25,6.00,-51.94
291543297,-1.19,-1.57,6.32,0.16,0.03,0.19,-15.25,6.00,-51.94
291553357,-1.19,-1.57,6.32,0.22,-0.14,0.18,-15.25,6.00,-51.94
291563464,-1.19,-1.57,6.32,0.08,0.24,0.20,-15.25,6.00,-51.94
291574200,-1.19,-1.57,6.32,0.12,0.07,0.20,-15.25,6.00,-51.94
291583249,-1.19,-1.57,6.32,0.18,-0.07,0.21,-15.25,6.00,-51.94
291593295,-1.19,-1.57,6.32,0.10,0.10,0.21,-15.25,6.00,-51.94
291603625,-1.19,-1.57,6.32,0.11,-0.03,0.19,-15.25,6.00,-51.94
291613228,-1.19,-1.57,6.32,0.14,-0.08,0.18,-15.25,6.00,-51.94
291623218,-1.19,-1.57,6.32,0.10,0.10,0.22,-15.25,6.00,-51.94
291633474,-1.19,-1.57,6.32,0.13,-0.04,0.20,-15.25,6.00,-51.94
291643508,-1.19,-1.57,6.32,0.09,0.10,0.19,-15.25,6.00,-51.94
291653251,-1.19,-1.57,6.32,0.10,0.05,0.22,-15.25,6.00,-51.94
291663296,-1.19,-1.57,6.32,0.13,-0.12,0.20,-15.25,6.00,-51.94
291673517,-1.19,-1.57,6.32,0.03,0.16,0.21,-15.25,6.00,-51.94
291683250,-1.19,-1.57,6.32,0.12,-0.06,0.23,-15.25,6.00,-51.94
291693187,-1.19,-1.57,6.32,0.15,-0.13,0.22,-15.25,6.00,-51.94
291703516,-1.19,-1.57,6.32,-0.03,0.24,0.25,-15.25,6.00,-51.94
291713550,-1.19,-1.57,6.32,0.14,-0.13,0.26,-15.25,6.00,-51.94
291723208,-1.19,-1.57,6.32,0.16,-0.08,0.29,-15.25,6.00,-51.94
291733225,-1.19,-1.57,6.32,0.04,0.22,0.29,-15.25,6.00,-51.94
291745006,-1.19,-1.57,6.32,0.20,-0.19,0.29,-15.25,6.00,-51.94
291753330,-1.19,-1.57,6.32,0.12,0.01,0.33,-15.25,6.00,-51.94
291763189,-1.19,-1.57,6.32,0.05,0.08,0.35,-15.25,6.00,-51.94
291773422,-1.19,-1.57,6.32,0.14,-0.14,0.33,-15.25,6.00,-51.94
291783608,-0.04,-2.14,10.27,0.14,-0.14,0.33,-15.25,6.00,-51.94
291793239,-0.04,-2.14,10.27,0.12,-0.04,0.36,-15.25,6.00,-51.94
291803274,-0.04,-2.14,10.27,0.12,-0.04,0.38,-15.25,6.00,-51.94
291813543,-0.04,-2.14,10.27,0.09,0.01,0.38,-15.25,6.00,-51.94
291823185,-0.04,-2.14,10.27,0.09,-0.03,0.40,-15.25,6.00,-51.94
291833238,-0.04,-2.14,10.27,0.08,0.08,0.42,-15.25,6.00,-51.94
291843532,-0.04,-2.14,10.27,0.09,-0.05,0.38,-15.25,6.00,-51.94
291853667,-0.04,-2.14,10.27,0.05,-0.02,0.34,-15.25,6.00,-51.94
291863217,-0.04,-2.14,10.27,0.04,-0.05,0.32,-15.25,6.00,-51.94
291873510,-0.04,-2.14,10.27,0.03,-0.01,0.30,-15.25,6.00,-51.94
291883578,-0.04,-2.14,10.27,0.03,0.00,0.28,-15.25,6.00,-51.94
291893184,-0.04,-2.14,10.27,0.03,0.00,0.26,-15.25,6.00,-51.94
291903337,-0.04,-2.14,10.27,0.01,-0.01,0.23,-15.25,6.00,-51.94
291913571,-0.04,-2.14,10.27,-0.02,0.08,0.22,-15.25,6.00,-51.94
291923198,-0.04,-2.14,10.27,0.01,0.01,0.22,-15.25,6.00,-51.94
291933208,-0.04,-2.14,10.27,0.01,-0.07,0.19,-15.25,6.00,-51.94
291942934,-0.04,-2.14,10.27,-0.09,0.16,0.15,-15.25,6.00,-51.94
291953689,-0.04,-2.14,10.27,-0.03,-0.01,0.13,-15.25,6.00,-51.94
291963206,-0.04,-2.14,10.27,-0.02,-0.05,0.11,-15.25,6.00,-51.94
291973223,-0.04,-2.14,10.27,-0.13,0.31,0.12,-15.25,6.00,-51.94
291983564,-0.04,-2.14,10.27,-0.09,0.29,0.11,-15.25,6.00,-51.94
291993301,-0.04,-2.14,10.27,-0.06,0.23,0.07,-15.25,6.00,-51.94
292003330,-0.04,-2.14,10.27,-0.15,0.53,0.09,-15.25,6.00,-51.94
292012872,-0.04,-2.14,10.27,-0.20,0.53,0.06,-15.25,6.00,-51.94
292023531,-0.04,-2.14,10.27,-0.21,0.28,-0.06,-15.25,6.00,-51.94
292033211,-0.04,-2.14,10.27,-0.22,0.26,-0.13,-15.25,6.00,-51.94
292043267,-0.04,-2.14,10.27,-0.27,0.46,-0.13,-15.25,6.00,-51.94
292053728,-0.04,-2.14,10.27,-0.21,0.22,-0.19,-15.25,6.00,-51.94
292063227,-0.04,-2.14,10.27,-0.19,0.15,-0.24,-15.25,6.00,-51.94
292073172,-0.04,-2.14,10.27,-0.25,0.49,-0.21,-15.25,6.00,-51.94
292082842,-0.04,-2.14,10.27,-0.16,0.25,-0.18,-15.25,6.00,-51.94
292093585,-0.04,-2.14,10.27,-0.18,0.22,-0.20,-15.25,6.00,-51.94
292103282,-0.04,-2.14,10.27,-0.23,0.29,-0.20,-15.25,6.00,-51.94
292113276,-0.04,-2.14,10.27,-0.16,0.09,-0.16,-15.25,6.00,-51.94
292123547,-0.04,-2.14,10.27,-0.14,0.04,-0.14,-15.25,6.00,-51.94
292133218,-0.04,-2.14,10.27,-0.17,0.28,-0.06,-15.25,6.00,-51.94
292143341,-0.04,-2.14,10.27,-0.16,0.40,0.01,-15.25,6.00,-51.94
292153509,-0.04,-2.14,10.27,-0.06,0.32,0.05,-15.25,6.00,-51.94
292163522,-0.04,-2.14,10.27,-0.04,0.21,0.09,-15.25,6.00,-51.94
292173188,-0.04,-2.14,10.27,-0.09,0.14,0.05,-15.25,6.00,-51.94
292183048,-0.04,-2.14,10.27,-0.14,0.18,0.01,-15.25,6.00,-51.94
292193639,-0.04,-2.14,10.27,-0.15,0.23,0.01,-15.25,6.00,-51.94
292203391,-0.04,-2.14,10.27,-0.15,0.19,-0.01,-15.25,6.00,-51.94
292212823,-0.04,-2.14,10.27,-0.03,-0.06,-0.02,-15.25,6.00,-51.94
292222650,-0.04,-2.14,10.27,-0.08,0.15,0.06,-15.25,6.00,-51.94
292233546,-0.04,-2.14,10.27,-0.09,0.17,0.08,-15.25,6.00,-51.94
292243196,-0.04,-2.14,10.27,-0.05,0.14,0.10,-15.25,6.00,-51.94
292252944,-0.04,-2.14,10.27,-0.03,0.12,0.12,-15.25,6.00,-51.94
292263613,-0.04,-2.14,10.27,0.00,-0.04,0.12,-15.25,6.00,-51.94
292273201,-0.04,-2.14,10.27,-0.01,-0.10,0.09,-15.25,6.00,-51.94
292283272,-0.04,-2.14,10.27,0.10,-0.44,0.08,-15.25,6.00,-51.94
292293603,-0.04,-2.14,10.27,0.04,-0.18,0.17,-15.25,6.00,-51.94
292303302,-0.04,-2.14,10.27,0.05,-0.19,0.22,-15.25,6.00,-51.94
292313209,-0.04,-2.14,10.27,0.22,-0.55,0.22,-15.25,6.00,-51.94
292322828,-0.04,-2.14,10.27,0.06,-0.03,0.27,-15.25,6.00,-51.94
292333507,-0.04,-2.14,10.27,0.00,-0.06,0.23,-15.25,6.00,-51.94
292343342,-0.04,-2.14,10.27,0.14,-0.56,0.11,-15.25,6.00,-51.94
292353423,-0.04,-2.14,10.27,-0.07,-0.10,0.10,-15.25,6.00,-51.94
292363518,-0.04,-2.14,10.27,-0.11,0.01,0.09,-15.25,6.00,-51.94
292373194,-0.04,-2.14,10.27,0.11,-0.46,0.08,-15.25,6.00,-51.94
292383249,-0.04,-2.14,10.27,0.01,-0.10,0.11,-15.25,6.00,-51.94
292392841,-0.04,-2.14,10.27,-0.03,-0.03,0.11,-15.25,6.00,-51.94
292403732,-0.04,-2.14,10.27,0.09,-0.29,0.10,-15.25,6.00,-51.94
292414311,-0.04,-2.14,10.27,0.03,-0.12,0.11,-15.25,6.00,-51.94
292423251,-0.04,-2.14,10.27,-0.08,0.11,0.10,-15.25,6.00,-51.94
292433539,-0.04,-2.14,10.27,-0.02,-0.08,0.09,-15.25,6.00,-51.94
292443201,-0.04,-2.14,10.27,-0.05,0.05,0.14,-15.25,6.00,-51.94
292453335,-0.04,-2.14,10.27,-0.07,0.05,0.17,-15.25,6.00,-51.94
292462884,-0.04,-2.14,10.27,0.09,-0.44,0.11,-15.25,6.00,-51.94
292473547,-0.04,-2.14,10.27,0.04,-0.33,0.10,-15.25,6.00,-51.94
292483238,-0.04,-2.14,10.27,0.00,-0.17,0.15,-15.25,6.00,-51.94
292493195,-0.04,-2.14,10.27,-0.02,0.04,0.20,-15.25,6.00,-51.94
292503663,-0.04,-2.14,10.27,-0.09,0.21,0.21,-15.25,6.00,-51.94
292513226,-0.04,-2.14,10.27,-0.06,-0.06,0.12,-15.25,6.00,-51.94
292523216,-0.04,-2.14,10.27,0.01,-0.35,0.03,-15.25,6.00,-51.94
292533976,-0.04,-2.14,10.27,-0.05,-0.12,0.01,-15.25,6.00,-51.94
292543633,-0.04,-2.14,10.27,-0.10,0.13,0.07,-15.25,6.00,-51.94
292554065,-0.04,-2.14,10.27,-0.05,0.05,0.08,-15.25,6.00,-51.94
292562991,-0.04,-2.14,10.27,-0.04,0.00,0.05,-15.25,6.00,-51.94
292573559,-0.04,-2.14,10.27,-0.01,0.02,0.08,-15.25,6.00,-51.94
292583194,-0.04,-2.14,10.27,0.08,-0.25,0.06,-15.25,6.00,-51.94
292594652,-0.04,-2.14,10.27,-0.07,0.01,0.06,-15.25,6.00,-51.94
292604257,-0.04,-2.14,10.27,-0.15,0.04,0.05,-15.25,6.00,-51.94
292614507,-0.04,-2.14,10.27,-0.05,-0.19,0.05,-15.25,6.00,-51.94
292623975,-0.04,-2.14,10.27,-0.12,0.03,0.07,-15.25,6.00,-51.94
292632819,-0.04,-2.14,10.27,-0.06,-0.20,0.05,-15.25,6.00,-51.94
292644184,-0.04,-2.14,10.27,-0.09,-0.11,0.10,-15.25,6.00,-51.94
292653853,-0.04,-2.14,10.27,-0.12,-0.11,0.12,-15.25,6.00,-51.94
292663903,-0.04,-2.14,10.27,-0.05,-0.38,0.07,-15.25,6.00,-51.94
292674181,-0.04,-2.14,10.27,-0.08,-0.22,0.07,-15.25,6.00,-51.94
292683872,-0.04,-2.14,10.27,-0.11,-0.02,0.13,-15.25,6.00,-51.94
292693951,-0.04,-2.14,10.27,-0.06,-0.09,0.13,-15.25,6.00,-51.94
292702970,-0.04,-2.14,10.27,0.00,-0.24,0.14,-15.25,6.00,-51.94
292714155,-0.04,-2.14,10.27,-0.04,-0.08,0.15,-15.25,6.00,-51.94
292723824,-0.04,-2.14,10.27,-0.06,-0.14,0.11,-15.25,6.00,-51.94
292733809,-0.04,-2.14,10.27,-0.05,-0.30,0.08,-15.25,6.00,-51.94
292744150,-0.04,-2.14,10.27,-0.09,-0.16,0.07,-15.25,6.00,-51.94
292753821,-0.04,-2.14,10.27,-0.07,-0.13,0.06,-15.25,6.00,-51.94
292763876,-0.04,-2.14,10.27,-0.04,-0.23,0.00,-15.25,6.00,-51.94
292772836,-0.04,-2.14,10.27,0.00,-0.33,-0.02,-15.25,6.00,-51.94
292784103,-0.04,-2.14,10.27,-0.12,-0.01,-0.05,-15.25,6.00,-51.94
292793810,-0.04,-2.14,10.27,-0.11,-0.12,-0.09,-15.25,6.00,-51.94
292803850,-0.04,-2.14,10.27,-0.15,-0.13,-0.15,-15.25,6.00,-51.94
292814127,-0.04,-2.14,10.27,-0.24,0.02,-0.21,-15.25,6.00,-51.94
292823751,-0.04,-2.14,10.27,-0.13,-0.28,-0.25,-15.25,6.00,-51.94
292833870,-0.04,-2.14,10.27,-0.12,-0.26,-0.29,-15.25,6.00,-51.94
292843946,-0.04,-2.14,10.27,-0.19,-0.03,-0.32,-15.25,6.00,-51.94
292854062,-0.04,-2.14,10.27,-0.14,-0.20,-0.33,-15.25,6.00,-51.94
292863849,-0.04,-2.14,10.27,-0.13,-0.23,-0.37,-15.25,6.00,-51.94
292873637,-0.04,-2.14,10.27,-0.18,-0.10,-0.39,-15.25,6.00,-51.94
292883723,-0.04,-2.14,10.27,-0.15,-0.23,-0.39,-15.25,6.00,-51.94
292894021,-0.04,-2.14,10.27,-0.13,-0.29,-0.41,-15.25,6.00,-51.94
292903830,-0.04,-2.14,10.27,-0.15,-0.28,-0.44,-15.25,6.00,-51.94
292913785,-0.04,-2.14,10.27,-0.14,-0.27,-0.43,-15.25,6.00,-51.94
292923997,-0.04,-2.14,10.27,-0.13,-0.22,-0.38,-15.25,6.00,-51.94
292933788,-0.04,-2.14,10.27,-0.13,-0.20,-0.36,-15.25,6.00,-51.94
292943637,-0.04,-2.14,10.27,-0.10,-0.26,-0.34,-15.25,6.00,-51.94
292954046,-0.04,-2.14,10.27,-0.12,-0.13,-0.32,-15.25,6.00,-51.94
292963647,-0.04,-2.14,10.27,-0.10,-0.21,-0.33,-15.25,6.00,-51.94
292973750,-0.04,-2.14,10.27,-0.09,-0.23,-0.34,-15.25,6.00,-51.94
292983650,-0.04,-2.14,10.27,-0.15,-0.03,-0.36,-15.25,6.00,-51.94
292993116,-0.04,-2.14,10.27,-0.11,-0.16,-0.38,-15.25,6.00,-51.94
293002795,-0.04,-2.14,10.27,-0.14,-0.08,-0.39,-15.25,6.00,-51.94
293013259,-0.04,-2.14,10.27,-0.16,0.03,-0.41,-15.25,6.00,-51.94
293023971,-0.04,-2.14,10.27,-0.10,-0.15,-0.45,-15.25,6.00,-51.94
293033629,-0.04,-2.14,10.27,-0.12,-0.15,-0.51,-15.25,6.00,-51.94
293043754,-0.04,-2.14,10.27,-0.07,-0.32,-0.53,-15.25,6.00,-51.94
293053630,-0.04,-2.14,10.27,-0.08,-0.23,-0.51,-15.25,6.00,-51.94
293063962,-0.04,-2.14,10.27,-0.04,-0.23,-0.48,-15.25,6.00,-51.94
293073828,-0.04,-2.14,10.27,-0.03,-0.16,-0.43,-15.25,6.00,-51.94
293082813,-0.04,-2.14,10.27,-0.07,0.04,-0.40,-15.25,6.00,-51.94
293093950,-0.04,-2.14,10.27,0.03,-0.22,-0.37,-15.25,6.00,-51.94
293103657,-0.04,-2.14,10.27,0.02,-0.23,-0.37,-15.25,6.00,-51.94
293113775,-0.04,-2.14,10.27,-0.07,-0.05,-0.37,-15.25,6.00,-51.94
293123958,-0.04,-2.14,10.27,0.03,-0.26,-0.32,-15.25,6.00,-51.94
293133644,-0.04,-2.14,10.27,0.05,-0.19,-0.27,-15.25,6.00,-51.94
293143866,-0.04,-2.14,10.27,0.04,-0.11,-0.24,-15.25,6.00,-51.94
293153509,-0.04,-2.14,10.27,0.06,-0.17,-0.23,-15.25,6.00,-51.94
293163963,-0.04,-2.14,10.27,0.08,-0.25,-0.21,-15.25,6.00,-51.94
293173614,-0.04,-2.14,10.27,0.01,-0.10,-0.19,-15.25,6.00,-51.94
293183705,-0.04,-2.14,10.27,0.01,-0.00,-0.19,-15.25,6.00,-51.94
293193970,-0.04,-2.14,10.27,0.08,-0.16,-0.15,-15.25,6.00,-51.94
293203741,-0.04,-2.14,10.27,0.05,-0.03,-0.15,-15.25,6.00,-51.94
293213774,-0.04,-2.14,10.27,0.07,-0.10,-0.12,-15.25,6.00,-51.94
293223925,-0.04,-2.14,10.27,0.06,0.02,-0.10,-15.25,6.00,-51.94
293233987,-0.04,-2.14,10.27,0.05,0.04,-0.10,-15.25,6.00,-51.94
293243653,-0.04,-2.14,10.27,0.09,-0.13,-0.09,-15.25,6.00,-51.94
293253700,-0.04,-2.14,10.27,0.02,0.09,-0.09,-15.25,6.00,-51.94
293263951,-0.04,-2.14,10.27,0.11,-0.05,-0.06,-15.25,6.00,-51.94
293273621,-0.04,-2.14,10.27,0.15,-0.10,-0.04,-15.25,6.00,-51.94
293283749,-0.04,-2.14,10.27,0.10,-0.05,-0.03,-15.25,6.00,-51.94
293293738,-0.04,-2.14,10.27,0.11,-0.08,0.00,-15.25,6.00,-51.94
293303963,-0.04,-2.14,10.27,0.15,-0.03,0.07,-15.25,6.00,-51.94
293313772,-0.04,-2.14,10.27,0.14,0.11,0.12,-15.25,6.00,-51.94
293323483,-0.04,-2.14,10.27,0.19,0.07,0.16,-15.25,6.00,-51.94
293333599,-0.04,-2.14,10.27,0.10,0.29,0.20,-15.25,6.00,-51.94
293344062,-0.04,-2.14,10.27,0.02,0.37,0.14,-15.25,6.00,-51.94
293353804,-0.04,-2.14,10.27,0.05,0.17,0.10,-15.25,6.00,-51.94
293363645,-0.04,-2.14,10.27,-0.02,0.38,0.16,-15.25,6.00,-51.94
293373955,-0.04,-2.14,10.27,0.01,0.30,0.15,-15.25,6.00,-51.94
293383789,-0.04,-2.14,10.27,0.09,0.12,0.12,-15.25,6.00,-51.94
293393287,-0.04,-2.14,10.27,0.01,0.46,0.14,-15.25,6.00,-51.94
293403706,-0.04,-2.14,10.27,0.05,0.35,0.15,-15.25,6.00,-51.94
293413993,-0.04,-2.14,10.27,0.08,0.21,0.10,-15.25,6.00,-51.94
293423804,-0.04,-2.14,10.27,0.00,0.39,0.10,-15.25,6.00,-51.94
293433638,-0.04,-2.14,10.27,0.04,0.30,0.10,-15.25,6.00,-51.94
293443975,-0.04,-2.14,10.27,0.01,0.27,0.09,-15.25,6.00,-51.94
293453828,-0.04,-2.14,10.27,-0.05,0.42,0.08,-15.25,6.00,-51.94
293463237,-0.04,-2.14,10.27,0.03,0.29,0.13,-15.25,6.00,-51.94
293473939,-0.04,-2.14,10.27,0.03,0.35,0.17,-15.25,6.00,-51.94
293483628,-0.04,-2.14,10.27,0.08,0.16,0.17,-15.25,6.00,-51.94
293493713,-0.04,-2.14,10.27,0.03,0.23,0.16,-15.25,6.00,-51.94
293503623,-0.04,-2.14,10.27,-0.02,0.37,0.21,-15.25,6.00,-51.94
293513971,-0.04,-2.14,10.27,-0.10,0.50,0.18,-15.25,6.00,-51.94
293523741,-0.04,-2.14,10.27,0.00,0.19,0.12,-15.25,6.00,-51.94
293533124,-0.04,-2.14,10.27,0.05,0.16,0.17,-15.25,6.00,-51.94
293344062,-0.04,-2.14,10.27,0.02,0.37,0.14,-15.25,6.00,-51.94
