timestamp,accX,accY,accZ,gyroX,gyroY,gyroZ,magX,magY,magZ
Right Turn
324346692,3.33,-1.91,11.57,0.26,0.45,-0.36,-16.50,1.00,-52.38
324362944,-3.18,-1.00,8.81,0.26,0.45,-0.36,-16.50,1.00,-52.38
324366054,-3.18,-1.00,8.81,-0.15,-0.07,0.10,-16.50,1.00,-52.38
324374938,-3.18,-1.00,8.81,-0.15,-0.07,0.10,9.25,-11.75,-42.56
324385980,-2.26,-1.88,10.41,-0.15,-0.07,0.10,9.25,-11.75,-42.56
324396291,-4.86,-0.88,11.19,-0.15,-0.07,0.10,9.25,-11.75,-42.56
324406567,-4.86,-0.88,11.19,-0.19,-0.26,-0.12,9.25,-11.75,-42.56
324416483,7.62,0.65,12.30,-0.19,-0.26,-0.12,9.25,-11.75,-42.56
324426256,5.63,1.15,9.00,-0.19,-0.26,-0.12,9.25,-11.75,-42.56
324437171,5.63,1.15,9.00,-0.34,0.20,-0.17,9.25,-11.75,-42.56
324445835,-7.97,-1.88,11.26,-0.34,0.20,-0.17,9.25,-11.75,-42.56
324456289,-7.55,-1.38,9.35,-0.34,0.20,-0.17,9.25,-11.75,-42.56
324466095,-7.55,-1.38,9.35,-0.29,-0.28,-0.45,9.25,-11.75,-42.56
324476475,-7.55,-1.38,9.35,-0.31,-0.12,-0.46,9.25,-11.75,-42.56
324486429,4.29,2.72,8.58,-0.31,-0.12,-0.46,9.25,-11.75,-42.56
324496292,-0.27,0.50,11.99,-0.31,-0.12,-0.46,9.25,-11.75,-42.56
324506359,-0.27,0.50,11.99,-0.38,0.07,-0.62,9.25,-11.75,-42.56
324516575,-3.03,-0.54,11.22,-0.38,0.07,-0.62,9.25,-11.75,-42.56
324526874,0.04,0.11,7.70,-0.38,0.07,-0.62,9.25,-11.75,-42.56
324535994,0.04,0.11,7.70,-0.32,-0.17,-0.73,9.25,-11.75,-42.56
324546517,0.04,0.11,7.70,-0.39,0.12,-0.76,9.25,-11.75,-42.56
324555359,-3.37,-1.19,8.50,-0.39,0.12,-0.76,9.25,-11.75,-42.56
324566471,-0.57,-1.30,7.36,-0.39,0.12,-0.76,9.25,-11.75,-42.56
324576684,1.46,0.73,9.73,-0.39,0.12,-0.76,9.25,-11.75,-42.56
324586375,2.80,0.65,11.88,-0.39,0.12,-0.76,9.25,-11.75,-42.56
324596313,0.57,-0.88,11.64,-0.39,0.12,-0.76,9.25,-11.75,-42.56
324606516,0.57,-0.88,11.64,-0.29,0.18,-0.80,9.25,-11.75,-42.56
324615860,-0.38,-1.72,8.04,-0.29,0.18,-0.80,9.25,-11.75,-42.56
324625973,3.22,1.80,10.00,-0.29,0.18,-0.80,9.25,-11.75,-42.56
324636385,-1.95,-0.57,9.96,-0.29,0.18,-0.80,9.25,-11.75,-42.56
324646387,-1.95,-0.57,9.96,-0.24,0.07,-0.79,9.25,-11.75,-42.56
324656392,1.61,-0.08,10.77,-0.24,0.07,-0.79,9.25,-11.75,-42.56
324666488,1.42,-0.77,9.46,-0.24,0.07,-0.79,9.25,-11.75,-42.56
324676377,1.42,-0.77,9.46,-0.07,0.06,-0.66,9.25,-11.75,-42.56
324685699,1.88,-2.18,16.21,-0.07,0.06,-0.66,9.25,-11.75,-42.56
324695976,-3.22,-1.80,10.61,-0.07,0.06,-0.66,9.25,-11.75,-42.56
324706284,-2.11,-0.61,6.36,-0.07,0.06,-0.66,9.25,-11.75,-42.56
324716561,-2.11,-0.61,6.36,-0.05,0.06,-0.58,9.25,-11.75,-42.56
324726389,-2.07,-0.69,4.83,-0.05,0.06,-0.58,9.25,-11.75,-42.56
324736347,-0.19,-2.14,8.01,-0.05,0.06,-0.58,9.25,-11.75,-42.56
324746492,-0.19,-2.14,8.01,0.02,0.19,-0.34,9.25,-11.75,-42.56
324755765,-1.72,-2.99,7.12,0.02,0.19,-0.34,9.25,-11.75,-42.56
324767138,-2.76,-1.42,6.74,0.02,0.19,-0.34,9.25,-11.75,-42.56
324776611,-2.76,-1.42,6.74,0.13,0.08,0.04,9.25,-11.75,-42.56
324786480,-2.76,-1.42,6.74,0.24,-0.20,0.11,9.25,-11.75,-42.56
324796437,7.20,-2.53,14.86,0.24,-0.20,0.11,9.25,-11.75,-42.56
324806428,1.38,-6.21,10.00,0.24,-0.20,0.11,9.25,-11.75,-42.56
324816548,1.38,-6.21,10.00,0.21,0.13,0.33,9.25,-11.75,-42.56
324825758,-3.22,-1.04,9.34,0.21,0.13,0.33,9.25,-11.75,-42.56
324836991,1.68,-1.30,8.50,0.21,0.13,0.33,9.25,-11.75,-42.56
324846616,1.68,-1.30,8.50,0.19,0.05,0.38,9.25,-11.75,-42.56
324856417,1.68,-1.30,8.50,0.24,0.12,0.44,9.25,-11.75,-42.56
324866199,0.34,-6.28,9.73,0.24,0.12,0.44,9.25,-11.75,-42.56
324876989,-0.77,-3.48,6.66,0.24,0.12,0.44,9.25,-11.75,-42.56
324886387,-0.77,-3.48,6.66,0.29,0.06,0.36,9.25,-11.75,-42.56
324896400,2.76,-2.80,8.32,0.29,0.06,0.36,9.25,-11.75,-42.56
324906962,2.45,-2.95,11.80,0.29,0.06,0.36,9.25,-11.75,-42.56
324916495,2.45,-2.95,11.80,0.20,0.22,0.35,9.25,-11.75,-42.56
324926470,2.45,-2.95,11.80,0.21,-0.01,0.33,9.25,-11.75,-42.56
324936003,-0.15,-1.46,6.36,0.21,-0.01,0.33,9.25,-11.75,-42.56
324947325,-1.91,-1.72,7.89,0.21,-0.01,0.33,9.25,-11.75,-42.56
324956413,-1.91,-1.72,7.89,0.21,-0.12,0.31,9.25,-11.75,-42.56
324966498,1.27,-2.22,13.41,0.21,-0.12,0.31,9.25,-11.75,-42.56
324976913,-1.53,-1.99,7.97,0.21,-0.12,0.31,9.25,-11.75,-42.56
324986483,-1.53,-1.99,7.97,0.21,-0.15,0.20,9.25,-11.75,-42.56
324996414,-1.53,-1.99,7.97,0.03,0.07,0.21,9.25,-11.75,-42.56
325006067,5.44,0.84,11.04,0.03,0.07,0.21,9.25,-11.75,-42.56
325017559,-4.37,-2.68,11.03,0.03,0.07,0.21,9.25,-11.75,-42.56
325026484,-4.37,-2.68,11.03,0.01,-0.06,0.20,9.25,-11.75,-42.56
325036416,2.68,-1.61,9.16,0.01,-0.06,0.20,9.25,-11.75,-42.56
325046861,2.38,-1.19,7.81,0.01,-0.06,0.20,9.25,-11.75,-42.56
325056367,2.38,-1.19,7.81,0.01,0.04,0.32,9.25,-11.75,-42.56
325065804,2.38,-1.19,7.81,0.03,-0.10,0.29,9.25,-11.75,-42.56
325076399,6.47,-1.49,11.26,0.03,-0.10,0.29,9.25,-11.75,-42.56
325086397,6.47,-1.49,11.26,0.09,-0.12,0.13,9.25,-11.75,-42.56
325096366,6.47,-1.49,11.26,-0.02,0.22,0.10,9.25,-11.75,-42.56
325106422,-0.92,0.27,12.53,-0.02,0.22,0.10,9.25,-11.75,-42.56
325116792,-3.29,-0.42,11.99,-0.02,0.22,0.10,9.25,-11.75,-42.56
325126440,-3.29,-0.42,11.99,-0.20,0.06,-0.35,9.25,-11.75,-42.56
325135748,1.80,3.64,8.12,-0.20,0.06,-0.35,9.25,-11.75,-42.56
325147535,-1.68,2.76,6.75,-0.20,0.06,-0.35,9.25,-11.75,-42.56
325156422,-1.68,2.76,6.75,-0.29,-0.00,-0.58,9.25,-11.75,-42.56
325166923,-1.68,2.76,6.75,-0.23,0.04,-0.56,9.25,-11.75,-42.56
325176396,0.46,2.34,11.72,-0.23,0.04,-0.56,9.25,-11.75,-42.56
325186658,2.34,-0.08,12.02,-0.23,0.04,-0.56,9.25,-11.75,-42.56
325196811,2.34,-0.08,12.02,-0.20,0.04,-0.58,9.25,-11.75,-42.56
325205693,-2.07,-0.42,8.32,-0.20,0.04,-0.58,9.25,-11.75,-42.56
325216822,2.38,-0.61,14.06,-0.20,0.04,-0.58,9.25,-11.75,-42.56
325226416,2.38,-0.61,14.06,-0.28,0.10,-0.69,9.25,-11.75,-42.56
325236471,2.38,-0.61,14.06,-0.28,0.18,-0.62,9.25,-11.75,-42.56
325246179,-4.29,-3.33,6.85,-0.28,0.18,-0.62,9.25,-11.75,-42.56
325256746,-3.22,-0.84,10.19,-0.28,0.18,-0.62,9.25,-11.75,-42.56
325266522,-3.22,-0.84,10.19,-0.14,-0.02,-0.42,9.25,-11.75,-42.56
325276406,2.11,-3.87,9.08,-0.14,-0.02,-0.42,9.25,-11.75,-42.56
325286664,-2.95,-3.56,8.50,-0.14,-0.02,-0.42,9.25,-11.75,-42.56
325296391,-2.95,-3.56,8.50,0.01,-0.07,-0.00,9.25,-11.75,-42.56
325306411,-2.95,-3.56,8.50,0.04,0.08,0.21,9.25,-11.75,-42.56
325316103,-4.45,-4.94,1.68,0.04,0.08,0.21,9.25,-11.75,-42.56
325326677,-0.57,-4.75,3.87,0.04,0.08,0.21,9.25,-11.75,-42.56
325336430,-0.57,-4.75,3.87,0.09,0.02,0.61,9.25,-11.75,-42.56
325346522,3.33,-5.21,9.77,0.09,0.02,0.61,9.25,-11.75,-42.56
325356728,5.52,-7.43,13.07,0.09,0.02,0.61,9.25,-11.75,-42.56
325366429,5.52,-7.43,13.07,0.12,0.24,0.94,9.25,-11.75,-42.56
325375728,5.52,-7.43,13.07,0.22,0.04,0.92,9.25,-11.75,-42.56
325385981,-0.57,-4.86,12.52,0.22,0.04,0.92,9.25,-11.75,-42.56
325396774,1.42,-2.22,12.34,0.22,0.04,0.92,9.25,-11.75,-42.56
325406390,1.42,-2.22,12.34,0.21,-0.09,0.79,9.25,-11.75,-42.56
325416566,2.22,0.04,9.20,0.21,-0.09,0.79,9.25,-11.75,-42.56
325426685,-1.49,-1.19,8.39,0.21,-0.09,0.79,9.25,-11.75,-42.56
325436440,-1.49,-1.19,8.39,-0.04,0.01,0.30,9.25,-11.75,-42.56
325445748,-1.49,-1.19,8.39,-0.04,-0.07,0.15,9.25,-11.75,-42.56
325456366,0.77,4.83,9.46,-0.04,-0.07,0.15,9.25,-11.75,-42.56
325466465,0.77,4.83,9.46,-0.27,-0.13,-0.21,9.25,-11.75,-42.56
325476389,0.77,4.83,9.46,-0.35,0.06,-0.34,9.25,-11.75,-42.56
325486413,0.88,5.71,8.85,-0.35,0.06,-0.34,9.25,-11.75,-42.56
325496030,-2.57,5.67,10.11,-0.35,0.06,-0.34,9.25,-11.75,-42.56
325506353,-2.57,5.67,10.11,-0.49,-0.01,-0.55,9.25,-11.75,-42.56
325515825,-2.57,5.67,10.11,-0.36,-0.27,-0.56,9.25,-11.75,-42.56
325526290,0.30,4.67,11.64,-0.36,-0.27,-0.56,9.25,-11.75,-42.56
325536416,0.30,4.67,11.64,-0.49,-0.06,-0.59,9.25,-11.75,-42.56
325546563,0.30,4.67,11.64,-0.50,-0.14,-0.66,9.25,-11.75,-42.56
325556696,3.79,0.88,10.19,-0.50,-0.14,-0.66,9.25,-11.75,-42.56
325566469,3.79,0.88,10.19,-0.50,-0.04,-0.67,9.25,-11.75,-42.56
325576362,3.79,0.88,10.19,-0.58,0.16,-0.72,9.25,-11.75,-42.56
325585723,3.79,0.88,10.19,-0.50,-0.24,-0.83,9.25,-11.75,-42.56
325596320,7.16,-2.38,12.99,-0.50,-0.24,-0.83,9.25,-11.75,-42.56
325606806,7.16,-2.38,12.99,-0.51,0.17,-0.71,9.25,-11.75,-42.56
325616515,7.16,-2.38,12.99,-0.44,-0.02,-0.77,9.25,-11.75,-42.56
325626180,-8.04,-3.79,11.30,-0.44,-0.02,-0.77,9.25,-11.75,-42.56
325636736,-8.93,-2.72,12.03,-0.44,-0.02,-0.77,9.25,-11.75,-42.56
325645392,-8.93,-2.72,12.03,-0.36,-0.23,-0.87,9.25,-11.75,-42.56
325656406,4.41,0.92,5.63,-0.36,-0.23,-0.87,9.25,-11.75,-42.56
325666838,3.18,0.42,7.47,-0.36,-0.23,-0.87,9.25,-11.75,-42.56
325676366,3.18,0.42,7.47,-0.45,0.12,-0.89,9.25,-11.75,-42.56
325686382,3.18,0.42,7.47,-0.37,0.07,-0.82,9.25,-11.75,-42.56
325696001,0.23,0.46,13.29,-0.37,0.07,-0.82,9.25,-11.75,-42.56
325706677,1.72,0.23,5.98,-0.37,0.07,-0.82,9.25,-11.75,-42.56
325717242,1.72,0.23,5.98,-0.40,0.02,-0.77,9.25,-11.75,-42.56
325726382,-5.44,-5.25,10.84,-0.40,0.02,-0.77,9.25,-11.75,-42.56
325736710,-5.02,-0.19,10.00,-0.40,0.02,-0.77,9.25,-11.75,-42.56
325747220,-5.02,-0.19,10.00,-0.26,-0.10,-0.67,9.25,-11.75,-42.56
325755744,-5.02,-0.19,10.00,-0.31,0.05,-0.61,9.25,-11.75,-42.56
325766074,6.78,-2.11,13.37,-0.31,0.05,-0.61,9.25,-11.75,-42.56
325776662,1.46,-6.13,13.87,-0.31,0.05,-0.61,9.25,-11.75,-42.56
325786363,1.46,-6.13,13.87,-0.23,0.29,-0.53,9.25,-11.75,-42.56
325796531,0.69,-1.38,8.77,-0.23,0.29,-0.53,9.25,-11.75,-42.56
325806677,-1.80,-2.22,7.62,-0.23,0.29,-0.53,9.25,-11.75,-42.56
325817232,-1.80,-2.22,7.62,-0.26,0.09,-0.66,9.25,-11.75,-42.56
325825714,-1.80,-2.22,7.62,-0.19,0.01,-0.65,9.25,-11.75,-42.56
325836287,-4.64,-2.87,6.79,-0.19,0.01,-0.65,9.25,-11.75,-42.56
325846470,-4.64,-2.87,6.79,-0.11,-0.13,-0.70,9.25,-11.75,-42.56
325856459,-4.64,-2.87,6.79,-0.12,-0.02,-0.66,9.25,-11.75,-42.56
325866508,2.99,-0.77,11.41,-0.12,-0.02,-0.66,9.25,-11.75,-42.56
325876660,-0.65,-0.73,10.39,-0.12,-0.02,-0.66,9.25,-11.75,-42.56
325885308,-0.65,-0.73,10.39,-0.23,0.26,-0.74,9.25,-11.75,-42.56
325895184,-0.65,-0.73,10.39,-0.19,-0.01,-0.77,9.25,-11.75,-42.56
325906961,1.76,0.30,11.46,-0.19,-0.01,-0.77,9.25,-11.75,-42.56
325916804,-3.60,-0.38,7.09,-0.19,-0.01,-0.77,9.25,-11.75,-42.56
325926401,-3.60,-0.38,7.09,-0.19,-0.10,-0.84,9.25,-11.75,-42.56
325936310,3.41,0.61,14.59,-0.19,-0.10,-0.84,9.25,-11.75,-42.56
325946821,-0.15,-2.11,9.65,-0.19,-0.10,-0.84,9.25,-11.75,-42.56
325956407,-0.15,-2.11,9.65,-0.19,0.11,-0.78,9.25,-11.75,-42.56
325966518,-0.15,-2.11,9.65,-0.24,0.25,-0.81,9.25,-11.75,-42.56
325976789,-1.00,-1.80,8.88,-0.24,0.25,-0.81,9.25,-11.75,-42.56
325986363,-1.00,-1.80,8.88,-0.23,0.19,-0.81,9.25,-11.75,-42.56
325996409,-1.00,-1.80,8.88,-0.25,0.28,-0.77,9.25,-11.75,-42.56
326006154,-2.99,-3.48,3.22,-0.25,0.28,-0.77,9.25,-11.75,-42.56
326016813,-5.59,-5.79,0.50,-0.25,0.28,-0.77,9.25,-11.75,-42.56
326026366,-5.59,-5.79,0.50,-0.10,0.08,-0.74,9.25,-11.75,-42.56
326036408,-5.59,-5.79,0.50,-0.14,0.06,-0.72,9.25,-11.75,-42.56
326046793,10.96,-1.99,14.44,-0.14,0.06,-0.72,9.25,-11.75,-42.56
326056424,10.96,-1.99,14.44,-0.15,0.23,-0.60,9.25,-11.75,-42.56
326065890,10.96,-1.99,14.44,-0.08,0.52,-0.51,9.25,-11.75,-42.56
326075979,-3.10,-3.14,8.54,-0.08,0.52,-0.51,9.25,-11.75,-42.56
326086676,1.49,0.54,12.14,-0.08,0.52,-0.51,9.25,-11.75,-42.56
326096393,1.49,0.54,12.14,-0.10,0.21,-0.60,9.25,-11.75,-42.56
326106418,1.49,0.54,12.14,-0.20,0.27,-0.71,9.25,-11.75,-42.56
326117181,1.15,-3.10,10.35,-0.20,0.27,-0.71,9.25,-11.75,-42.56
326125294,1.15,-3.10,10.35,-0.10,0.31,-0.68,9.25,-11.75,-42.56
326135194,1.15,-3.10,10.35,-0.08,0.18,-0.67,9.25,-11.75,-42.56
326146424,-1.57,-0.54,9.89,-0.08,0.18,-0.67,9.25,-11.75,-42.56
326156765,5.02,-1.11,12.64,-0.08,0.18,-0.67,9.25,-11.75,-42.56
326166489,5.02,-1.11,12.64,-0.12,0.33,-0.71,9.25,-11.75,-42.56
326176396,0.23,-4.33,10.04,-0.12,0.33,-0.71,9.25,-11.75,-42.56
326186686,-3.45,-2.72,8.93,-0.12,0.33,-0.71,9.25,-11.75,-42.56
326196470,-3.45,-2.72,8.93,-0.04,0.24,-0.67,9.25,-11.75,-42.56
326205718,-3.45,-2.72,8.93,-0.07,0.14,-0.68,9.25,-11.75,-42.56
326217123,-2.14,-2.57,8.93,-0.07,0.14,-0.68,9.25,-11.75,-42.56
326226373,-2.14,-2.57,8.93,-0.03,0.18,-0.58,9.25,-11.75,-42.56
326236400,-2.14,-2.57,8.93,-0.01,0.24,-0.54,9.25,-11.75,-42.56
326246425,1.57,-1.19,9.12,-0.01,0.24,-0.54,9.25,-11.75,-42.56
326256762,-2.76,-2.41,8.08,-0.01,0.24,-0.54,9.25,-11.75,-42.56
326266517,-2.76,-2.41,8.08,-0.07,0.29,-0.59,9.25,-11.75,-42.56
326275737,-2.76,-2.41,8.08,0.10,-0.21,-0.58,9.25,-11.75,-42.56
326286935,6.74,-0.23,13.83,0.10,-0.21,-0.58,9.25,-11.75,-42.56
326296381,6.74,-0.23,13.83,-0.12,0.36,-0.57,9.25,-11.75,-42.56
326306357,6.74,-0.23,13.83,0.03,0.31,-0.54,9.25,-11.75,-42.56
326316252,-6.59,-3.52,14.17,0.03,0.31,-0.54,9.25,-11.75,-42.56
326326353,-6.59,-3.52,14.17,-0.11,0.55,-0.58,9.25,-11.75,-42.56
326336364,-6.59,-3.52,14.17,0.05,-0.04,-0.63,9.25,-11.75,-42.56
326346510,-6.59,-3.52,14.17,-0.04,0.17,-0.58,9.25,-11.75,-42.56
326356749,2.38,-0.96,5.70,-0.04,0.17,-0.58,9.25,-11.75,-42.56
326366480,2.38,-0.96,5.70,0.01,0.25,-0.46,9.25,-11.75,-42.56
326376397,2.38,-0.96,5.70,-0.03,0.41,-0.41,9.25,-11.75,-42.56
326386034,-1.84,-1.07,9.23,-0.03,0.41,-0.41,9.25,-11.75,-42.56
326396771,-1.15,-0.92,6.47,-0.03,0.41,-0.41,9.25,-11.75,-42.56
326406370,-1.15,-0.92,6.47,0.02,0.14,-0.42,9.25,-11.75,-42.56
326415458,-1.15,-0.92,6.47,0.00,0.18,-0.42,9.25,-11.75,-42.56
326426358,2.03,-1.34,10.69,0.00,0.18,-0.42,9.25,-11.75,-42.56
326436687,1.72,-2.22,10.57,0.00,0.18,-0.42,9.25,-11.75,-42.56
326445801,1.72,-2.22,10.57,-0.01,0.22,-0.48,9.25,-11.75,-42.56
326455977,3.48,-0.80,11.76,-0.01,0.22,-0.48,9.25,-11.75,-42.56
326466837,0.27,0.11,11.99,-0.01,0.22,-0.48,9.25,-11.75,-42.56
326476399,0.27,0.11,11.99,-0.05,0.24,-0.50,9.25,-11.75,-42.56
326486383,0.27,0.11,11.99,-0.01,0.12,-0.53,9.25,-11.75,-42.56
326496683,1.15,-0.30,10.69,-0.01,0.12,-0.53,9.25,-11.75,-42.56
326506376,1.15,-0.30,10.69,-0.04,0.15,-0.58,9.25,-11.75,-42.56
326517274,1.15,-0.30,10.69,-0.10,0.26,-0.60,9.25,-11.75,-42.56
326526322,-1.04,-0.54,6.25,-0.10,0.26,-0.60,9.25,-11.75,-42.56
326536379,-1.04,-0.54,6.25,-0.07,-0.04,-0.75,9.25,-11.75,-42.56
326547265,-1.04,-0.54,6.25,-0.20,0.27,-0.77,9.25,-11.75,-42.56
326556475,-1.04,-0.54,6.25,-0.21,0.22,-0.83,9.25,-11.75,-42.56
326566848,-0.23,-1.46,10.80,-0.21,0.22,-0.83,9.25,-11.75,-42.56
326576390,-0.23,-1.46,10.80,-0.13,0.23,-0.81,9.25,-11.75,-42.56
326585718,-0.23,-1.46,10.80,-0.13,0.15,-0.83,9.25,-11.75,-42.56
326596288,-1.61,-2.41,7.63,-0.13,0.15,-0.83,9.25,-11.75,-42.56
326606383,-1.61,-2.41,7.63,-0.11,0.17,-0.89,9.25,-11.75,-42.56
326616515,-1.61,-2.41,7.63,-0.09,0.16,-0.82,9.25,-11.75,-42.56
326626544,-1.61,-2.41,7.63,-0.20,0.39,-0.84,9.25,-11.75,-42.56
326636702,-2.64,-2.84,9.30,-0.20,0.39,-0.84,9.25,-11.75,-42.56
326646390,-2.64,-2.84,9.30,-0.12,0.24,-0.82,9.25,-11.75,-42.56
326655337,-2.64,-2.84,9.30,-0.11,0.27,-0.78,9.25,-11.75,-42.56
326666586,3.07,0.46,13.49,-0.11,0.27,-0.78,9.25,-11.75,-42.56
326676751,-2.18,-3.91,8.77,-0.11,0.27,-0.78,9.25,-11.75,-42.56
326686405,-2.18,-3.91,8.77,-0.04,0.26,-0.66,9.25,-11.75,-42.56
326696210,-0.27,-2.41,10.69,-0.04,0.26,-0.66,9.25,-11.75,-42.56
326706674,-0.57,-2.68,8.46,-0.04,0.26,-0.66,9.25,-11.75,-42.56
326716466,-0.57,-2.68,8.46,0.01,0.19,-0.63,9.25,-11.75,-42.56
326726408,-0.57,-2.68,8.46,0.06,0.21,-0.59,9.25,-11.75,-42.56
326736674,-0.04,-2.07,10.30,0.06,0.21,-0.59,9.25,-11.75,-42.56
326747200,-0.04,-2.07,10.30,0.04,0.23,-0.57,9.25,-11.75,-42.56
326756460,-0.04,-2.07,10.30,0.03,0.26,-0.58,9.25,-11.75,-42.56
326766124,-0.50,-2.11,7.51,0.03,0.26,-0.58,9.25,-11.75,-42.56
326776685,1.38,-1.80,10.92,0.03,0.26,-0.58,9.25,-11.75,-42.56
326786372,1.38,-1.80,10.92,-0.01,0.31,-0.62,9.25,-11.75,-42.56
326796498,1.38,-1.80,10.92,-0.03,0.35,-0.65,9.25,-11.75,-42.56
326806706,-1.46,-1.76,9.39,-0.03,0.35,-0.65,9.25,-11.75,-42.56
326816503,-1.46,-1.76,9.39,0.03,0.17,-0.67,9.25,-11.75,-42.56
326825726,-1.46,-1.76,9.39,-0.00,0.22,-0.68,9.25,-11.75,-42.56
326835977,1.61,-2.41,8.08,-0.00,0.22,-0.68,9.25,-11.75,-42.56
326846765,-0.80,-0.73,10.11,-0.00,0.22,-0.68,9.25,-11.75,-42.56
326856367,-0.80,-0.73,10.11,-0.04,0.28,-0.77,9.25,-11.75,-42.56
326866551,-0.80,-0.73,10.11,-0.09,0.31,-0.78,9.25,-11.75,-42.56
326876755,-2.80,-1.84,7.21,-0.09,0.31,-0.78,9.25,-11.75,-42.56
326886373,-2.80,-1.84,7.21,-0.03,0.10,-0.79,9.25,-11.75,-42.56
326895750,-2.80,-1.84,7.21,-0.08,0.37,-0.72,9.25,-11.75,-42.56
326905639,0.88,-1.07,11.68,-0.08,0.37,-0.72,9.25,-11.75,-42.56
326916030,0.88,-1.07,11.68,0.15,0.03,-0.55,9.25,-11.75,-42.56
326926719,0.88,-1.07,11.68,0.03,0.38,-0.50,9.25,-11.75,-42.56
326936712,0.88,-1.07,11.68,0.09,0.16,-0.48,9.25,-11.75,-42.56
326946489,0.88,-1.07,11.68,0.05,0.25,-0.46,9.25,-11.75,-42.56
326956397,0.88,-1.07,11.68,-0.01,0.43,-0.43,9.25,-11.75,-42.56
326965852,0.88,-1.07,11.68,0.08,0.23,-0.43,9.25,-11.75,-42.56
326976373,-2.11,-2.57,5.52,0.08,0.23,-0.43,9.25,-11.75,-42.56
326986383,-2.11,-2.57,5.52,0.01,0.26,-0.48,9.25,-11.75,-42.56
326996493,-2.11,-2.57,5.52,0.09,0.10,-0.44,9.25,-11.75,-42.56
327006371,-2.11,-2.57,5.52,0.02,0.45,-0.38,9.25,-11.75,-42.56
327016878,0.27,-4.21,7.51,0.02,0.45,-0.38,9.25,-11.75,-42.56
327026365,0.27,-4.21,7.51,0.14,0.18,-0.40,9.25,-11.75,-42.56
327035736,0.27,-4.21,7.51,0.04,0.44,-0.38,9.25,-11.75,-42.56
327046879,-1.07,-2.68,6.93,0.04,0.44,-0.38,9.25,-11.75,-42.56
327056434,-1.07,-2.68,6.93,0.06,0.29,-0.44,9.25,-11.75,-42.56
327066497,-1.07,-2.68,6.93,0.04,0.32,-0.46,9.25,-11.75,-42.56
327076217,-1.07,-2.68,6.93,0.08,0.23,-0.45,9.25,-11.75,-42.56
327086675,-2.87,-1.80,7.59,0.08,0.23,-0.45,9.25,-11.75,-42.56
327096368,-2.87,-1.80,7.59,0.05,0.17,-0.49,9.25,-11.75,-42.56
327106412,-2.87,-1.80,7.59,0.01,0.34,-0.48,9.25,-11.75,-42.56
327116812,-0.65,-2.03,6.32,0.01,0.34,-0.48,9.25,-11.75,-42.56
327126361,-0.65,-2.03,6.32,0.04,0.18,-0.55,9.25,-11.75,-42.56
327136387,-0.65,-2.03,6.32,0.02,0.18,-0.53,9.25,-11.75,-42.56
327146095,-0.65,-2.03,6.32,-0.01,0.15,-0.56,9.25,-11.75,-42.56
327156732,0.73,-1.76,12.83,-0.01,0.15,-0.56,9.25,-11.75,-42.56
327166479,0.73,-1.76,12.83,0.02,0.18,-0.61,9.25,-11.75,-42.56
327177992,0.73,-1.76,12.83,0.03,0.31,-0.58,9.25,-11.75,-42.56
327186675,-1.46,-2.87,9.00,0.03,0.31,-0.58,9.25,-11.75,-42.56
327196469,-1.46,-2.87,9.00,-0.05,0.35,-0.69,9.25,-11.75,-42.56
327205731,-1.46,-2.87,9.00,-0.11,0.35,-0.73,9.25,-11.75,-42.56
327215425,-12.60,-0.15,-1.84,-0.11,0.35,-0.73,9.25,-11.75,-42.56
327226373,-7.47,-0.46,2.18,-0.11,0.35,-0.73,9.25,-11.75,-42.56
327236714,2.53,-0.38,8.20,-0.11,0.35,-0.73,9.25,-11.75,-42.56
327246424,2.53,-0.38,8.20,-0.03,0.21,-0.90,9.25,-11.75,-42.56
327256765,2.61,-1.46,14.25,-0.03,0.21,-0.90,9.25,-11.75,-42.56
327266467,2.61,-1.46,14.25,-0.03,0.32,-0.97,9.25,-11.75,-42.56
327275766,2.61,-1.46,14.25,-0.06,0.31,-0.99,9.25,-11.75,-42.56
327286290,0.61,-0.34,11.26,-0.06,0.31,-0.99,9.25,-11.75,-42.56
327296349,0.61,-0.34,11.26,-0.18,0.38,-1.07,9.25,-11.75,-42.56
327306379,0.61,-0.34,11.26,-0.06,0.27,-1.00,9.25,-11.75,-42.56
327316500,0.61,-0.34,11.26,-0.03,0.35,-0.96,9.25,-11.75,-42.56
327326693,-1.61,0.15,6.62,-0.03,0.35,-0.96,9.25,-11.75,-42.56
327336360,-1.61,0.15,6.62,0.10,0.11,-0.87,9.25,-11.75,-42.56
327345842,-1.61,0.15,6.62,0.01,0.34,-0.82,9.25,-11.75,-42.56
327357837,0.96,-2.95,11.72,0.01,0.34,-0.82,9.25,-11.75,-42.56
327366470,0.96,-2.95,11.72,0.11,0.35,-0.72,9.25,-11.75,-42.56
327376410,0.96,-2.95,11.72,0.11,0.35,-0.67,9.25,-11.75,-42.56
327386464,0.96,-2.95,11.72,0.00,0.43,-0.67,9.25,-11.75,-42.56
327396703,0.84,-1.76,11.68,0.00,0.43,-0.67,9.25,-11.75,-42.56
327406456,0.84,-1.76,11.68,0.06,0.28,-0.53,9.25,-11.75,-42.56
327416555,0.84,-1.76,11.68,-0.03,0.43,-0.48,9.25,-11.75,-42.56
327425625,-1.27,-4.45,6.86,-0.03,0.43,-0.48,9.25,-11.75,-42.56
327435169,-1.27,-4.45,6.86,0.21,0.20,-0.23,9.25,-11.75,-42.56
327446733,-1.27,-4.45,6.86,0.25,0.28,-0.11,9.25,-11.75,-42.56
327456493,-1.27,-4.45,6.86,0.24,0.30,-0.07,9.25,-11.75,-42.56
327466521,-1.27,-4.45,6.86,0.21,0.39,-0.05,9.25,-11.75,-42.56
327476376,-1.27,-4.45,6.86,0.29,0.21,0.01,9.25,-11.75,-42.56
327486445,-1.27,-4.45,6.86,0.19,0.43,0.04,9.25,-11.75,-42.56
327496707,-0.42,-2.18,12.68,0.19,0.43,0.04,9.25,-11.75,-42.56
327506366,-0.42,-2.18,12.68,0.28,-0.01,-0.05,9.25,-11.75,-42.56
327516515,-0.42,-2.18,12.68,0.29,0.18,0.04,9.25,-11.75,-42.56
327525977,-0.42,-2.18,12.68,0.27,0.33,0.13,9.25,-11.75,-42.56
327536688,1.53,-2.53,11.99,0.27,0.33,0.13,9.25,-11.75,-42.56
327547256,1.53,-2.53,11.99,0.26,0.22,0.07,9.25,-11.75,-42.56
327556404,1.53,-2.53,11.99,0.16,0.39,0.02,9.25,-11.75,-42.56
327566778,1.53,-2.53,11.99,0.16,0.16,-0.05,9.25,-11.75,-42.56
327576346,1.53,-2.53,11.99,0.07,0.41,-0.05,9.25,-11.75,-42.56
327585767,1.53,-2.53,11.99,0.09,0.39,-0.06,9.25,-11.75,-42.56
327595958,1.53,-2.53,11.99,0.13,0.20,-0.13,9.25,-11.75,-42.56
327606694,-2.07,1.72,10.65,0.13,0.20,-0.13,9.25,-11.75,-42.56
327616540,-2.07,1.72,10.65,0.11,0.16,-0.22,9.25,-11.75,-42.56
327626396,-2.07,1.72,10.65,0.08,0.08,-0.29,9.25,-11.75,-42.56
327636691,1.27,-0.30,9.08,0.08,0.08,-0.29,9.25,-11.75,-42.56
327646385,1.27,-0.30,9.08,0.06,0.04,-0.42,9.25,-11.75,-42.56
327655714,1.27,-0.30,9.08,-0.11,0.41,-0.49,9.25,-11.75,-42.56
327666359,-2.99,-2.72,7.23,-0.11,0.41,-0.49,9.25,-11.75,-42.56
327676381,-2.99,-2.72,7.23,-0.04,0.20,-0.54,9.25,-11.75,-42.56
327686462,-2.99,-2.72,7.23,-0.03,0.19,-0.57,9.25,-11.75,-42.56
327696428,-2.99,-2.72,7.23,0.03,0.03,-0.63,9.25,-11.75,-42.56
327706697,-0.92,0.54,6.21,0.03,0.03,-0.63,9.25,-11.75,-42.56
327717253,-0.92,0.54,6.21,0.01,0.07,-0.66,9.25,-11.75,-42.56
327725720,-0.92,0.54,6.21,-0.02,0.08,-0.70,9.25,-11.75,-42.56
327737003,-0.92,0.54,6.21,-0.04,0.17,-0.74,9.25,-11.75,-42.56
327746839,-0.92,0.54,6.21,-0.03,0.10,-0.80,9.25,-11.75,-42.56
327756454,-0.92,0.54,6.21,-0.09,0.24,-0.84,9.25,-11.75,-42.56
327766313,-0.92,0.54,6.21,-0.15,0.31,-0.88,9.25,-11.75,-42.56
327776736,2.22,1.15,8.70,-0.15,0.31,-0.88,9.25,-11.75,-42.56
327786396,2.22,1.15,8.70,-0.24,0.47,-0.90,9.25,-11.75,-42.56
327796493,2.22,1.15,8.70,-0.14,0.20,-0.95,9.25,-11.75,-42.56
327805641,2.53,-0.54,17.89,-0.14,0.20,-0.95,9.25,-11.75,-42.56
327815307,2.53,-0.54,17.89,-0.17,0.42,-0.98,9.25,-11.75,-42.56
327826715,2.53,-0.54,17.89,-0.08,0.21,-0.98,9.25,-11.75,-42.56
327836409,2.53,-0.54,17.89,-0.05,0.24,-0.92,9.25,-11.75,-42.56
327846361,2.53,-0.54,17.89,-0.10,0.11,-0.98,9.25,-11.75,-42.56
327856376,2.53,-0.54,17.89,-0.13,0.11,-1.03,9.25,-11.75,-42.56
327866468,2.53,-0.54,17.89,-0.15,0.26,-0.96,9.25,-11.75,-42.56
327876692,4.25,-1.91,12.64,-0.15,0.26,-0.96,9.25,-11.75,-42.56
327886369,4.25,-1.91,12.64,-0.07,0.26,-0.88,9.25,-11.75,-42.56
327896460,4.25,-1.91,12.64,-0.01,0.23,-0.85,9.25,-11.75,-42.56
327906077,4.25,-1.91,12.64,0.08,0.08,-0.80,9.25,-11.75,-42.56
327916846,1.07,-2.95,9.50,0.08,0.08,-0.80,9.25,-11.75,-42.56
327926420,1.07,-2.95,9.50,0.01,0.21,-0.75,9.25,-11.75,-42.56
327936390,1.07,-2.95,9.50,0.06,0.09,-0.75,9.25,-11.75,-42.56
327946827,2.41,-1.57,10.04,0.06,0.09,-0.75,9.25,-11.75,-42.56
327956396,2.41,-1.57,10.04,0.06,0.20,-0.70,9.25,-11.75,-42.56
327965849,2.41,-1.57,10.04,0.06,0.20,-0.70,18.31,13.50,-41.56
327976417,2.41,-1.57,10.04,0.08,0.38,-0.59,18.31,13.50,-41.56
327986376,2.41,-1.57,10.04,0.13,0.30,-0.52,18.31,13.50,-41.56
327996438,2.41,-1.57,10.04,0.11,0.40,-0.51,18.31,13.50,-41.56
328006411,2.41,-1.57,10.04,0.16,0.23,-0.47,18.31,13.50,-41.56
328016817,1.04,-2.53,7.35,0.16,0.23,-0.47,18.31,13.50,-41.56
328026404,1.04,-2.53,7.35,0.16,0.23,-0.47,18.56,12.25,-40.81
328035797,1.04,-2.53,7.35,0.16,0.23,-0.47,18.56,12.81,-40.50
328045642,1.04,-2.53,7.35,0.18,0.35,-0.42,18.56,12.81,-40.50
328055197,1.04,-2.53,7.35,0.27,0.11,-0.41,18.56,12.81,-40.50
328066811,1.04,-2.53,7.35,0.21,0.33,-0.35,18.56,12.81,-40.50
328076455,1.04,-2.53,7.35,0.23,0.32,-0.29,18.56,12.81,-40.50
328086711,1.04,-2.53,7.35,0.28,0.23,-0.25,18.56,12.81,-40.50
328096438,1.04,-2.53,7.35,0.28,0.23,-0.25,18.44,12.62,-41.38
328105727,1.04,-2.53,7.35,0.26,0.32,-0.17,18.44,12.62,-41.38
328116961,1.04,-2.53,7.35,0.30,0.17,-0.19,18.44,12.62,-41.38
328126373,1.04,-2.53,7.35,0.20,0.39,-0.14,18.44,12.62,-41.38
328136409,1.04,-2.53,7.35,0.24,0.35,-0.09,18.44,12.62,-41.38
328146309,1.04,-2.53,7.35,0.35,0.16,-0.04,18.44,12.62,-41.38
328156748,1.30,-2.38,8.96,0.35,0.16,-0.04,18.44,12.62,-41.38
328166446,1.30,-2.38,8.96,0.35,0.16,-0.04,20.00,12.44,-40.50
328176459,1.30,-2.38,8.96,0.35,0.16,-0.04,20.50,12.38,-39.94
328186727,1.30,-2.38,8.96,0.37,0.34,0.22,20.50,12.38,-39.94
328196383,1.30,-2.38,8.96,0.42,0.19,0.24,20.50,12.38,-39.94
328206480,1.30,-2.38,8.96,0.45,0.10,0.27,20.50,12.38,-39.94
328216147,1.30,-2.38,8.96,0.36,0.29,0.28,20.50,12.38,-39.94
328226699,1.30,-2.38,8.96,0.40,0.14,0.25,20.50,12.38,-39.94
328236395,1.30,-2.38,8.96,0.40,0.14,0.25,21.44,11.38,-39.06
328246422,1.30,-2.38,8.96,0.40,0.14,0.25,21.50,10.81,-38.94
328256709,1.30,-2.38,8.96,0.38,0.02,0.15,21.50,10.81,-38.94
328266471,1.30,-2.38,8.96,0.33,0.14,0.18,21.50,10.81,-38.94
328276469,1.30,-2.38,8.96,0.30,0.18,0.18,21.50,10.81,-38.94
328286048,1.30,-2.38,8.96,0.31,0.24,0.15,21.50,10.81,-38.94
328296729,1.30,-2.38,8.96,0.35,0.05,0.08,21.50,10.81,-38.94
328306455,1.30,-2.38,8.96,0.24,0.08,0.03,21.50,10.81,-38.94
328316573,1.30,-2.38,8.96,0.16,0.20,-0.01,21.50,10.81,-38.94
328326703,1.30,-2.38,8.96,0.27,-0.02,-0.04,21.50,10.81,-38.94
328336392,1.30,-2.38,8.96,0.18,0.26,-0.04,21.50,10.81,-38.94
328345811,1.30,-2.38,8.96,0.22,0.08,-0.07,21.50,10.81,-38.94
328356435,1.30,-2.38,8.96,0.23,0.02,-0.07,21.50,10.81,-38.94
328366521,1.30,-2.38,8.96,0.18,0.16,-0.08,21.50,10.81,-38.94
328376407,1.30,-2.38,8.96,0.13,0.18,-0.06,21.50,10.81,-38.94
328386431,1.30,-2.38,8.96,0.13,0.19,-0.08,21.50,10.81,-38.94
328396707,1.30,-2.38,8.96,0.21,0.09,-0.08,21.50,10.81,-38.94
328406433,1.30,-2.38,8.96,0.21,0.10,-0.08,21.50,10.81,-38.94
328415859,1.30,-2.38,8.96,0.19,0.02,-0.10,21.50,10.81,-38.94
328427541,1.30,-2.38,8.96,0.15,0.07,-0.09,21.50,10.81,-38.94
328436418,1.30,-2.38,8.96,0.16,0.09,-0.09,21.50,10.81,-38.94
328446395,1.30,-2.38,8.96,0.20,-0.08,-0.09,21.50,10.81,-38.94
328456433,1.30,-2.38,8.96,0.11,0.18,-0.09,21.50,10.81,-38.94
328466845,1.30,-2.38,8.96,0.10,0.05,-0.16,21.50,10.81,-38.94
328476388,1.30,-2.38,8.96,0.12,-0.07,-0.21,21.50,10.81,-38.94
328485739,1.30,-2.38,8.96,0.09,0.03,-0.19,21.50,10.81,-38.94
328496982,1.30,-2.38,8.96,0.10,-0.00,-0.18,21.50,10.81,-38.94
328506470,1.30,-2.38,8.96,0.05,0.11,-0.21,21.50,10.81,-38.94
328516503,1.30,-2.38,8.96,0.10,0.02,-0.20,21.50,10.81,-38.94
328526234,1.30,-2.38,8.96,0.08,0.07,-0.21,21.50,10.81,-38.94
328536703,1.30,-2.38,8.96,0.03,0.08,-0.27,21.50,10.81,-38.94
328546597,1.30,-2.38,8.96,0.03,0.02,-0.28,21.50,10.81,-38.94
328556457,1.30,-2.38,8.96,0.04,0.08,-0.28,21.50,10.81,-38.94
328566818,1.30,-2.38,8.96,0.05,0.09,-0.24,21.50,10.81,-38.94
328576413,1.30,-2.38,8.96,0.06,0.06,-0.22,21.50,10.81,-38.94
328586415,1.30,-2.38,8.96,0.09,0.03,-0.19,21.50,10.81,-38.94
328595996,1.30,-2.38,8.96,0.06,0.12,-0.16,21.50,10.81,-38.94
328606808,1.30,-2.38,8.96,0.04,0.18,-0.13,21.50,10.81,-38.94
328616672,1.30,-2.38,8.96,0.10,0.07,-0.07,21.50,10.81,-38.94
328626390,1.30,-2.38,8.96,0.14,-0.03,-0.06,21.50,10.81,-38.94
328636724,1.30,-2.38,8.96,0.05,0.19,-0.03,21.50,10.81,-38.94
328646405,1.30,-2.38,8.96,0.08,0.02,-0.04,21.50,10.81,-38.94
328655739,1.30,-2.38,8.96,0.06,0.02,-0.01,21.50,10.81,-38.94
328666055,1.30,-2.38,8.96,0.08,0.11,0.04,21.50,10.81,-38.94
328676728,0.73,-0.50,10.45,0.08,0.11,0.04,21.50,10.81,-38.94
328686473,0.73,-0.50,10.45,0.14,0.11,0.13,21.50,10.81,-38.94
328696455,0.73,-0.50,10.45,0.11,0.03,0.06,21.50,10.81,-38.94
328706745,0.73,-0.50,10.45,0.15,-0.10,0.07,21.50,10.81,-38.94
328716535,0.73,-0.50,10.45,0.00,0.32,0.12,21.50,10.81,-38.94
328725727,0.73,-0.50,10.45,0.15,-0.04,0.05,21.50,10.81,-38.94
328736359,0.73,-0.50,10.45,0.19,-0.13,0.07,21.50,10.81,-38.94
328746516,0.73,-0.50,10.45,-0.04,0.36,0.07,21.50,10.81,-38.94
328756449,0.73,-0.50,10.45,0.17,-0.15,-0.01,21.50,10.81,-38.94
328766515,0.73,-0.50,10.45,0.17,-0.24,-0.03,21.50,10.81,-38.94
328776738,0.73,-0.50,10.45,-0.13,0.31,-0.01,21.50,10.81,-38.94
328786385,0.73,-0.50,10.45,0.06,-0.13,-0.09,21.50,10.81,-38.94
328795765,0.73,-0.50,10.45,0.14,-0.14,-0.08,21.50,10.81,-38.94
328806319,0.73,-0.50,10.45,-0.08,0.24,-0.07,21.50,10.81,-38.94
328816585,0.73,-0.50,10.45,0.02,-0.14,-0.16,21.50,10.81,-38.94
328826411,0.73,-0.50,10.45,0.05,-0.12,-0.16,21.50,10.81,-38.94
328836401,0.73,-0.50,10.45,-0.07,0.16,-0.15,21.50,10.81,-38.94
328846732,0.73,-0.50,10.45,-0.04,0.01,-0.20,21.50,10.81,-38.94
328856443,0.73,-0.50,10.45,-0.11,0.26,-0.21,21.50,10.81,-38.94
328866574,0.73,-0.50,10.45,-0.05,0.04,-0.26,21.50,10.81,-38.94
328875731,0.73,-0.50,10.45,0.00,-0.11,-0.29,21.50,10.81,-38.94
328885168,0.73,-0.50,10.45,-0.09,0.12,-0.35,21.50,10.81,-38.94
328896734,0.73,-0.50,10.45,-0.09,0.12,-0.34,21.50,10.81,-38.94
328906182,0.73,-0.50,10.45,-0.06,0.04,-0.37,21.50,10.81,-38.94
328916943,0.73,-0.50,10.45,-0.05,0.00,-0.42,21.50,10.81,-38.94
328926404,0.73,-0.50,10.45,-0.05,-0.03,-0.43,21.50,10.81,-38.94
328936443,0.73,-0.50,10.45,-0.09,0.04,-0.44,21.50,10.81,-38.94
328946829,0.73,-0.50,10.45,-0.10,-0.01,-0.47,21.50,10.81,-38.94
328956452,0.73,-0.50,10.45,-0.07,-0.10,-0.49,21.50,10.81,-38.94
328966500,0.73,-0.50,10.45,-0.07,0.06,-0.43,21.50,10.81,-38.94
328976043,0.73,-0.50,10.45,-0.03,-0.07,-0.40,21.50,10.81,-38.94
328986723,0.73,-0.50,10.45,-0.03,-0.24,-0.43,21.50,10.81,-38.94
328996500,0.73,-0.50,10.45,-0.12,0.04,-0.40,21.50,10.81,-38.94
329006437,0.73,-0.50,10.45,-0.14,0.18,-0.35,21.50,10.81,-38.94
329016965,0.73,-0.50,10.45,-0.05,0.01,-0.37,21.50,10.81,-38.94
329026460,0.73,-0.50,10.45,-0.05,0.01,-0.34,21.50,10.81,-38.94
329035720,0.73,-0.50,10.45,-0.05,0.00,-0.27,21.50,10.81,-38.94
329046021,0.73,-0.50,10.45,-0.06,0.08,-0.20,21.50,10.81,-38.94
329056803,0.73,-0.50,10.45,0.02,-0.00,-0.16,21.50,10.81,-38.94
329066502,0.73,-0.50,10.45,0.03,0.06,-0.11,21.50,10.81,-38.94
329076470,0.73,-0.50,10.45,0.02,0.09,-0.11,21.50,10.81,-38.94
329086742,0.73,-0.50,10.45,0.07,0.00,-0.09,21.50,10.81,-38.94
329096415,0.73,-0.50,10.45,-0.01,0.18,-0.07,21.50,10.81,-38.94
329105800,0.73,-0.50,10.45,-0.01,0.08,-0.12,21.50,10.81,-38.94
329116161,0.73,-0.50,10.45,0.04,-0.03,-0.13,21.50,10.81,-38.94
329126772,3.68,-1.61,10.15,0.04,-0.03,-0.13,21.50,10.81,-38.94
329136400,3.68,-1.61,10.15,0.05,0.04,-0.10,21.50,10.81,-38.94
329146542,3.68,-1.61,10.15,0.02,0.06,-0.10,21.50,10.81,-38.94
329156728,3.68,-1.61,10.15,0.01,0.07,-0.10,21.50,10.81,-38.94
329166473,3.68,-1.61,10.15,0.04,0.09,-0.05,21.50,10.81,-38.94
329175757,3.68,-1.61,10.15,0.06,-0.08,-0.07,21.50,10.81,-38.94
329186347,3.68,-1.61,10.15,0.03,0.01,-0.11,21.50,10.81,-38.94
329196425,3.68,-1.61,10.15,0.02,0.15,-0.10,21.50,10.81,-38.94
329206409,3.68,-1.61,10.15,0.07,0.02,-0.10,21.50,10.81,-38.94
329216425,3.68,-1.61,10.15,0.03,0.06,-0.13,21.50,10.81,-38.94
329226776,3.68,-1.61,10.15,0.04,-0.08,-0.19,21.50,10.81,-38.94
329236396,3.68,-1.61,10.15,0.05,-0.04,-0.22,21.50,10.81,-38.94
329245721,3.68,-1.61,10.15,0.00,0.10,-0.24,21.50,10.81,-38.94
329256153,3.68,-1.61,10.15,0.03,0.09,-0.25,21.50,10.81,-38.94
329265808,3.68,-1.61,10.15,0.03,0.14,-0.25,21.50,10.81,-38.94
329276414,3.68,-1.61,10.15,0.05,0.04,-0.27,21.50,10.81,-38.94
329286183,3.68,-1.61,10.15,0.09,-0.08,-0.28,21.50,10.81,-38.94
329296727,3.68,-1.61,10.15,0.08,0.03,-0.22,21.50,10.81,-38.94
329306422,3.68,-1.61,10.15,0.08,0.12,-0.19,21.50,10.81,-38.94
329315854,3.68,-1.61,10.15,0.13,-0.04,-0.16,21.50,10.81,-38.94
329326154,3.68,-1.61,10.15,0.03,0.17,-0.20,21.50,10.81,-38.94
329335722,3.68,-1.61,10.15,0.00,0.15,-0.26,21.50,10.81,-38.94
329146542,3.68,-1.61,10.15,0.02,0.06,-0.10,21.50,10.81,-38.94
