timestamp,accX,accY,accZ,gyroX,gyroY,gyroZ
Left
6,0.08,-0.77,8.39,0.33,-0.08,0.26
19,-1.53,-1.23,7.89,0.33,-0.08,0.26
20,-1.53,-1.23,7.89,0.07,0.13,-0.05
21,-1.53,-1.23,7.89,0.09,0.09,-0.01
25,1.61,-1.49,10.95,0.09,0.09,-0.01
31,1.61,-1.49,10.95,0.08,0.02,0.06
36,1.61,-1.49,10.95,0.07,-0.04,0.11
41,-1.07,-0.42,8.81,0.07,-0.04,0.11
47,-0.38,0.00,8.81,0.07,-0.04,0.11
51,-0.38,0.00,8.81,0.03,-0.01,0.02
56,-0.38,0.00,8.81,0.03,-0.02,0.01
62,0.19,-0.77,8.92,0.03,-0.02,0.01
66,0.19,-0.77,8.92,0.04,0.06,0.05
71,0.19,-0.77,8.92,0.06,0.13,-0.01
77,-3.75,-0.11,8.43,0.06,0.13,-0.01
81,-3.75,-0.11,8.43,0.07,0.15,-0.15
87,-3.75,-0.11,8.43,0.05,0.06,-0.13
92,1.42,-1.76,10.77,0.05,0.06,-0.13
96,1.42,-1.76,10.77,-0.03,-0.20,-0.09
101,1.42,-1.76,10.77,-0.07,-0.23,-0.14
106,1.42,-1.76,10.77,-0.06,-0.18,-0.20
112,-0.23,-0.69,9.08,-0.06,-0.18,-0.20
116,-0.23,-0.69,9.08,-0.02,0.07,-0.24
121,-0.23,-0.69,9.08,0.01,0.12,-0.23
126,-0.23,-0.69,9.08,0.01,0.04,-0.23
137,4.83,-2.87,11.84,0.01,0.04,-0.23
142,4.83,-2.87,11.84,0.01,-0.13,-0.08
147,-1.76,1.23,11.11,0.01,-0.13,-0.08
151,-1.76,1.23,11.11,0.08,0.34,-0.14
156,-1.76,1.23,11.11,0.12,0.39,-0.19
161,-3.45,0.30,7.31,0.12,0.39,-0.19
167,-1.00,0.27,6.05,0.12,0.39,-0.19
171,-1.00,0.27,6.05,0.06,0.04,-0.23
176,-1.00,0.27,6.05,0.03,-0.12,-0.28
182,0.92,0.88,8.35,0.03,-0.12,-0.28
186,0.92,0.88,8.35,-0.07,-0.31,-0.39
191,0.92,0.88,8.35,-0.12,-0.29,-0.39
196,-0.27,0.27,11.64,-0.12,-0.29,-0.39
202,0.04,1.00,11.07,-0.12,-0.29,-0.39
206,0.04,1.00,11.07,-0.05,0.02,-0.35
211,0.04,1.00,11.07,-0.00,0.10,-0.30
217,0.04,0.08,8.85,-0.00,0.10,-0.30
221,0.04,0.08,8.85,0.08,0.11,-0.16
226,0.04,0.08,8.85,0.09,0.07,-0.11
232,3.52,-1.19,9.35,0.09,0.07,-0.11
236,3.52,-1.19,9.35,0.11,-0.14,-0.02
241,3.52,-1.19,9.35,0.09,-0.17,0.09
246,3.52,-1.19,9.35,0.08,-0.15,0.14
252,-0.69,1.61,11.99,0.08,-0.15,0.14
256,-0.69,1.61,11.99,0.05,0.05,0.08
261,-0.69,1.61,11.99,0.07,0.09,0.06
266,-0.69,1.61,11.99,0.10,0.11,0.09
272,-1.30,-2.38,7.13,0.10,0.11,0.09
276,-1.30,-2.38,7.13,0.15,0.05,0.12
281,-1.30,-2.38,7.13,0.13,0.03,0.05
287,-3.95,-0.38,6.36,0.13,0.03,0.05
291,-3.95,-0.38,6.36,0.11,0.00,-0.11
296,-3.95,-0.38,6.36,0.07,-0.05,-0.15
301,0.38,-0.46,11.07,0.07,-0.05,-0.15
307,1.49,-0.34,12.14,0.07,-0.05,-0.15
311,1.49,-0.34,12.14,0.03,-0.22,-0.19
316,1.49,-0.34,12.14,0.03,-0.02,-0.14
322,-0.96,0.69,10.00,0.03,-0.02,-0.14
326,-0.96,0.69,10.00,0.05,0.28,-0.21
331,-0.96,0.69,10.00,0.10,0.21,-0.24
337,-0.11,-0.34,6.59,0.10,0.21,-0.24
341,-0.11,-0.34,6.59,0.12,-0.02,-0.19
346,-0.11,-0.34,6.59,0.10,-0.16,-0.20
351,4.06,-1.68,11.53,0.10,-0.16,-0.20
357,3.33,0.15,11.84,0.10,-0.16,-0.20
361,3.33,0.15,11.84,0.07,-0.19,-0.15
366,3.33,0.15,11.84,0.05,0.08,-0.17
372,-0.08,1.34,9.85,0.05,0.08,-0.17
376,-0.08,1.34,9.85,0.04,0.33,-0.22
381,-0.08,1.34,9.85,0.06,0.26,-0.32
386,-0.08,1.34,9.85,0.04,0.18,-0.36
393,-1.42,0.73,10.65,0.04,0.18,-0.36
396,-1.42,0.73,10.65,0.02,0.04,-0.29
401,-1.42,0.73,10.65,0.01,-0.05,-0.28
407,-1.42,0.73,10.65,0.03,-0.07,-0.25
411,-1.42,0.73,10.65,0.05,-0.03,-0.23
416,-1.42,0.73,10.65,0.06,0.04,-0.26
421,-2.38,1.46,8.82,0.06,0.04,-0.26
427,-1.95,0.92,9.61,0.06,0.04,-0.26
431,-1.95,0.92,9.61,0.11,0.15,-0.30
436,-1.95,0.92,9.61,0.11,0.11,-0.31
442,0.77,-0.73,8.62,0.11,0.11,-0.31
446,0.77,-0.73,8.62,0.09,-0.10,-0.30
451,0.77,-0.73,8.62,0.13,-0.16,-0.26
457,-1.57,2.14,7.43,0.13,-0.16,-0.26
461,-1.57,2.14,7.43,0.10,-0.13,-0.33
466,-1.57,2.14,7.43,0.08,-0.09,-0.38
471,-1.57,2.14,7.43,0.06,-0.06,-0.43
477,-0.04,-0.38,10.00,0.06,-0.06,-0.43
481,-0.04,-0.38,10.00,0.06,-0.04,-0.45
486,-0.04,-0.38,10.00,0.06,-0.02,-0.44
492,4.60,0.27,11.57,0.06,-0.02,-0.44
496,4.60,0.27,11.57,0.10,-0.04,-0.39
501,4.60,0.27,11.57,0.07,0.01,-0.35
506,4.60,0.27,11.57,0.10,0.08,-0.35
512,-0.19,-1.99,11.38,0.10,0.08,-0.35
516,-0.19,-1.99,11.38,0.22,0.20,-0.21
521,-0.19,-1.99,11.38,0.29,0.21,-0.19
527,-3.48,0.61,5.75,0.29,0.21,-0.19
531,-3.48,0.61,5.75,0.34,0.19,-0.14
537,-3.48,0.61,5.75,0.36,0.14,-0.12
541,-3.68,0.54,7.86,0.36,0.14,-0.12
547,-1.46,0.57,9.00,0.36,0.14,-0.12
551,-1.46,0.57,9.00,0.22,-0.20,-0.18
556,-1.46,0.57,9.00,0.18,-0.32,-0.19
561,1.91,-0.69,11.19,0.18,-0.32,-0.19
567,0.80,-1.91,12.72,0.18,-0.32,-0.19
571,0.80,-1.91,12.72,0.16,-0.06,-0.27
577,-7.39,-2.30,8.39,0.16,-0.06,-0.27
581,-7.39,-2.30,8.39,0.41,0.24,-0.25
586,-7.39,-2.30,8.39,0.38,0.12,-0.19
591,-7.39,-2.30,8.39,0.38,-0.02,-0.11
597,3.07,-1.84,7.63,0.38,-0.02,-0.11
601,3.07,-1.84,7.63,0.35,-0.39,-0.08
606,3.07,-1.84,7.63,0.32,-0.49,-0.04
611,5.98,-0.65,14.75,0.32,-0.49,-0.04
617,3.95,-1.04,14.68,0.32,-0.49,-0.04
621,3.95,-1.04,14.68,0.30,0.29,0.08
626,3.95,-1.04,14.68,0.35,0.25,0.12
632,0.38,-2.18,10.50,0.35,0.25,0.12
636,0.38,-2.18,10.50,0.36,0.03,0.18
641,0.38,-2.18,10.50,0.40,-0.03,0.22
647,0.38,-2.18,10.50,0.44,-0.07,0.26
651,0.38,-2.18,10.50,0.47,-0.09,0.27
656,0.38,-2.18,10.50,0.49,-0.12,0.25
661,0.38,-2.18,10.50,0.49,-0.12,0.24
667,-0.38,-0.57,8.27,0.49,-0.12,0.24
671,-0.38,-0.57,8.27,0.43,-0.18,0.22
676,-0.38,-0.57,8.27,0.37,-0.21,0.21
681,2.07,-1.04,15.59,0.37,-0.21,0.21
687,1.49,-1.42,15.32,0.37,-0.21,0.21
691,1.49,-1.42,15.32,0.30,0.13,0.22
696,-6.17,-1.57,5.59,0.30,0.13,0.22
702,-3.07,-2.22,6.02,0.30,0.13,0.22
706,-3.07,-2.22,6.02,0.51,0.03,0.29
711,-3.07,-2.22,6.02,0.52,-0.10,0.32
717,0.92,-1.15,5.78,0.52,-0.10,0.32
721,0.92,-1.15,5.78,0.48,-0.31,0.43
726,0.92,-1.15,5.78,0.46,-0.33,0.43
731,0.92,-1.15,5.78,0.48,-0.25,0.43
737,1.91,-0.34,12.14,0.48,-0.25,0.43
741,1.91,-0.34,12.14,0.42,0.10,0.44
746,1.91,-0.34,12.14,0.41,0.09,0.44
752,-4.45,0.42,6.13,0.41,0.09,0.44
756,-4.45,0.42,6.13,0.38,-0.06,0.32
761,-4.45,0.42,6.13,0.38,-0.13,0.27
765,-4.45,0.42,6.13,0.39,-0.20,0.29
770,-0.61,-2.61,10.19,0.39,-0.20,0.29
777,-0.61,-2.61,10.19,0.44,-0.18,0.37
781,-0.61,-2.61,10.19,0.42,0.07,0.42
787,0.46,0.00,9.42,0.42,0.07,0.42
791,0.46,0.00,9.42,0.45,0.04,0.43
796,0.46,0.00,9.42,0.45,0.01,0.39
801,0.46,0.00,9.42,0.43,0.01,0.36
807,0.23,1.80,12.45,0.43,0.01,0.36
811,0.23,1.80,12.45,0.30,-0.05,0.29
816,0.23,1.80,12.45,0.24,-0.10,0.31
822,0.61,-3.68,11.07,0.24,-0.10,0.31
826,0.61,-3.68,11.07,0.29,0.02,0.36
831,0.61,-3.68,11.07,0.37,0.12,0.30
836,0.61,-3.68,11.07,0.43,0.14,0.23
841,0.61,-3.68,11.07,0.42,0.08,0.19
846,0.61,-3.68,11.07,0.35,-0.05,0.15
851,0.61,-3.68,11.07,0.27,-0.18,0.13
856,1.72,-1.91,13.02,0.27,-0.18,0.13
861,1.72,-1.91,13.02,0.23,-0.33,0.12
866,1.72,-1.91,13.02,0.23,-0.11,0.17
872,1.72,-1.91,13.02,0.24,0.13,0.18
876,1.72,-1.91,13.02,0.27,0.15,0.20
881,1.72,-1.91,13.02,0.29,0.05,0.24
886,1.72,-1.91,13.02,0.33,0.02,0.26
892,0.27,0.80,5.55,0.33,0.02,0.26
896,0.27,0.80,5.55,0.38,-0.07,0.26
901,0.27,0.80,5.55,0.41,-0.11,0.35
907,0.27,0.80,5.55,0.41,-0.14,0.48
911,0.27,0.80,5.55,0.41,-0.14,0.56
916,0.27,0.80,5.55,0.34,-0.09,0.56
921,0.27,0.80,5.55,0.30,0.01,0.50
927,0.80,0.77,14.25,0.30,0.01,0.50
931,0.80,0.77,14.25,0.22,0.09,0.39
936,0.80,0.77,14.25,0.22,0.08,0.37
942,0.80,0.77,14.25,0.25,0.02,0.36
946,0.80,0.77,14.25,0.27,-0.10,0.34
951,0.80,0.77,14.25,0.31,-0.21,0.35
956,0.80,0.77,14.25,0.33,-0.28,0.39
961,0.80,0.77,14.25,0.35,-0.28,0.42
966,0.80,0.77,14.25,0.33,-0.11,0.39
971,0.80,0.77,14.25,0.26,0.11,0.35
976,-1.46,-0.73,11.22,0.26,0.11,0.35
981,-1.46,-0.73,11.22,0.27,0.02,0.29
986,-1.46,-0.73,11.22,0.23,-0.10,0.25
992,-1.46,-0.73,11.22,0.22,-0.19,0.24
996,-1.46,-0.73,11.22,0.21,-0.26,0.21
1001,-1.46,-0.73,11.22,0.22,-0.23,0.20
1006,-1.46,-0.73,11.22,0.24,-0.02,0.20
1012,1.00,-0.88,9.00,0.24,-0.02,0.20
1016,1.00,-0.88,9.00,0.25,0.06,0.15
1021,1.00,-0.88,9.00,0.26,0.01,0.14
1027,1.00,-0.88,9.00,0.22,-0.02,0.14
1031,1.00,-0.88,9.00,0.24,-0.06,0.15
1036,1.00,-0.88,9.00,0.25,-0.07,0.18
1041,1.00,-0.88,9.00,0.26,-0.10,0.20
1047,-0.84,1.68,5.86,0.26,-0.10,0.20
1051,-0.84,1.68,5.86,0.25,-0.19,0.17
1056,-0.84,1.68,5.86,0.22,-0.27,0.18
1062,-0.84,1.68,5.86,0.23,-0.23,0.23
1066,-0.84,1.68,5.86,0.18,0.05,0.28
1071,-0.84,1.68,5.86,0.15,0.23,0.27
1076,-0.84,1.68,5.86,0.18,0.22,0.29
1082,-1.57,0.80,12.02,0.18,0.22,0.29
1086,-1.57,0.80,12.02,0.21,0.13,0.34
1091,-1.57,0.80,12.02,0.22,0.07,0.36
1096,-1.57,0.80,12.02,0.23,0.01,0.40
1101,-1.57,0.80,12.02,0.25,-0.04,0.43
1106,-1.57,0.80,12.02,0.26,-0.11,0.41
1111,-1.57,0.80,12.02,0.30,-0.21,0.38
1117,-1.23,0.11,5.79,0.30,-0.21,0.38
1121,-1.23,0.11,5.79,0.29,-0.29,0.44
1126,-1.23,0.11,5.79,0.27,-0.25,0.44
1131,-1.23,0.11,5.79,0.20,-0.08,0.37
1136,-1.23,0.11,5.79,0.12,0.01,0.28
1142,-1.23,0.11,5.79,0.12,-0.04,0.24
1146,-1.23,0.11,5.79,0.12,-0.12,0.27
1152,5.79,-7.36,17.78,0.12,-0.12,0.27
1156,5.79,-7.36,17.78,0.12,-0.03,0.38
1161,5.79,-7.36,17.78,0.21,0.13,0.48
1166,5.79,-7.36,17.78,0.32,0.19,0.55
1171,5.79,-7.36,17.78,0.42,0.15,0.62
1176,5.79,-7.36,17.78,0.43,0.13,0.66
1181,5.79,-7.36,17.78,0.38,0.11,0.65
1186,1.65,-1.91,10.03,0.38,0.11,0.65
1191,1.65,-1.91,10.03,0.30,-0.07,0.55
1196,1.65,-1.91,10.03,0.29,-0.17,0.64
1201,3.14,-2.38,10.34,0.29,-0.17,0.64
1205,3.14,-2.38,10.34,0.31,-0.13,0.86
1210,-1.80,0.84,9.43,0.31,-0.13,0.86
1216,-1.80,0.84,9.43,0.31,0.05,0.76
1221,-4.41,0.61,7.36,0.31,0.05,0.76
1226,-4.41,0.61,7.36,0.20,0.07,0.34
1231,-4.41,0.61,7.36,0.19,-0.06,0.34
1237,-2.03,-2.99,7.27,0.19,-0.06,0.34
1241,-2.03,-2.99,7.27,0.28,-0.26,0.49
1246,-2.03,-2.99,7.27,0.28,-0.11,0.49
1251,-2.03,-2.99,7.27,0.24,0.12,0.49
1256,-2.03,-2.99,7.27,0.21,0.16,0.48
1261,-2.03,-2.99,7.27,0.20,0.01,0.43
1266,-2.03,-2.99,7.27,0.19,-0.09,0.43
1272,-0.08,-0.57,13.18,0.19,-0.09,0.43
1276,-0.08,-0.57,13.18,0.20,0.07,0.50
1281,-0.08,-0.57,13.18,0.21,0.10,0.53
1286,-0.08,-0.57,13.18,0.24,0.03,0.55
1291,-0.08,-0.57,13.18,0.25,-0.01,0.55
1296,-0.08,-0.57,13.18,0.26,-0.05,0.53
1301,-0.08,-0.57,13.18,0.22,-0.11,0.48
1306,3.22,-1.11,10.65,0.22,-0.11,0.48
1311,3.22,-1.11,10.65,0.22,0.02,0.55
1316,3.22,-1.11,10.65,0.20,0.13,0.56
1321,3.22,-1.11,10.65,0.18,0.15,0.58
1326,3.22,-1.11,10.65,0.16,0.09,0.60
1331,3.22,-1.11,10.65,0.19,0.04,0.58
1336,3.22,-1.11,10.65,0.21,0.08,0.60
1342,-2.72,-0.19,7.47,0.21,0.08,0.60
1346,-2.72,-0.19,7.47,0.24,0.13,0.52
1351,-2.72,-0.19,7.47,0.24,0.09,0.50
1357,-2.72,-0.19,7.47,0.25,0.01,0.50
1361,-2.72,-0.19,7.47,0.24,-0.07,0.51
1366,-2.72,-0.19,7.47,0.20,-0.11,0.54
1371,-2.72,-0.19,7.47,0.18,-0.01,0.54
1376,-2.72,-0.19,7.47,0.12,0.14,0.49
1381,-2.72,-0.19,7.47,0.09,0.19,0.47
1386,-2.72,-0.19,7.47,0.12,0.16,0.48
1392,-2.72,-0.19,7.47,0.13,0.13,0.48
1396,-2.72,-0.19,7.47,0.18,0.13,0.48
1401,-2.72,-0.19,7.47,0.21,0.16,0.51
1406,-2.72,-0.19,7.47,0.22,0.15,0.48
1411,-2.72,-0.19,7.47,0.23,0.08,0.48
1416,-2.72,-0.19,7.47,0.22,0.02,0.54
1421,-2.72,-0.19,7.47,0.20,-0.05,0.58
1427,1.88,-0.15,12.91,0.20,-0.05,0.58
1431,1.88,-0.15,12.91,0.15,-0.06,0.56
1436,1.88,-0.15,12.91,0.12,0.11,0.55
1441,1.88,-0.15,12.91,0.12,0.27,0.63
1447,7.05,0.65,20.76,0.12,0.27,0.63
1451,7.05,0.65,20.76,0.06,0.30,0.66
1456,7.05,0.65,20.76,0.09,0.31,0.78
1462,4.21,-0.34,21.26,0.09,0.31,0.78
1466,4.21,-0.34,21.26,0.21,0.50,1.04
1471,4.21,-0.34,21.26,0.29,0.49,1.09
1476,4.21,-0.34,21.26,0.42,0.59,1.15
1482,-12.95,3.03,-5.86,0.42,0.59,1.15
1486,-12.95,3.03,-5.86,0.46,0.61,0.88
1491,-12.95,3.03,-5.86,0.42,0.42,0.65
1497,-9.00,1.65,-5.67,0.42,0.42,0.65
1501,-9.00,1.65,-5.67,0.16,-0.19,0.42
1505,-9.00,1.65,-5.67,-0.08,-0.50,0.35
1511,-9.00,1.65,-5.67,-0.27,-0.72,0.24
1516,8.46,-2.34,25.89,-0.27,-0.72,0.24
1522,8.46,-2.34,25.89,-0.30,-0.76,0.08
1526,8.46,-2.34,25.89,-0.38,0.77,0.03
1531,8.46,-2.34,25.89,-0.27,0.57,-0.01
1536,8.46,-2.34,25.89,-0.17,0.22,0.08
1541,8.46,-2.34,25.89,-0.07,-0.01,0.29
1547,8.46,-2.34,25.89,0.13,-0.03,0.47
1551,8.46,-2.34,25.89,0.28,0.21,0.57
1556,8.46,-2.34,25.89,0.41,0.43,0.63
1561,8.46,-2.34,25.89,0.46,0.46,0.66
1567,1.04,1.72,8.89,0.46,0.46,0.66
1571,1.04,1.72,8.89,0.20,0.19,0.65
1576,1.04,1.72,8.89,-0.01,0.02,0.54
1582,1.04,1.72,8.89,-0.18,-0.08,0.36
1586,1.04,1.72,8.89,-0.27,-0.11,0.20
1591,1.04,1.72,8.89,-0.25,-0.06,0.11
1596,1.04,1.72,8.89,-0.18,0.06,0.09
1602,0.84,-0.42,6.89,-0.18,0.06,0.09
1606,0.84,-0.42,6.89,-0.05,0.36,0.14
1611,0.84,-0.42,6.89,-0.00,0.33,0.08
1617,0.84,-0.42,6.89,0.03,0.27,0.02
1621,0.84,-0.42,6.89,0.05,0.23,0.00
1626,0.84,-0.42,6.89,0.05,0.12,0.01
1631,0.84,-0.42,6.89,0.03,-0.08,0.02
1637,2.95,-2.72,8.08,0.03,-0.08,0.02
1641,2.95,-2.72,8.08,-0.05,-0.50,0.10
1646,2.95,-2.72,8.08,-0.04,-0.46,0.08
1651,1.30,1.27,13.25,-0.04,-0.46,0.08
1656,1.30,1.27,13.25,-0.14,-0.08,-0.18
1661,1.30,1.27,13.25,-0.11,-0.13,-0.15
1666,1.30,1.27,13.25,-0.08,-0.26,-0.06
1672,20.27,-5.67,11.95,-0.08,-0.26,-0.06
1676,20.27,-5.67,11.95,0.12,-0.29,0.28
1681,20.27,-5.67,11.95,0.17,0.26,0.52
1687,6.36,3.87,2.38,0.17,0.26,0.52
1691,6.36,3.87,2.38,0.28,0.25,0.55
1696,6.36,3.87,2.38,0.23,0.22,0.51
1701,6.36,3.87,2.38,0.22,0.23,0.41
1707,-10.54,1.30,6.51,0.22,0.23,0.41
1711,-10.54,1.30,6.51,0.10,0.10,0.20
1716,-10.54,1.30,6.51,0.03,-0.10,0.14
1722,-3.45,-0.88,7.93,0.03,-0.10,0.14
1726,-3.45,-0.88,7.93,-0.06,-0.58,0.09
1731,-3.45,-0.88,7.93,-0.09,-0.78,0.06
1736,-3.45,-0.88,7.93,-0.07,-0.88,0.00
1742,3.18,2.99,8.32,-0.07,-0.88,0.00
1746,3.18,2.99,8.32,-0.07,0.16,-0.08
1751,3.18,2.99,8.32,-0.04,0.09,-0.04
1756,7.16,-4.25,20.84,-0.04,0.09,-0.04
1761,7.16,-4.25,20.84,0.16,-0.28,0.46
1766,7.16,-4.25,20.84,0.21,0.00,0.80
1771,7.16,-4.25,20.84,0.22,0.30,0.93
1776,-5.82,1.38,8.96,0.22,0.30,0.93
1781,-5.82,1.38,8.96,0.35,0.44,0.91
1786,-5.82,1.38,8.96,0.38,0.39,0.82
1792,-5.78,-4.18,1.80,0.38,0.39,0.82
1796,-5.78,-4.18,1.80,0.41,-0.05,0.79
1801,-5.78,-4.18,1.80,0.37,-0.38,0.88
1807,-5.78,-4.18,1.80,0.27,-0.66,0.94
1811,-5.78,-4.18,1.80,0.18,-0.83,0.90
1816,-5.78,-4.18,1.80,0.13,-0.87,0.80
1821,-5.78,-4.18,1.80,0.14,-0.27,0.59
1827,-0.11,-0.42,10.54,0.14,-0.27,0.59
1831,-0.11,-0.42,10.54,0.05,0.23,0.47
1836,-0.11,-0.42,10.54,0.04,-0.10,0.46
1842,-0.11,-0.42,10.54,0.05,-0.37,0.54
1846,-0.11,-0.42,10.54,0.19,-0.26,0.74
1851,-0.11,-0.42,10.54,0.17,0.24,0.89
1856,-0.11,-0.42,10.54,0.20,0.43,0.96
1862,-5.02,-1.30,12.52,0.20,0.43,0.96
1866,-5.02,-1.30,12.52,0.32,0.15,1.08
1871,-5.02,-1.30,12.52,0.35,0.01,1.10
1876,-5.02,-1.30,12.52,0.43,-0.14,1.13
1881,-5.02,-1.30,12.52,0.45,-0.28,1.21
1886,-5.02,-1.30,12.52,0.44,-0.37,1.29
1891,-5.02,-1.30,12.52,0.45,-0.27,1.29
1896,4.14,3.52,6.89,0.45,-0.27,1.29
1901,4.14,3.52,6.89,0.21,0.32,1.14
1905,4.14,3.52,6.89,0.18,0.20,1.11
1910,-1.99,0.73,9.23,0.18,0.20,1.11
1916,-1.99,0.73,9.23,0.10,0.07,1.01
1922,-1.99,0.73,9.23,0.04,-0.03,0.89
1927,-1.99,0.73,9.23,0.00,0.12,0.85
1931,-1.99,0.73,9.23,0.03,0.14,0.86
1936,-1.99,0.73,9.23,0.07,0.14,0.93
1941,-1.99,0.73,9.23,0.09,0.21,1.03
1947,2.84,1.15,14.25,0.09,0.21,1.03
1951,2.84,1.15,14.25,0.16,0.57,1.11
1956,2.84,1.15,14.25,0.19,0.62,1.09
1961,2.84,1.15,14.25,0.22,0.61,1.05
1967,-8.81,-0.77,12.18,0.22,0.61,1.05
1971,-8.81,-0.77,12.18,0.19,0.47,1.03
1976,-8.81,-0.77,12.18,0.13,0.27,1.02
1982,2.61,-0.50,5.44,0.13,0.27,1.02
1986,2.61,-0.50,5.44,-0.01,-0.21,0.95
1991,2.61,-0.50,5.44,-0.11,-0.41,0.86
1996,2.61,-0.50,5.44,-0.12,-0.44,0.76
2002,3.26,5.17,8.46,-0.12,-0.44,0.76
2006,3.26,5.17,8.46,-0.22,0.69,0.46
2011,3.26,5.17,8.46,-0.21,0.62,0.37
2017,-0.50,-1.65,8.96,-0.21,0.62,0.37
2021,-0.50,-1.65,8.96,-0.27,0.04,0.23
2026,-0.50,-1.65,8.96,-0.24,-0.16,0.25
2032,-0.50,-1.65,8.96,-0.13,-0.03,0.29
2036,-0.50,-1.65,8.96,-0.15,0.39,0.26
2041,-0.50,-1.65,8.96,-0.16,0.51,0.23
2046,-0.50,-1.65,8.96,-0.21,0.36,0.19
2052,3.95,3.18,20.15,-0.21,0.36,0.19
2056,3.95,3.18,20.15,-0.38,0.09,0.01
2061,3.95,3.18,20.15,-0.38,0.25,0.12
2067,3.95,3.18,20.15,-0.39,0.56,0.33
2071,3.95,3.18,20.15,-0.34,0.74,0.51
2076,3.95,3.18,20.15,-0.22,0.79,0.61
2081,3.95,3.18,20.15,-0.15,0.85,0.65
2087,-5.78,4.60,-1.19,-0.15,0.85,0.65
2091,-5.78,4.60,-1.19,0.02,0.98,0.53
2096,-5.78,4.60,-1.19,0.09,0.95,0.40
2102,-8.54,-1.76,0.15,0.09,0.95,0.40
2106,-8.54,-1.76,0.15,-0.03,0.39,0.19
2111,-8.54,-1.76,0.15,-0.18,-0.03,0.16
2116,-8.54,-1.76,0.15,-0.37,-0.40,0.09
2122,3.07,3.71,8.77,-0.37,-0.40,0.09
2126,3.07,3.71,8.77,-0.68,-0.79,-0.21
2131,3.07,3.71,8.77,-0.56,0.13,-0.42
2136,-1.91,1.46,11.72,-0.56,0.13,-0.42
2141,-1.91,1.46,11.72,-0.50,1.07,-0.68
2146,-1.91,1.46,11.72,-0.41,0.76,-0.66
2151,-1.91,1.46,11.72,-0.34,0.40,-0.49
2156,-4.60,-1.61,8.89,-0.34,0.40,-0.49
2161,-4.60,-1.61,8.89,-0.19,-0.21,-0.16
2166,-4.60,-1.61,8.89,-0.16,-0.38,-0.04
2172,7.05,0.50,12.53,-0.16,-0.38,-0.04
2176,7.05,0.50,12.53,-0.07,0.21,0.15
2181,7.05,0.50,12.53,-0.16,0.59,0.14
2186,7.05,0.50,12.53,-0.19,0.50,0.13
2192,1.04,4.83,8.66,-0.19,0.50,0.13
2196,1.04,4.83,8.66,-0.28,0.26,-0.05
2201,1.04,4.83,8.66,-0.26,0.23,-0.09
2207,1.04,4.83,8.66,-0.22,0.19,-0.03
2211,1.04,4.83,8.66,-0.20,0.15,0.09
2216,1.04,4.83,8.66,-0.16,0.07,0.16
2221,1.04,4.83,8.66,-0.16,-0.03,0.15
2225,3.60,0.69,7.70,-0.16,-0.03,0.15
2231,3.60,0.69,7.70,-0.14,-0.03,0.14
2236,3.60,0.69,7.70,-0.16,0.44,0.06
2242,-3.64,-0.92,7.97,-0.16,0.44,0.06
2246,-3.64,-0.92,7.97,-0.05,0.45,0.06
2251,-3.64,-0.92,7.97,-0.02,0.38,0.03
2257,-11.15,1.07,10.38,-0.02,0.38,0.03
2261,-11.15,1.07,10.38,-0.01,0.32,-0.02
2266,-11.15,1.07,10.38,-0.06,0.28,-0.09
2271,-11.15,1.07,10.38,-0.12,0.15,-0.23
2276,-0.88,-4.71,9.04,-0.12,0.15,-0.23
2281,-0.88,-4.71,9.04,-0.21,-0.50,-0.38
2286,-0.88,-4.71,9.04,-0.24,-0.88,-0.28
2292,16.43,-4.02,17.66,-0.24,-0.88,-0.28
2296,16.43,-4.02,17.66,0.04,-0.10,0.07
2301,16.43,-4.02,17.66,-0.05,0.75,0.10
2306,16.43,-4.02,17.66,0.12,0.74,0.10
2312,-3.71,3.48,9.08,0.12,0.74,0.10
2316,-3.71,3.48,9.08,0.08,0.26,0.12
2321,-3.71,3.48,9.08,0.07,0.05,0.15
2327,-3.71,3.48,9.08,0.05,-0.13,0.25
2331,-3.71,3.48,9.08,0.06,-0.32,0.36
2336,-3.71,3.48,9.08,0.06,-0.45,0.41
2341,-3.71,3.48,9.08,0.06,-0.48,0.41
2347,2.49,0.77,8.31,0.06,-0.48,0.41
2351,2.49,0.77,8.31,0.21,0.04,0.30
2356,2.49,0.77,8.31,0.15,0.40,0.29
2362,-4.21,2.38,7.97,0.15,0.40,0.29
2366,-4.21,2.38,7.97,0.19,0.31,0.24
2371,-4.21,2.38,7.97,0.14,0.13,0.26
2376,-4.21,2.38,7.97,0.13,-0.06,0.35
2381,-4.60,-1.19,8.27,0.13,-0.06,0.35
2386,-4.60,-1.19,8.27,0.13,-0.21,0.47
2391,-4.60,-1.19,8.27,0.14,-0.23,0.37
2396,-4.21,-1.11,4.86,0.14,-0.23,0.37
2401,-4.21,-1.11,4.86,0.17,-0.21,0.20
2406,-4.21,-1.11,4.86,0.18,-0.13,0.21
2411,-4.21,-1.11,4.86,0.19,-0.02,0.29
2416,2.11,-3.07,11.03,0.19,-0.02,0.29
2421,2.11,-3.07,11.03,0.22,-0.00,0.40
2426,2.11,-3.07,11.03,0.22,0.01,0.44
2431,2.57,-2.07,13.33,0.22,0.01,0.44
2436,2.57,-2.07,13.33,0.21,0.09,0.50
2441,2.57,-2.07,13.33,0.22,0.13,0.52
2446,2.57,-2.07,13.33,0.26,0.15,0.54
2451,2.57,-2.07,13.33,0.28,0.16,0.53
2456,2.57,-2.07,13.33,0.31,0.16,0.54
2461,2.57,-2.07,13.33,0.35,0.14,0.55
2467,2.57,-2.07,13.33,0.36,0.09,0.56
2471,2.57,-2.07,13.33,0.38,0.01,0.58
2476,2.57,-2.07,13.33,0.34,-0.10,0.58
2481,2.30,-1.95,8.77,0.34,-0.10,0.58
2486,2.49,-1.00,7.81,0.34,-0.10,0.58
2491,2.49,-1.00,7.81,0.26,-0.28,0.56
2496,2.49,-1.00,7.81,0.25,-0.02,0.56
2501,2.49,-1.00,7.81,0.24,0.23,0.57
2506,2.49,-1.00,7.81,0.28,0.23,0.60
2511,2.49,-1.00,7.81,0.32,0.13,0.63
2516,0.08,-1.80,12.72,0.32,0.13,0.63
2521,0.08,-1.80,12.72,0.34,-0.02,0.73
2526,0.08,-1.80,12.72,0.37,-0.02,0.80
2531,0.08,-1.80,12.72,0.38,-0.03,0.84
2536,1.49,-1.15,10.15,0.38,-0.03,0.84
2541,1.49,-1.15,10.15,0.39,-0.02,0.88
2546,1.49,-1.15,10.15,0.41,0.06,0.89
2551,-0.27,-2.03,9.23,0.41,0.06,0.89
2556,-0.27,-2.03,9.23,0.41,0.08,0.87
2561,-0.27,-2.03,9.23,0.41,0.04,0.86
2566,-0.27,-2.03,9.23,0.39,0.02,0.84
2571,-0.27,-2.03,9.23,0.37,-0.03,0.77
2576,-0.27,-2.03,9.23,0.31,-0.10,0.71
2581,-0.27,-2.03,9.23,0.30,-0.18,0.68
2586,-0.27,-2.03,9.23,0.27,-0.18,0.70
2591,-0.27,-2.03,9.23,0.29,-0.06,0.78
2596,-0.27,-2.03,9.23,0.29,0.12,0.84
2601,-0.27,-2.03,9.23,0.27,0.17,0.86
2606,1.46,1.46,11.30,0.27,0.17,0.86
2611,1.46,1.46,11.30,0.30,0.09,0.92
2616,1.46,1.46,11.30,0.34,0.12,0.95
2621,-1.23,-1.76,10.45,0.34,0.12,0.95
2626,-1.23,-1.76,10.45,0.39,0.14,1.00
2631,-1.23,-1.76,10.45,0.42,0.13,1.06
2636,-1.23,-1.76,10.45,0.43,0.11,1.11
2641,-1.23,-1.76,10.45,0.41,0.08,1.11
2646,-1.23,-1.76,10.45,0.38,0.00,1.05
2651,-1.23,-1.76,10.45,0.31,-0.10,1.00
2656,2.49,0.19,7.82,0.31,-0.10,1.00
2662,2.49,0.19,7.82,0.28,-0.19,0.96
2667,2.49,0.19,7.82,0.26,0.03,0.94
2671,2.49,0.19,7.82,0.22,0.22,0.90
2676,1.76,-0.92,10.53,0.22,0.22,0.90
2681,1.76,-0.92,10.53,0.25,0.10,0.95
2686,1.76,-0.92,10.53,0.24,0.11,0.94
2691,1.76,-0.92,10.53,0.23,0.19,0.90
2696,1.76,-0.92,10.53,0.20,0.24,0.88
2701,1.76,-0.92,10.53,0.20,0.21,0.84
2706,1.76,-0.92,10.53,0.18,0.13,0.79
2711,1.76,-0.92,10.53,0.17,0.03,0.74
2716,1.76,-0.92,10.53,0.19,-0.03,0.76
2721,1.76,-0.92,10.53,0.19,0.03,0.81
2726,1.76,-0.92,10.53,0.19,0.14,0.82
2731,1.76,-0.92,10.53,0.20,0.21,0.82
2736,1.76,-0.92,10.53,0.21,0.21,0.82
2741,0.19,1.80,9.16,0.21,0.21,0.82
2746,0.19,1.80,9.16,0.22,0.15,0.79
2751,0.19,1.80,9.16,0.19,0.19,0.77
2756,0.19,1.80,9.16,0.16,0.18,0.75
2761,0.19,1.80,9.16,0.13,0.16,0.73
2766,0.19,1.80,9.16,0.11,0.15,0.74
2771,0.19,1.80,9.16,0.10,0.12,0.71
2776,1.46,0.04,8.85,0.10,0.12,0.71
2781,1.46,0.04,8.85,0.05,0.08,0.60
2786,1.46,0.04,8.85,0.05,0.17,0.56
2791,1.46,0.04,8.85,0.04,0.28,0.53
2796,1.46,0.04,8.85,0.03,0.29,0.53
2801,1.46,0.04,8.85,0.03,0.26,0.54
2806,1.46,0.04,8.85,0.02,0.23,0.54
2811,0.19,0.42,13.79,0.02,0.23,0.54
2816,0.19,0.42,13.79,0.00,0.25,0.54
2821,0.19,0.42,13.79,0.03,0.24,0.56
2826,0.19,0.42,13.79,0.06,0.22,0.61
2831,0.19,0.42,13.79,0.09,0.23,0.64
2836,0.19,0.42,13.79,0.09,0.25,0.64
2841,0.19,0.42,13.79,0.08,0.28,0.59
2846,0.19,0.42,13.79,0.06,0.32,0.56
2851,0.19,0.42,13.79,0.06,0.34,0.53
2856,0.19,0.42,13.79,0.02,0.31,0.46
2861,0.19,0.42,13.79,-0.01,0.20,0.39
2866,-1.61,-0.65,8.50,-0.01,0.20,0.39
2871,-1.61,-0.65,8.50,-0.07,-0.04,0.37
2876,-1.61,-0.65,8.50,-0.07,-0.11,0.36
2881,3.64,-0.04,8.62,-0.07,-0.11,0.36
2886,3.64,-0.04,8.62,-0.05,0.37,0.39
2891,3.64,-0.04,8.62,-0.02,0.35,0.35
2896,3.64,-0.04,8.62,-0.03,0.20,0.35
2901,3.64,-0.04,8.62,0.00,0.12,0.38
2905,3.64,-0.04,8.62,0.03,0.16,0.42
2911,3.64,-0.04,8.62,0.06,0.26,0.47
2915,0.61,-0.23,10.73,0.06,0.26,0.47
2921,0.61,-0.23,10.73,0.12,0.30,0.53
2926,0.61,-0.23,10.73,0.16,0.27,0.64
2931,0.61,-0.23,10.73,0.16,0.25,0.64
2935,-2.30,-0.19,7.59,0.16,0.25,0.64
2941,-2.30,-0.19,7.59,0.12,0.15,0.51
2946,-2.30,-0.19,7.59,0.09,0.06,0.47
2951,-2.30,-0.19,7.59,0.05,-0.04,0.51
2956,-2.30,-0.19,7.59,0.02,-0.13,0.58
2961,-2.30,-0.19,7.59,0.03,-0.12,0.64
2966,-2.30,-0.19,7.59,0.05,0.15,0.67
2971,-2.30,-0.19,7.59,0.01,0.42,0.67
2976,-2.30,-0.19,7.59,0.06,0.48,0.68
2981,-2.30,-0.19,7.59,0.11,0.42,0.68
2986,-2.30,-0.19,7.59,0.13,0.36,0.65
2991,-2.30,-0.19,7.59,0.15,0.27,0.65
2996,-2.30,-0.19,7.59,0.16,0.18,0.69
3001,-2.30,-0.19,7.59,0.16,0.10,0.77
3005,2.07,-1.27,11.46,0.16,0.10,0.77
3011,2.07,-1.27,11.46,0.15,-0.01,0.88
3017,2.07,-1.27,11.46,0.12,0.00,0.88
3021,2.07,-1.27,11.46,0.12,0.05,0.84
3025,-1.76,1.15,7.39,0.12,0.05,0.84
3031,-1.76,1.15,7.39,0.09,0.12,0.68
3037,-0.46,0.08,6.59,0.09,0.12,0.68
3041,2.72,-0.23,10.19,0.09,0.12,0.68
3045,5.25,-1.38,10.77,0.09,0.12,0.68
3051,5.25,-1.38,10.77,0.03,0.05,0.71
3056,5.25,-1.38,10.77,0.03,0.10,0.79
3061,5.13,-0.27,15.52,0.03,0.10,0.79
3066,3.95,0.27,14.75,0.03,0.10,0.79
3071,3.95,0.27,14.75,0.00,0.35,0.90
3076,3.95,0.27,14.75,0.00,0.33,0.92
3081,3.95,0.27,14.75,0.01,0.33,0.92
3086,3.95,0.27,14.75,0.04,0.32,0.92
3092,3.95,0.27,14.75,0.07,0.30,0.96
3096,-0.04,-2.03,9.77,0.07,0.30,0.96
3101,-0.27,-0.54,8.42,0.07,0.30,0.96
3106,-1.65,0.80,8.46,0.07,0.30,0.96
3111,-1.65,0.80,8.46,0.07,0.33,1.15
3116,-1.65,0.80,8.46,0.03,0.32,1.10
3121,-1.65,0.80,8.46,-0.03,0.27,1.03
3127,-1.65,0.80,8.46,-0.07,0.20,0.98
3131,0.00,2.95,8.04,-0.07,0.20,0.98
3136,1.61,10.41,9.65,-0.07,0.20,0.98
3141,1.61,10.41,9.65,-0.09,0.05,1.00
3146,1.61,10.41,9.65,-0.22,0.32,1.04
3151,1.61,10.41,9.65,-0.31,0.50,0.96
3156,2.99,2.14,10.03,-0.31,0.50,0.96
3161,2.99,2.14,10.03,-0.25,0.38,0.86
3166,-6.82,2.03,12.95,-0.25,0.38,0.86
3171,-5.17,-0.11,11.30,-0.25,0.38,0.86
3176,-5.17,-0.11,11.30,-0.20,0.51,0.73
3181,-5.17,-0.11,11.30,-0.16,0.51,0.64
3186,-5.17,-0.11,11.30,-0.17,0.44,0.61
3191,-5.17,-0.11,11.30,-0.22,0.29,0.57
3196,-1.23,-2.68,9.08,-0.22,0.29,0.57
3200,2.18,-2.99,9.30,-0.22,0.29,0.57
3206,2.18,-2.99,9.30,-0.37,-0.09,0.25
3211,2.18,-2.99,9.30,-0.28,0.06,0.20
3216,-1.80,-1.23,12.11,-0.28,0.06,0.20
3220,-2.30,-1.95,10.57,-0.28,0.06,0.20
3226,-2.30,-1.95,10.57,-0.33,0.64,0.04
3231,-2.30,-1.95,10.57,-0.34,0.42,0.01
3236,0.08,-2.34,6.89,-0.34,0.42,0.01
3241,2.38,-1.91,7.36,-0.34,0.42,0.01
3246,2.38,-1.91,7.36,-0.27,0.00,0.09
3251,2.38,-1.91,7.36,-0.21,-0.00,0.17
3256,6.44,3.79,12.34,-0.21,-0.00,0.17
3261,5.48,5.44,12.91,-0.21,-0.00,0.17
3266,3.64,4.94,12.07,-0.21,-0.00,0.17
3271,3.64,4.94,12.07,-0.27,0.43,0.39
3276,3.64,4.94,12.07,-0.27,0.40,0.45
3281,3.64,4.94,12.07,-0.27,0.37,0.49
3286,4.79,1.38,10.77,-0.27,0.37,0.49
3291,6.47,1.19,11.38,-0.27,0.37,0.49
3296,6.47,1.19,11.38,-0.21,0.32,0.81
3301,0.46,1.99,7.66,-0.21,0.32,0.81
3305,1.46,0.77,7.05,-0.21,0.32,0.81
3311,1.46,0.77,7.05,-0.20,0.29,0.83
3316,1.46,0.77,7.05,-0.21,0.26,0.76
3321,-2.30,-0.27,6.40,-0.21,0.26,0.76
3326,-0.23,-0.96,7.43,-0.21,0.26,0.76
3331,-0.23,-0.96,7.43,-0.22,0.14,0.69
3336,-0.23,-0.96,7.43,-0.28,0.07,0.66
3341,-0.23,-0.96,7.43,-0.35,0.02,0.64
3347,-0.23,-0.96,7.43,-0.41,-0.01,0.59
3351,-0.77,3.33,11.30,-0.41,-0.01,0.59
3355,-4.71,8.77,10.88,-0.41,-0.01,0.59
3361,-4.71,8.77,10.88,-0.33,0.68,0.44
3366,-4.71,8.77,10.88,-0.36,0.68,0.39
3371,-4.71,8.77,10.88,-0.26,0.66,0.32
3376,-8.66,1.80,-3.37,-0.26,0.66,0.32
3380,-10.46,6.59,-8.73,-0.26,0.66,0.32
3386,-10.46,6.59,-8.73,-0.20,0.19,0.11
3391,-10.46,6.59,-8.73,-0.32,0.04,-0.00
3396,-11.30,0.08,-9.20,-0.32,0.04,-0.00
3401,14.44,-1.46,21.41,-0.32,0.04,-0.00
3405,18.04,-6.59,31.61,-0.32,0.04,-0.00
3412,18.04,-6.59,31.61,-0.95,-1.06,-0.85
3416,18.04,-6.59,31.61,-0.75,-0.22,-0.57
3421,1.76,4.10,23.29,-0.75,-0.22,-0.57
3425,-4.52,10.23,13.68,-0.75,-0.22,-0.57
3431,-4.52,10.23,13.68,-0.48,1.17,-0.33
3436,-4.52,10.23,13.68,-0.31,1.00,-0.28
3441,-9.12,2.41,-1.65,-0.31,1.00,-0.28
3446,-1.57,-2.68,1.72,-0.31,1.00,-0.28
3451,-1.57,-2.68,1.72,-0.03,0.48,0.00
3456,-2.72,-0.08,9.81,-0.03,0.48,0.00
3460,-1.42,-0.73,8.50,-0.03,0.48,0.00
3466,-1.42,-0.73,8.50,-0.44,-0.32,-0.01
3471,-1.42,-0.73,8.50,-0.50,-0.47,-0.18
3476,-2.26,5.29,9.04,-0.50,-0.47,-0.18
3481,1.53,2.95,7.51,-0.50,-0.47,-0.18
3486,1.04,1.30,6.36,-0.50,-0.47,-0.18
3491,1.19,-0.57,9.27,-0.50,-0.47,-0.18
3495,2.41,-2.34,8.54,-0.50,-0.47,-0.18
3501,2.41,-2.34,8.54,-0.46,-0.10,-0.71
3506,2.41,-2.34,8.54,-0.41,0.16,-0.65
3511,-0.34,-2.14,10.04,-0.41,0.16,-0.65
3516,-1.80,-0.80,7.86,-0.41,0.16,-0.65
3521,-1.80,-0.80,7.86,-0.19,0.20,-0.54
3526,-1.80,-0.80,7.86,-0.11,0.16,-0.45
3531,-1.80,-0.80,7.86,-0.06,0.08,-0.40
3536,12.07,-0.57,22.41,-0.06,0.08,-0.40
3541,14.17,-6.40,30.03,-0.06,0.08,-0.40
3545,19.19,-7.20,35.36,-0.06,0.08,-0.40
3551,19.19,-7.20,35.36,-0.19,-0.33,-0.14
3556,19.19,-7.20,35.36,-0.22,0.58,0.18
3561,-8.70,4.98,5.48,-0.22,0.58,0.18
3565,-13.67,2.38,0.30,-0.22,0.58,0.18
3571,-13.67,2.38,0.30,0.25,1.13,0.32
3576,-10.27,-6.66,-13.18,0.25,1.13,0.32
3581,-10.27,-6.66,-13.18,0.50,0.29,0.23
3585,4.02,-5.75,-8.46,0.50,0.29,0.23
3591,4.02,-5.75,-8.46,0.44,-0.36,0.40
3596,4.02,-5.75,-8.46,0.24,-1.05,0.62
3601,4.02,-5.75,-8.46,0.07,-1.61,0.77
3606,4.02,-5.75,-8.46,0.17,-1.51,0.71
3611,-25.21,6.02,24.52,0.17,-1.51,0.71
3615,-25.21,6.02,24.52,0.07,1.61,-0.15
3621,-13.10,2.14,18.77,0.07,1.61,-0.15
3626,-2.61,-1.72,19.73,0.07,1.61,-0.15
3631,9.16,-7.78,12.06,0.07,1.61,-0.15
3636,8.01,-7.74,6.74,0.07,1.61,-0.15
3641,8.01,-7.74,6.74,-0.04,-1.24,0.30
3646,16.86,-4.25,2.30,-0.04,-1.24,0.30
3651,19.15,-6.47,14.44,-0.04,-1.24,0.30
3656,-3.49,-1.80,2.22,-0.04,-1.24,0.30
3661,-1.00,-0.38,5.44,-0.04,-1.24,0.30
3666,5.09,-5.09,12.49,-0.04,-1.24,0.30
3671,-8.20,-6.09,10.07,-0.04,-1.24,0.30
3676,-8.20,-6.09,10.07,0.57,0.56,0.68
3681,6.82,-5.21,13.33,0.57,0.56,0.68
3686,0.77,-0.42,11.34,0.57,0.56,0.68
3691,0.27,3.18,10.00,0.57,0.56,0.68
3696,14.52,-1.04,5.25,0.57,0.56,0.68
3701,3.87,-1.11,6.59,0.57,0.56,0.68
3706,-4.25,-2.99,10.03,0.57,0.56,0.68
3711,-4.25,-2.99,10.03,0.26,-0.06,0.56
3716,1.84,-3.45,8.16,0.26,-0.06,0.56
3721,-0.50,-3.41,7.12,0.26,-0.06,0.56
3726,-1.84,-1.07,8.70,0.26,-0.06,0.56
3731,-9.88,3.68,7.59,0.26,-0.06,0.56
3736,-12.76,2.99,12.11,0.26,-0.06,0.56
3741,-9.08,4.64,10.99,0.26,-0.06,0.56
3746,-5.63,2.41,14.75,0.26,-0.06,0.56
3751,7.01,-1.80,16.63,0.26,-0.06,0.56
3756,15.94,-4.67,15.75,0.26,-0.06,0.56
3761,19.34,-5.59,16.32,0.26,-0.06,0.56
3766,19.34,-5.59,16.32,0.14,-0.61,0.39
3771,11.64,0.34,7.59,0.14,-0.61,0.39
3776,0.65,8.39,0.65,0.14,-0.61,0.39
3781,-2.91,8.12,0.88,0.14,-0.61,0.39
3786,-5.17,8.20,2.49,0.14,-0.61,0.39
3791,-6.40,8.04,3.64,0.14,-0.61,0.39
3796,-5.40,3.29,7.55,0.14,-0.61,0.39
3801,-3.56,-4.64,12.72,0.14,-0.61,0.39
3806,-3.18,-6.59,11.38,0.14,-0.61,0.39
3811,-0.88,-6.36,12.26,0.14,-0.61,0.39
3816,0.92,0.38,11.88,0.14,-0.61,0.39
3821,-1.19,3.03,11.04,0.14,-0.61,0.39
3826,-0.42,3.56,7.70,0.14,-0.61,0.39
3831,-1.23,4.37,8.62,0.14,-0.61,0.39
3836,-5.52,1.65,8.50,0.14,-0.61,0.39
3841,-5.52,1.65,8.50,-0.00,0.13,0.05
3846,-3.68,-1.00,9.54,-0.00,0.13,0.05
3851,-1.88,-1.04,10.15,-0.00,0.13,0.05
3856,-2.07,-1.49,11.19,-0.00,0.13,0.05
3861,0.15,-2.57,12.45,-0.00,0.13,0.05
3866,0.80,-2.41,12.60,-0.00,0.13,0.05
3871,0.15,0.34,12.06,-0.00,0.13,0.05
3876,0.15,0.34,12.06,0.09,0.04,0.51
3881,0.15,0.34,12.06,0.11,0.15,0.47
3886,-4.37,2.53,5.40,0.11,0.15,0.47
3891,-4.37,1.49,4.41,0.11,0.15,0.47
3896,-4.79,0.61,4.60,0.11,0.15,0.47
3901,-1.53,0.15,7.09,0.11,0.15,0.47
3906,-1.00,0.15,7.32,0.11,0.15,0.47
3911,-0.42,-0.65,8.62,0.11,0.15,0.47
3916,-0.23,-0.84,10.15,0.11,0.15,0.47
3921,-0.57,0.54,12.72,0.11,0.15,0.47
3926,0.30,-0.50,13.79,0.11,0.15,0.47
3932,1.07,0.23,13.41,0.11,0.15,0.47
3936,2.95,0.61,14.14,0.11,0.15,0.47
3941,1.61,0.34,14.18,0.11,0.15,0.47
3945,1.61,0.34,14.18,0.09,0.27,0.61
3951,0.19,0.23,12.03,0.09,0.27,0.61
3956,0.19,0.23,12.03,0.12,0.27,0.67
3961,0.19,0.23,12.03,0.12,0.26,0.70
3966,-1.61,1.11,9.80,0.12,0.26,0.70
3971,-1.46,0.88,8.12,0.12,0.26,0.70
3976,-1.23,0.30,8.46,0.12,0.26,0.70
3982,-1.23,1.15,7.66,0.12,0.26,0.70
3986,-1.11,0.54,7.24,0.12,0.26,0.70
3991,-1.15,0.11,6.36,0.12,0.26,0.70
3996,-2.07,0.27,6.59,0.12,0.26,0.70
4001,-1.11,0.50,7.05,0.12,0.26,0.70
4006,-0.69,-0.50,9.46,0.12,0.26,0.70
4011,-0.04,-0.88,11.45,0.12,0.26,0.70
4016,1.76,-0.57,11.68,0.12,0.26,0.70
4021,2.53,-1.84,11.07,0.12,0.26,0.70
4026,3.29,-1.80,10.39,0.12,0.26,0.70
4031,3.29,-1.80,10.39,0.01,0.07,0.41
4036,3.22,0.04,9.34,0.01,0.07,0.41
4041,4.33,-0.54,9.80,0.01,0.07,0.41
4046,2.45,-0.84,10.84,0.01,0.07,0.41
4051,1.00,-0.46,11.84,0.01,0.07,0.41
4056,2.03,-1.27,14.55,0.01,0.07,0.41
4061,3.91,-1.84,14.33,0.01,0.07,0.41
4066,3.91,-1.84,14.33,0.04,0.16,0.62
4071,3.71,-1.15,13.06,0.04,0.16,0.62
4076,2.64,-0.84,11.38,0.04,0.16,0.62
4081,-0.57,-0.42,8.78,0.04,0.16,0.62
4087,-1.84,0.04,8.31,0.04,0.16,0.62
4091,0.46,-1.04,6.21,0.04,0.16,0.62
4096,-0.54,-0.84,6.75,0.04,0.16,0.62
4101,0.46,-0.15,9.16,0.04,0.16,0.62
4106,4.06,-0.88,14.06,0.04,0.16,0.62
4111,4.18,-1.46,16.62,0.04,0.16,0.62
4116,4.18,-1.46,16.62,0.03,0.06,0.92
4120,4.18,-1.46,16.62,0.04,0.28,0.96
4126,-0.27,2.26,13.37,0.04,0.28,0.96
4132,-5.86,3.60,7.05,0.04,0.28,0.96
4136,-5.86,3.60,7.05,0.02,0.39,0.81
4141,-5.86,3.60,7.05,-0.02,0.26,0.72
4146,-1.04,-1.19,5.09,-0.02,0.26,0.72
4151,-0.42,-1.76,4.86,-0.02,0.26,0.72
4156,0.80,-1.84,5.66,-0.02,0.26,0.72
4161,0.96,1.42,10.77,-0.02,0.26,0.72
4166,-0.38,3.68,10.15,-0.02,0.26,0.72
4172,0.46,3.14,12.26,-0.02,0.26,0.72
4176,-0.34,1.53,11.80,-0.02,0.26,0.72
4181,-0.96,1.00,10.11,-0.02,0.26,0.72
4186,-0.96,1.00,10.11,-0.24,0.14,0.46
4191,2.26,-0.15,10.73,-0.24,0.14,0.46
4196,1.88,0.69,9.88,-0.24,0.14,0.46
4201,2.41,0.30,11.15,-0.24,0.14,0.46
4207,1.30,1.84,11.54,-0.24,0.14,0.46
4211,-2.53,2.30,9.08,-0.24,0.14,0.46
4216,-3.45,2.91,10.19,-0.24,0.14,0.46
4221,-2.61,1.53,11.04,-0.24,0.14,0.46
4226,-2.11,1.38,9.92,-0.24,0.14,0.46
4231,0.50,-0.46,10.95,-0.24,0.14,0.46
4236,0.50,-0.46,10.95,-0.32,0.30,0.19
4240,0.50,-0.46,10.95,-0.35,0.26,0.18
4245,-1.30,0.15,10.61,-0.35,0.26,0.18
4251,-1.30,0.15,10.61,-0.33,0.21,0.17
4257,-1.30,0.15,10.61,-0.34,0.19,0.13
4261,-1.30,0.15,10.61,-0.36,0.19,0.06
4266,-1.30,0.15,10.61,-0.37,0.17,0.04
4270,-1.30,0.15,10.61,-0.33,0.20,0.06
4276,-4.67,3.79,8.12,-0.33,0.20,0.06
4282,-2.14,2.91,7.97,-0.33,0.20,0.06
4287,-5.44,1.49,4.56,-0.33,0.20,0.06
4291,-5.44,1.49,4.56,-0.34,0.30,-0.09
4296,-4.25,0.57,4.56,-0.34,0.30,-0.09
4301,-1.61,-0.88,6.02,-0.34,0.30,-0.09
4307,-0.38,-1.72,6.93,-0.34,0.30,-0.09
4311,-0.38,-1.72,6.93,-0.41,-0.33,-0.16
4316,4.37,-1.76,12.53,-0.41,-0.33,-0.16
4321,7.89,-1.19,16.16,-0.41,-0.33,-0.16
4327,9.35,-0.69,14.71,-0.41,-0.33,-0.16
4331,1.38,-0.84,12.76,-0.41,-0.33,-0.16
4336,-2.53,0.27,9.61,-0.41,-0.33,-0.16
4341,-2.14,-0.11,9.69,-0.41,-0.33,-0.16
4346,-0.65,-1.84,7.21,-0.41,-0.33,-0.16
4351,-1.42,-2.30,7.23,-0.41,-0.33,-0.16
4357,-1.46,-2.38,9.00,-0.41,-0.33,-0.16
4361,-1.46,-2.38,9.00,-0.14,0.00,0.30
4366,-1.38,-1.76,8.20,-0.14,0.00,0.30
4371,-0.11,-1.46,8.08,-0.14,0.00,0.30
4376,-2.41,-1.00,8.23,-0.14,0.00,0.30
4381,-2.41,-1.00,8.23,-0.20,-0.12,0.30
4387,0.96,-0.61,9.35,-0.20,-0.12,0.30
4391,0.96,-0.61,9.35,-0.22,-0.04,0.27
4396,0.96,-0.61,9.35,-0.21,-0.01,0.31
4401,0.96,-0.61,9.35,-0.18,0.03,0.36
4407,1.30,-0.73,9.81,-0.18,0.03,0.36
4411,1.30,-0.73,9.81,-0.15,0.07,0.41
4416,1.04,-1.34,10.00,-0.15,0.07,0.41
4421,0.15,-1.27,9.84,-0.15,0.07,0.41
4427,-0.38,-0.54,10.35,-0.15,0.07,0.41
4431,-0.38,-0.54,10.35,-0.09,0.12,0.56
4436,-1.04,-0.88,10.69,-0.09,0.12,0.56
4442,-0.23,-1.65,10.69,-0.09,0.12,0.56
4446,-0.23,-1.65,10.69,-0.06,0.09,0.67
4451,-1.95,-1.07,10.41,-0.06,0.09,0.67
4456,-1.95,-0.80,9.08,-0.06,0.09,0.67
4461,-1.95,-0.80,9.08,-0.09,0.01,0.56
4466,-1.95,-0.80,9.08,-0.07,-0.04,0.52
4471,0.19,-3.22,8.16,-0.07,-0.04,0.52
4477,1.42,-1.91,8.77,-0.07,-0.04,0.52
4481,1.42,-1.91,8.77,-0.12,-0.24,0.45
4486,5.75,0.23,15.55,-0.12,-0.24,0.45
4492,4.94,1.30,15.32,-0.12,-0.24,0.45
4496,4.94,1.30,15.32,-0.18,0.40,0.38
4501,4.94,1.30,15.32,-0.17,0.28,0.36
4506,-1.42,4.67,11.50,-0.17,0.28,0.36
4512,-0.92,2.45,11.54,-0.17,0.28,0.36
4516,-0.92,2.45,11.54,-0.27,0.28,0.31
4521,-0.92,2.45,11.54,-0.26,0.32,0.33
4527,-0.77,0.15,7.97,-0.26,0.32,0.33
4531,-0.77,0.15,7.97,-0.18,0.31,0.33
4536,-0.77,0.15,7.97,-0.12,0.26,0.36
4541,-3.18,1.30,5.14,-0.12,0.26,0.36
4547,-1.46,1.19,6.93,-0.12,0.26,0.36
4551,-1.46,1.19,6.93,-0.21,-0.02,0.37
4556,0.77,1.07,8.39,-0.21,-0.02,0.37
4562,0.73,0.08,10.49,-0.21,-0.02,0.37
4566,0.73,0.08,10.49,-0.31,-0.12,0.46
4571,0.73,0.08,10.49,-0.30,0.03,0.40
4576,0.46,-1.49,10.57,-0.30,0.03,0.40
4581,0.46,-1.49,10.57,-0.29,0.27,0.34
4586,0.46,-1.49,10.57,-0.26,0.23,0.35
4591,-2.41,-1.27,8.96,-0.26,0.23,0.35
4597,-1.38,-1.61,10.50,-0.26,0.23,0.35
4601,-1.38,-1.61,10.50,-0.26,0.12,0.29
4606,0.50,-1.80,12.34,-0.26,0.12,0.29
4612,-0.34,0.27,12.60,-0.26,0.12,0.29
4616,-0.34,0.27,12.60,-0.29,0.18,0.16
4621,-0.34,0.27,12.60,-0.28,0.26,0.15
4626,-1.38,0.30,9.93,-0.28,0.26,0.15
4632,-1.84,0.73,8.54,-0.28,0.26,0.15
4636,-1.84,0.73,8.54,-0.32,0.32,0.02
4641,-1.84,0.73,8.54,-0.33,0.31,-0.03
4647,-2.22,2.07,8.12,-0.33,0.31,-0.03
4651,-2.22,2.07,8.12,-0.39,0.21,-0.08
4656,-2.22,2.07,8.12,-0.43,0.14,-0.11
4661,-2.22,2.07,8.12,-0.45,0.07,-0.13
4667,-1.57,2.07,6.93,-0.45,0.07,-0.13
4671,-1.57,2.07,6.93,-0.48,0.03,-0.16
4676,-2.45,2.84,9.00,-0.48,0.03,-0.16
4681,-0.80,2.18,9.39,-0.48,0.03,-0.16
4687,2.38,1.84,10.96,-0.48,0.03,-0.16
4691,2.38,1.84,10.96,-0.47,0.00,-0.13
4696,0.54,2.76,12.83,-0.47,0.00,-0.13
4702,0.88,3.26,12.68,-0.47,0.00,-0.13
4706,0.88,3.26,12.68,-0.43,0.17,-0.01
4711,-0.11,3.83,9.23,-0.43,0.17,-0.01
4716,-0.30,1.91,10.53,-0.43,0.17,-0.01
4721,-0.30,1.91,10.53,-0.43,0.24,-0.00
4726,-0.30,1.91,10.53,-0.44,0.21,0.00
4732,0.00,3.37,7.81,-0.44,0.21,0.00
4736,0.00,3.37,7.81,-0.49,0.13,-0.05
4740,0.00,3.37,7.81,-0.51,0.11,-0.07
4746,0.00,3.37,7.81,-0.52,0.06,-0.09
4750,0.08,1.76,7.89,-0.52,0.06,-0.09
4757,0.08,1.76,7.89,-0.51,0.00,-0.11
4761,-0.73,0.69,10.31,-0.51,0.00,-0.11
4767,-0.19,0.34,9.27,-0.51,0.00,-0.11
4771,-0.19,0.34,9.27,-0.54,-0.04,-0.20
4776,-0.19,0.34,9.27,-0.53,-0.00,-0.22
4781,-0.19,0.34,9.27,-0.51,0.06,-0.23
4787,1.80,0.23,9.89,-0.51,0.06,-0.23
4791,1.80,0.23,9.89,-0.51,0.12,-0.26
4796,-0.11,-0.65,9.54,-0.51,0.12,-0.26
4801,-0.15,-1.53,10.46,-0.51,0.12,-0.26
4807,-0.73,0.46,10.11,-0.51,0.12,-0.26
4811,-0.73,0.46,10.11,-0.46,0.18,-0.27
4816,0.11,-0.46,8.58,-0.46,0.18,-0.27
4822,-1.19,0.46,9.00,-0.46,0.18,-0.27
4826,-1.19,0.46,9.00,-0.45,0.11,-0.27
4831,-1.19,0.46,9.00,-0.42,0.06,-0.25
4837,-1.53,0.19,6.75,-0.42,0.06,-0.25
4841,-1.53,0.19,6.75,-0.42,-0.00,-0.24
4846,-1.53,0.19,6.75,-0.39,-0.04,-0.23
4851,2.61,-0.69,10.42,-0.39,-0.04,-0.23
4857,3.52,-0.04,10.53,-0.39,-0.04,-0.23
4861,3.52,-0.04,10.53,-0.41,-0.11,-0.17
4866,3.52,-0.04,10.53,-0.40,0.04,-0.14
4871,0.38,0.30,12.07,-0.40,0.04,-0.14
4877,-1.42,-0.19,11.61,-0.40,0.04,-0.14
4881,-1.42,-0.19,11.61,-0.30,0.25,-0.11
4886,-1.15,-0.80,9.16,-0.30,0.25,-0.11
4892,0.34,0.08,9.20,-0.30,0.25,-0.11
4896,0.34,0.08,9.20,-0.34,0.04,-0.08
4901,0.34,0.08,9.20,-0.35,-0.05,-0.08
4907,-0.50,-0.54,7.51,-0.35,-0.05,-0.08
4911,-0.50,-0.54,7.51,-0.34,-0.05,-0.08
4916,-0.50,-0.54,7.51,-0.32,0.01,-0.07
4921,-0.50,-0.54,7.51,-0.32,0.07,-0.07
4927,0.61,-0.54,9.35,-0.32,0.07,-0.07
4931,0.61,-0.54,9.35,-0.34,0.04,-0.08
4837,-1.53,0.19,6.75,-0.42,0.06,-0.25
4841,-1.53,0.19,6.75,-0.42,-0.00,-0.24
4846,-1.53,0.19,6.75,-0.39,-0.04,-0.23
4851,2.61,-0.69,10.42,-0.39,-0.04,-0.23
4857,3.52,-0.04,10.53,-0.39,-0.04,-0.23
4861,3.52,-0.04,10.53,-0.41,-0.11,-0.17
4866,3.52,-0.04,10.53,-0.40,0.04,-0.14
4871,0.38,0.30,12.07,-0.40,0.04,-0.14
4877,-1.42,-0.19,11.61,-0.40,0.04,-0.14
4881,-1.42,-0.19,11.61,-0.30,0.25,-0.11
4886,-1.15,-0.80,9.16,-0.30,0.25,-0.11
4892,0.34,0.08,9.20,-0.30,0.25,-0.11
4896,0.34,0.08,9.20,-0.34,0.04,-0.08
4901,0.34,0.08,9.20,-0.35,-0.05,-0.08
