timestamp,accX,accY,accZ,gyroX,gyroY,gyroZ
Straight
8,-0.61,-0.27,9.42,0.09,-0.01,0.31
19,-0.61,-0.27,9.42,0.09,-0.04,0.28
21,-0.61,-0.27,9.42,-0.02,-0.03,0.06
23,-0.61,-0.27,9.42,-0.06,-0.04,-0.00
26,-0.61,-0.27,9.42,-0.08,-0.00,-0.04
31,-0.73,1.07,8.73,-0.08,-0.00,-0.04
36,-0.69,1.04,8.84,-0.08,-0.00,-0.04
42,-1.34,0.42,9.43,-0.08,-0.00,-0.04
47,-1.34,0.42,9.43,-0.15,-0.02,-0.13
52,-1.34,0.42,9.43,-0.17,-0.06,-0.17
57,0.80,-0.46,9.93,-0.17,-0.06,-0.17
62,0.80,-0.46,9.93,-0.16,-0.09,-0.17
67,0.80,-0.46,9.93,-0.14,-0.04,-0.15
73,0.80,-0.46,9.93,-0.13,0.03,-0.14
77,0.80,-0.46,9.93,-0.12,0.09,-0.13
82,0.80,-0.46,9.93,-0.11,0.10,-0.13
87,0.80,-0.46,9.93,-0.09,0.11,-0.13
92,-1.46,-0.61,8.81,-0.09,0.11,-0.13
97,-1.46,-0.61,8.81,-0.04,0.08,-0.17
102,-1.46,-0.61,8.81,-0.04,0.04,-0.17
107,-1.46,-0.61,8.81,-0.07,-0.00,-0.19
112,-1.46,-0.61,8.81,-0.10,-0.05,-0.23
117,-1.46,-0.61,8.81,-0.14,-0.09,-0.30
122,-1.46,-0.61,8.81,-0.16,-0.08,-0.31
127,0.15,0.65,9.50,-0.16,-0.08,-0.31
132,0.15,0.65,9.50,-0.18,0.00,-0.32
137,0.15,0.65,9.50,-0.18,0.04,-0.33
142,0.15,0.65,9.50,-0.18,0.06,-0.35
147,0.15,0.65,9.50,-0.15,0.04,-0.38
152,0.15,0.65,9.50,-0.13,0.01,-0.39
157,0.15,0.65,9.50,-0.13,-0.03,-0.35
162,1.00,-1.42,10.03,-0.13,-0.03,-0.35
167,1.00,-1.42,10.03,-0.11,-0.09,-0.27
172,1.00,-1.42,10.03,-0.10,-0.04,-0.25
177,1.00,-1.42,10.03,-0.10,0.06,-0.21
182,1.00,-1.42,10.03,-0.09,0.15,-0.20
187,1.00,-1.42,10.03,-0.05,0.16,-0.20
191,1.00,-1.42,10.03,-0.03,0.14,-0.19
197,-0.23,-0.50,7.85,-0.03,0.14,-0.19
202,-0.23,-0.50,7.85,-0.02,0.02,-0.18
207,-0.23,-0.50,7.85,-0.01,-0.04,-0.15
212,0.30,0.34,8.46,-0.01,-0.04,-0.15
217,0.30,0.34,8.46,-0.02,-0.05,-0.10
222,0.30,0.34,8.46,-0.04,-0.01,-0.13
226,0.30,0.34,8.46,-0.07,0.04,-0.18
232,-2.14,0.65,9.65,-0.07,0.04,-0.18
237,-2.14,0.65,9.65,-0.11,0.06,-0.27
242,-2.14,0.65,9.65,-0.11,0.03,-0.28
247,-0.27,-0.23,9.58,-0.11,0.03,-0.28
252,-0.27,-0.23,9.58,-0.10,-0.04,-0.23
257,-0.27,-0.23,9.58,-0.08,-0.06,-0.20
262,-0.27,-0.23,9.58,-0.00,-0.08,-0.17
267,-0.27,-0.23,9.58,-0.09,0.03,-0.11
272,-0.27,-0.23,9.58,-0.03,0.02,-0.15
277,-0.27,-0.23,9.58,-0.06,0.03,-0.17
282,2.14,-3.07,10.38,-0.06,0.03,-0.17
287,2.14,-3.07,10.38,-0.01,0.06,-0.08
292,2.14,-3.07,10.38,0.04,0.04,-0.11
297,2.14,-3.07,10.38,-0.03,0.02,-0.14
302,2.14,-3.07,10.38,-0.06,-0.01,-0.16
307,2.14,-3.07,10.38,-0.08,-0.02,-0.15
312,2.14,-3.07,10.38,-0.11,-0.01,-0.19
318,0.77,0.27,10.65,-0.11,-0.01,-0.19
322,0.77,0.27,10.65,-0.16,0.04,-0.23
327,0.77,0.27,10.65,-0.14,0.07,-0.24
332,0.77,0.27,10.65,-0.13,0.09,-0.28
337,0.77,0.27,10.65,-0.09,0.09,-0.27
342,0.77,0.27,10.65,-0.11,0.09,-0.23
347,0.77,0.27,10.65,-0.07,0.05,-0.21
352,0.77,0.27,10.65,-0.09,0.02,-0.22
357,0.77,0.27,10.65,-0.10,-0.02,-0.26
362,0.77,0.27,10.65,-0.09,-0.05,-0.23
367,0.77,0.27,10.65,-0.04,-0.00,-0.15
372,0.77,0.27,10.65,-0.04,0.01,-0.18
377,0.77,0.27,10.65,-0.04,0.04,-0.17
382,0.77,0.27,10.65,-0.03,0.09,-0.15
387,0.11,0.61,7.36,-0.03,0.09,-0.15
391,0.11,0.61,7.36,-0.05,-0.00,-0.25
396,-1.23,-0.69,8.43,-0.05,-0.00,-0.25
402,-1.23,-0.69,8.43,-0.03,-0.05,-0.20
407,0.69,-1.15,11.91,-0.03,-0.05,-0.20
412,0.69,-1.15,11.91,-0.08,-0.05,-0.17
416,0.69,-1.15,11.91,-0.10,0.07,-0.20
422,-1.19,0.34,10.80,-0.10,0.07,-0.20
427,-1.19,0.34,10.80,-0.06,0.16,-0.24
432,-1.19,0.34,10.80,-0.04,0.15,-0.29
437,-1.19,0.34,10.80,-0.03,0.11,-0.33
442,-1.19,0.34,10.80,-0.04,0.06,-0.34
447,-1.19,0.34,10.80,-0.05,-0.02,-0.35
452,-1.19,0.34,10.80,-0.07,-0.11,-0.36
457,-1.19,0.34,10.80,-0.09,-0.15,-0.35
462,-1.19,0.34,10.80,-0.06,-0.13,-0.34
467,-1.19,0.34,10.80,-0.05,0.04,-0.36
472,-1.04,-1.46,9.73,-0.05,0.04,-0.36
477,-1.04,-1.46,9.73,-0.02,0.21,-0.39
482,-1.04,-1.46,9.73,-0.00,0.12,-0.40
486,-1.04,-1.46,9.73,0.01,0.02,-0.37
492,-0.19,-2.41,9.20,0.01,0.02,-0.37
497,-0.19,-2.41,9.20,0.05,-0.10,-0.26
502,-0.19,-2.41,9.20,0.08,-0.08,-0.21
507,0.80,-0.84,9.93,0.08,-0.08,-0.21
512,0.80,-0.84,9.93,0.08,0.12,-0.16
517,0.80,-0.84,9.93,0.10,0.10,-0.15
522,0.80,-0.84,9.93,0.11,0.04,-0.14
527,0.80,-0.84,9.93,0.12,-0.03,-0.12
532,0.80,-0.84,9.93,0.12,-0.05,-0.09
536,0.80,-0.84,9.93,0.13,-0.03,-0.08
542,1.11,-1.19,10.42,0.13,-0.03,-0.08
547,1.11,-1.19,10.42,0.10,0.06,-0.07
552,1.11,-1.19,10.42,0.09,0.07,-0.05
557,1.11,-1.19,10.42,0.09,0.05,-0.04
562,1.11,-1.19,10.42,0.08,0.03,-0.04
567,1.11,-1.19,10.42,0.08,0.02,-0.03
571,1.11,-1.19,10.42,0.08,0.00,-0.04
577,-0.23,-1.15,10.03,0.08,0.00,-0.04
582,-0.23,-1.15,10.03,0.09,0.00,0.03
587,-0.23,-1.15,10.03,0.12,-0.00,0.07
592,-0.23,-1.15,10.03,0.11,-0.02,0.10
597,-0.23,-1.15,10.03,0.11,-0.01,0.12
602,-0.23,-1.15,10.03,0.10,0.03,0.13
606,-0.23,-1.15,10.03,0.10,0.06,0.12
612,-1.42,-1.46,8.39,0.10,0.06,0.12
617,-1.42,-1.46,8.39,0.13,0.07,0.14
622,-1.42,-1.46,8.39,0.14,0.04,0.16
627,-1.42,-1.46,8.39,0.13,-0.00,0.16
632,-1.42,-1.46,8.39,0.11,-0.03,0.16
637,-1.42,-1.46,8.39,0.11,-0.04,0.16
642,-1.42,-1.46,8.39,0.11,-0.04,0.20
647,-1.42,-1.46,8.39,0.12,-0.02,0.22
652,-1.42,-1.46,8.39,0.14,-0.03,0.25
657,-1.42,-1.46,8.39,0.15,-0.03,0.29
662,-1.42,-1.46,8.39,0.16,-0.02,0.30
667,-1.42,-1.46,8.39,0.16,-0.00,0.32
672,-1.42,-1.46,8.39,0.16,-0.02,0.32
677,-1.42,-1.46,8.39,0.15,-0.05,0.33
682,-1.42,-1.46,8.39,0.16,-0.11,0.36
687,-1.42,-1.46,8.39,0.17,-0.11,0.39
692,-1.42,-1.46,8.39,0.14,-0.07,0.34
697,-1.53,-0.80,9.69,0.14,-0.07,0.34
702,-1.53,-0.80,9.69,0.15,0.04,0.37
707,-1.53,-0.80,9.69,0.14,0.02,0.31
712,-1.53,-0.80,9.69,0.12,-0.03,0.27
717,-1.53,-0.80,9.69,0.09,-0.02,0.26
722,-1.53,-0.80,9.69,0.08,-0.01,0.26
726,-1.53,-0.80,9.69,0.07,-0.00,0.24
732,0.11,-0.69,10.38,0.07,-0.00,0.24
737,0.11,-0.69,10.38,0.05,-0.02,0.25
742,0.11,-0.69,10.38,0.03,-0.02,0.22
747,0.11,-0.69,10.38,0.04,-0.00,0.19
752,0.11,-0.69,10.38,0.03,-0.00,0.17
757,0.11,-0.69,10.38,0.03,-0.04,0.15
761,0.11,-0.69,10.38,0.03,-0.06,0.14
767,-0.92,-0.46,9.50,0.03,-0.06,0.14
772,-0.92,-0.46,9.50,0.02,0.03,0.13
777,-0.92,-0.46,9.50,-0.00,0.04,0.11
782,-0.92,-0.46,9.50,0.01,-0.01,0.08
787,-0.92,-0.46,9.50,0.02,-0.08,0.08
792,-0.92,-0.46,9.50,0.04,-0.10,0.08
796,-0.92,-0.46,9.50,0.04,-0.05,0.08
802,0.15,-1.27,10.34,0.04,-0.05,0.08
807,0.15,-1.27,10.34,0.05,0.01,0.06
812,0.15,-1.27,10.34,0.05,-0.02,0.07
817,0.15,-1.27,10.34,0.06,-0.03,0.08
822,0.15,-1.27,10.34,0.08,0.02,0.10
827,0.15,-1.27,10.34,0.08,0.03,0.10
831,0.15,-1.27,10.34,0.09,0.00,0.11
837,-1.30,-0.23,8.62,0.09,0.00,0.11
842,-1.30,-0.23,8.62,0.06,-0.09,0.12
847,-1.30,-0.23,8.62,0.06,-0.08,0.12
852,-1.30,-0.23,8.62,0.05,-0.05,0.12
857,-1.30,-0.23,8.62,0.04,-0.03,0.14
862,-1.30,-0.23,8.62,0.05,-0.04,0.15
866,-1.30,-0.23,8.62,0.04,-0.05,0.16
872,-0.65,-0.77,10.61,0.04,-0.05,0.16
877,-0.65,-0.77,10.61,0.01,-0.07,0.13
882,-0.65,-0.77,10.61,0.00,-0.06,0.12
887,-0.65,-0.77,10.61,-0.01,-0.02,0.12
892,-0.65,-0.77,10.61,-0.01,0.01,0.12
897,-0.65,-0.77,10.61,-0.02,-0.01,0.12
901,-0.65,-0.77,10.61,-0.02,-0.02,0.11
907,-0.46,-0.84,8.70,-0.02,-0.02,0.11
912,-0.46,-0.84,8.70,-0.02,0.00,0.10
916,-0.46,-0.84,8.70,-0.02,0.04,0.09
922,-0.54,0.15,10.45,-0.02,0.04,0.09
927,-0.54,0.15,10.45,-0.04,0.01,0.08
932,-0.54,0.15,10.45,-0.06,-0.01,0.06
936,-0.54,0.15,10.45,-0.07,0.00,0.04
942,-0.27,-0.19,9.81,-0.07,0.00,0.04
947,-0.27,-0.19,9.81,-0.07,0.08,0.01
951,-0.27,-0.19,9.81,-0.06,0.08,0.01
957,-1.91,1.11,7.89,-0.06,0.08,0.01
962,-1.91,1.11,7.89,-0.08,0.03,-0.02
967,-1.91,1.11,7.89,-0.11,-0.01,-0.04
971,-1.91,1.11,7.89,-0.11,-0.02,-0.07
977,0.57,0.30,10.00,-0.11,-0.02,-0.07
982,0.57,0.30,10.00,-0.12,0.08,-0.11
986,0.57,0.30,10.00,-0.12,0.10,-0.12
992,-1.49,0.00,9.31,-0.12,0.10,-0.12
997,-1.49,0.00,9.31,-0.09,0.04,-0.13
1002,-1.49,0.00,9.31,-0.08,0.02,-0.14
1006,-0.15,0.50,9.54,-0.08,0.02,-0.14
1012,-0.11,0.92,9.12,-0.08,0.02,-0.14
1017,-0.11,0.92,9.12,-0.09,0.03,-0.20
1021,-0.11,0.92,9.12,-0.10,0.03,-0.23
1027,-0.19,0.38,9.84,-0.10,0.03,-0.23
1032,-0.19,0.38,9.84,-0.12,0.05,-0.29
1036,-0.19,0.38,9.84,-0.11,0.04,-0.31
1042,-0.19,0.38,9.84,-0.11,0.02,-0.34
1047,0.57,0.11,9.65,-0.11,0.02,-0.34
1052,0.57,0.11,9.65,-0.12,0.04,-0.40
1056,0.57,0.11,9.65,-0.16,0.06,-0.45
1062,0.04,1.68,9.20,-0.16,0.06,-0.45
1067,0.04,1.68,9.20,-0.19,0.08,-0.52
1071,0.04,1.68,9.20,-0.19,0.06,-0.54
1077,0.04,1.68,9.20,-0.20,0.03,-0.56
1082,0.04,1.68,9.20,-0.21,0.03,-0.57
1087,0.04,1.68,9.20,-0.21,0.05,-0.58
1091,0.04,1.68,9.20,-0.21,0.06,-0.58
1097,1.99,1.61,10.57,-0.21,0.06,-0.58
1102,1.99,1.61,10.57,-0.20,0.03,-0.56
1106,1.99,1.61,10.57,-0.19,0.04,-0.56
1112,1.99,1.61,10.57,-0.20,0.08,-0.57
1117,1.99,1.61,10.57,-0.20,0.12,-0.57
1122,1.99,1.61,10.57,-0.21,0.16,-0.58
1126,1.99,1.61,10.57,-0.20,0.16,-0.58
1132,-1.38,0.34,9.73,-0.20,0.16,-0.58
1137,-1.38,0.34,9.73,-0.19,0.13,-0.57
1141,-1.38,0.34,9.73,-0.18,0.11,-0.55
1147,-1.38,0.34,9.73,-0.19,0.10,-0.54
1152,-1.38,0.34,9.73,-0.20,0.09,-0.56
1157,-1.38,0.34,9.73,-0.20,0.07,-0.54
1161,-1.38,0.34,9.73,-0.19,0.04,-0.52
1167,0.08,-1.07,8.36,-0.19,0.04,-0.52
1172,0.08,-1.07,8.36,-0.13,0.01,-0.42
1176,0.08,-1.07,8.36,-0.11,0.03,-0.40
1182,-1.07,-2.38,7.51,-0.11,0.03,-0.40
1187,-1.07,-2.38,7.51,-0.08,0.06,-0.34
1192,-1.07,-2.38,7.51,-0.04,0.03,-0.31
1197,-1.07,-2.38,7.51,-0.02,-0.02,-0.28
1202,1.72,-4.29,10.27,-0.02,-0.02,-0.28
1207,1.72,-4.29,10.27,0.03,-0.02,-0.20
1211,1.72,-4.29,10.27,0.05,0.03,-0.18
1217,0.92,-3.60,9.96,0.05,0.03,-0.18
1221,0.92,-3.60,9.96,0.09,0.08,-0.14
1226,0.92,-3.60,9.96,0.09,0.11,-0.14
1232,0.92,-3.60,9.96,0.09,0.11,-0.12
1237,-1.04,-2.49,8.32,0.09,0.11,-0.12
1241,-1.04,-2.49,8.32,0.11,-0.05,-0.11
1246,-1.04,-2.49,8.32,0.13,-0.09,-0.09
1252,-1.80,-1.19,8.36,0.13,-0.09,-0.09
1257,-1.80,-1.19,8.36,0.12,0.04,-0.08
1261,-1.80,-1.19,8.36,0.12,0.04,-0.07
1267,-1.80,-1.19,8.36,0.11,-0.03,-0.08
1272,-0.42,-0.84,8.08,0.11,-0.03,-0.08
1277,-0.42,-0.84,8.08,0.10,-0.20,-0.09
1281,-0.42,-0.84,8.08,0.11,-0.16,-0.09
1287,0.50,-0.19,10.65,0.11,-0.16,-0.09
1292,0.50,-0.19,10.65,0.08,0.02,-0.08
1296,0.50,-0.19,10.65,0.09,-0.02,-0.07
1302,0.50,-0.19,10.65,0.10,-0.09,-0.07
1307,0.50,-0.19,10.65,0.11,-0.10,-0.05
1312,0.50,-0.19,10.65,0.12,-0.06,-0.03
1317,0.50,-0.19,10.65,0.13,0.01,-0.01
1322,0.46,0.19,10.88,0.13,0.01,-0.01
1327,0.46,0.19,10.88,0.13,-0.00,-0.00
1331,0.46,0.19,10.88,0.11,-0.02,-0.00
1337,0.46,0.19,10.88,0.12,-0.02,0.01
1341,0.46,0.19,10.88,0.12,0.00,0.02
1346,0.46,0.19,10.88,0.13,0.01,0.03
1352,0.46,0.19,10.88,0.13,-0.00,0.05
1357,-0.30,-0.04,10.00,0.13,-0.00,0.05
1362,-0.30,-0.04,10.00,0.11,-0.04,0.04
1366,-0.30,-0.04,10.00,0.10,-0.01,0.03
1372,-0.30,-0.04,10.00,0.09,0.02,0.03
1377,-0.30,-0.04,10.00,0.10,0.03,0.04
1382,-0.30,-0.04,10.00,0.10,0.00,0.05
1387,-0.30,-0.04,10.00,0.11,-0.03,0.07
1392,-1.19,-1.84,9.85,0.11,-0.03,0.07
1397,-1.19,-1.84,9.85,0.11,-0.02,0.10
1401,-1.19,-1.84,9.85,0.12,-0.02,0.12
1407,-1.57,-1.91,9.00,0.12,-0.02,0.12
1412,-1.57,-1.91,9.00,0.13,-0.02,0.16
1416,-1.57,-1.91,9.00,0.14,-0.04,0.17
1422,-1.57,-1.91,9.00,0.14,-0.06,0.20
1427,-0.80,-2.22,7.31,0.14,-0.06,0.20
1432,-0.80,-2.22,7.31,0.16,-0.10,0.24
1436,-0.80,-2.22,7.31,0.17,-0.09,0.26
1442,-0.19,-3.18,10.07,0.17,-0.09,0.26
1447,-0.19,-3.18,10.07,0.18,-0.06,0.30
1451,-0.19,-3.18,10.07,0.18,-0.07,0.30
1457,-0.19,-3.18,10.07,0.19,-0.07,0.31
1462,0.11,-3.37,10.50,0.19,-0.07,0.31
1467,0.11,-3.37,10.50,0.22,-0.01,0.34
1471,0.11,-3.37,10.50,0.23,0.01,0.36
1477,-1.91,-2.22,8.84,0.23,0.01,0.36
1481,-1.91,-2.22,8.84,0.24,-0.04,0.37
1486,-1.91,-2.22,8.84,0.22,-0.07,0.37
1492,-1.91,-2.22,8.84,0.22,-0.10,0.37
1497,0.11,-1.07,9.34,0.22,-0.10,0.37
1502,0.11,-1.07,9.34,0.19,-0.06,0.36
1507,0.11,-1.07,9.34,0.17,-0.03,0.36
1512,-1.07,-0.92,8.16,0.17,-0.03,0.36
1517,-1.07,-0.92,8.16,0.18,-0.04,0.36
1521,-1.07,-0.92,8.16,0.17,-0.06,0.36
1527,-1.07,-0.92,8.16,0.18,-0.07,0.35
1532,0.04,0.88,9.04,0.18,-0.07,0.35
1536,0.04,0.88,9.04,0.15,-0.04,0.34
1542,0.04,0.88,9.04,0.14,-0.03,0.32
1547,-0.27,0.65,9.65,0.14,-0.03,0.32
1552,-0.27,0.65,9.65,0.11,0.00,0.28
1556,-0.27,0.65,9.65,0.11,0.00,0.27
1562,-1.30,0.65,9.27,0.11,0.00,0.27
1567,-1.30,0.65,9.27,0.09,-0.00,0.22
1571,-1.30,0.65,9.27,0.08,-0.01,0.20
1577,-1.30,0.65,9.27,0.06,-0.03,0.17
1582,0.27,0.61,10.23,0.06,-0.03,0.17
1587,0.27,0.61,10.23,0.03,0.00,0.11
1591,0.27,0.61,10.23,0.02,0.03,0.08
1597,-0.42,1.19,8.88,0.02,0.03,0.08
1601,-0.42,1.19,8.88,0.01,0.00,0.05
1606,-0.42,1.19,8.88,-0.00,-0.02,0.04
1612,-0.42,1.19,8.88,-0.03,-0.03,0.01
1617,0.04,0.73,10.23,-0.03,-0.03,0.01
1622,0.04,0.73,10.23,-0.04,-0.04,-0.04
1626,0.04,0.73,10.23,-0.03,-0.05,-0.04
1632,0.04,0.73,10.23,-0.04,-0.06,-0.05
1637,0.04,0.73,10.23,-0.04,-0.04,-0.05
1641,0.04,0.73,10.23,-0.05,-0.00,-0.08
1647,0.04,0.73,10.23,-0.06,0.02,-0.10
1652,0.92,-0.57,9.81,-0.06,0.02,-0.10
1657,0.92,-0.57,9.81,-0.05,0.03,-0.13
1661,0.92,-0.57,9.81,-0.04,0.05,-0.15
1667,-0.65,0.65,9.23,-0.04,0.05,-0.15
1672,-0.65,0.65,9.23,-0.07,0.02,-0.18
1676,-0.65,0.65,9.23,-0.09,-0.02,-0.22
1681,-0.65,0.65,9.23,-0.10,-0.03,-0.23
1687,1.04,0.34,9.96,-0.10,-0.03,-0.23
1691,1.04,0.34,9.96,-0.11,0.00,-0.24
1697,1.04,0.34,9.96,-0.11,0.01,-0.24
1702,-0.19,-0.50,8.23,-0.11,0.01,-0.24
1707,-0.19,-0.50,8.23,-0.10,0.01,-0.25
1711,-0.19,-0.50,8.23,-0.11,0.00,-0.26
1717,-0.30,-0.04,9.16,-0.11,0.00,-0.26
1722,-0.19,-0.19,10.03,-0.11,0.00,-0.26
1726,-0.19,-0.19,10.03,-0.07,-0.03,-0.22
1732,-0.19,-0.19,10.03,-0.05,-0.05,-0.20
1737,1.65,-0.73,10.65,-0.05,-0.05,-0.20
1742,1.65,-0.73,10.65,-0.03,0.04,-0.18
1746,1.65,-0.73,10.65,-0.03,0.09,-0.16
1752,1.65,-0.73,10.65,-0.02,0.10,-0.15
1757,1.65,-0.73,10.65,-0.00,0.05,-0.15
1761,1.65,-0.73,10.65,-0.01,0.00,-0.15
1767,1.65,-0.73,10.65,-0.02,-0.01,-0.16
1772,1.65,-0.73,10.65,-0.03,0.00,-0.15
1777,1.65,-0.73,10.65,-0.03,0.01,-0.15
1781,1.65,-0.73,10.65,-0.04,0.00,-0.15
1787,-0.84,0.38,8.50,-0.04,0.00,-0.15
1792,-0.84,0.38,8.50,-0.05,-0.02,-0.14
1796,-0.84,0.38,8.50,-0.05,-0.01,-0.16
1801,-0.84,0.38,8.50,-0.07,0.01,-0.16
1807,-0.42,0.00,10.23,-0.07,0.01,-0.16
1812,-0.42,0.00,10.23,-0.05,0.03,-0.14
1816,-0.42,0.00,10.23,-0.03,0.01,-0.13
1822,-0.61,-1.00,9.69,-0.03,0.01,-0.13
1827,-0.61,-1.00,9.69,-0.03,0.03,-0.12
1831,-0.61,-1.00,9.69,-0.02,0.04,-0.11
1836,-0.61,-1.00,9.69,0.01,0.04,-0.10
1842,-0.42,-1.46,9.69,0.01,0.04,-0.10
1846,-0.42,-1.46,9.69,0.02,0.03,-0.07
1852,-0.42,-1.46,9.69,0.03,0.04,-0.06
1857,-1.49,-1.38,9.81,0.03,0.04,-0.06
1862,-1.49,-1.38,9.81,0.03,0.06,-0.05
1866,-1.49,-1.38,9.81,0.04,0.04,-0.04
1872,-1.49,-1.38,9.81,0.05,-0.01,-0.01
1876,-1.49,-1.38,9.81,0.06,-0.04,0.00
1881,-1.49,-1.38,9.81,0.06,-0.04,0.02
1887,-1.49,-1.38,9.81,0.04,0.01,0.03
1892,-1.49,-1.38,9.81,0.05,0.04,0.04
1896,-1.49,-1.38,9.81,0.06,0.04,0.05
1901,-1.49,-1.38,9.81,0.06,0.05,0.07
1906,-1.49,-1.38,9.81,0.08,0.05,0.11
1912,-1.65,-1.84,9.84,0.08,0.05,0.11
1916,-1.65,-1.84,9.84,0.10,-0.02,0.15
1922,-1.65,-1.84,9.84,0.11,-0.05,0.17
1927,-0.04,-2.53,10.00,0.11,-0.05,0.17
1931,-0.04,-2.53,10.00,0.13,-0.02,0.20
1936,-0.04,-2.53,10.00,0.15,0.02,0.22
1942,-1.80,-2.07,8.04,0.15,0.02,0.22
1946,-1.80,-2.07,8.04,0.16,-0.02,0.26
1951,-1.80,-2.07,8.04,0.15,-0.06,0.26
1956,-1.80,-2.07,8.04,0.17,-0.09,0.27
1962,0.11,-2.03,9.93,0.17,-0.09,0.27
1966,0.11,-2.03,9.93,0.16,-0.03,0.27
1971,0.11,-2.03,9.93,0.15,0.00,0.27
1977,0.23,-1.57,10.61,0.15,0.00,0.27
1981,0.23,-1.57,10.61,0.14,-0.06,0.27
1986,0.23,-1.57,10.61,0.14,-0.06,0.28
1992,0.23,-1.57,10.61,0.15,0.01,0.28
1996,0.23,-1.57,10.61,0.16,0.10,0.28
2001,0.23,-1.57,10.61,0.16,0.10,0.28
2006,0.23,-1.57,10.61,0.17,0.03,0.30
2012,0.23,-1.57,10.61,0.15,-0.05,0.30
2016,0.23,-1.57,10.61,0.14,-0.11,0.29
2021,0.23,-1.57,10.61,0.13,-0.09,0.28
2026,0.23,-1.57,10.61,0.12,0.00,0.27
2032,0.23,-1.57,10.61,0.10,0.07,0.27
2036,0.23,-1.57,10.61,0.10,0.07,0.26
2041,0.23,-1.57,10.61,0.10,0.01,0.27
2047,-0.54,-0.30,8.77,0.10,0.01,0.27
2051,-0.54,-0.30,8.77,0.11,-0.05,0.27
2056,-0.54,-0.30,8.77,0.10,0.01,0.27
2062,-0.54,-0.30,8.77,0.08,0.05,0.26
2066,-0.54,-0.30,8.77,0.08,0.02,0.26
2071,-0.54,-0.30,8.77,0.08,-0.04,0.26
2077,-0.54,-0.30,8.77,0.08,-0.05,0.26
2082,-0.50,-0.27,9.12,0.08,-0.05,0.26
2086,-0.50,-0.27,9.12,0.08,0.03,0.26
2092,-0.50,-0.27,9.12,0.08,0.00,0.26
2097,-0.50,-0.27,9.12,0.08,-0.03,0.26
2101,-0.50,-0.27,9.12,0.07,-0.04,0.24
2106,-0.50,-0.27,9.12,0.05,-0.01,0.22
2111,-0.50,-0.27,9.12,0.03,0.01,0.20
2117,-0.11,-0.34,9.23,0.03,0.01,0.20
2121,-0.11,-0.34,9.23,0.03,-0.03,0.18
2126,-0.11,-0.34,9.23,0.02,-0.04,0.16
2132,-0.11,-0.34,9.23,-0.00,-0.03,0.12
2136,-0.11,-0.34,9.23,-0.02,-0.00,0.09
2141,-0.11,-0.34,9.23,-0.04,0.02,0.06
2146,-0.11,-0.34,9.23,-0.05,0.01,0.03
2152,-0.11,-0.34,9.23,-0.05,-0.02,0.02
2156,-0.11,-0.34,9.23,-0.05,-0.04,-0.00
2161,-0.11,-0.34,9.23,-0.06,-0.03,-0.01
2166,1.76,0.42,10.73,-0.06,-0.03,-0.01
2172,1.34,-0.27,10.07,-0.06,-0.03,-0.01
2176,1.34,-0.27,10.07,-0.07,0.05,-0.04
2182,1.34,-0.27,10.07,-0.06,0.06,-0.06
2186,1.34,-0.27,10.07,-0.06,0.08,-0.06
2191,1.34,-0.27,10.07,-0.05,0.06,-0.07
2196,1.34,-0.27,10.07,-0.07,0.02,-0.08
2202,-1.15,1.95,9.77,-0.07,0.02,-0.08
2206,-0.04,1.27,9.58,-0.07,0.02,-0.08
2211,-0.04,1.27,9.58,-0.13,-0.01,-0.14
2217,-0.04,1.27,9.58,-0.12,-0.03,-0.14
2221,-0.04,1.27,9.58,-0.13,-0.04,-0.15
2226,-0.04,1.27,9.58,-0.13,-0.04,-0.15
2231,-0.04,1.27,9.58,-0.15,-0.02,-0.19
2237,-0.30,0.57,8.54,-0.15,-0.02,-0.19
2241,0.15,0.46,9.80,-0.15,-0.02,-0.19
2246,0.38,0.08,10.27,-0.15,-0.02,-0.19
2252,0.38,0.08,10.27,-0.14,-0.03,-0.22
2257,0.38,0.08,10.27,-0.14,-0.04,-0.22
2261,1.00,-0.34,11.07,-0.14,-0.04,-0.22
2266,1.00,-0.34,11.07,-0.12,0.03,-0.22
2272,1.00,-0.34,11.07,-0.11,0.06,-0.21
2276,-0.69,0.23,9.04,-0.11,0.06,-0.21
2281,-1.04,0.38,9.23,-0.11,0.06,-0.21
2286,-1.04,0.38,9.23,-0.08,0.00,-0.21
2292,-0.34,0.30,9.61,-0.08,0.00,-0.21
2296,-0.34,0.30,9.61,-0.10,0.02,-0.23
2301,-0.34,0.30,9.61,-0.10,0.02,-0.23
2307,-1.15,-0.30,8.46,-0.10,0.02,-0.23
2311,-1.15,-0.30,8.46,-0.10,0.00,-0.23
2316,-1.15,-0.30,8.46,-0.11,-0.03,-0.24
2322,-1.15,-0.30,8.46,-0.12,-0.06,-0.26
2327,-1.15,-0.30,8.46,-0.12,-0.04,-0.28
2331,0.34,0.00,10.23,-0.12,-0.04,-0.28
2336,0.34,0.00,10.23,-0.13,0.03,-0.28
2342,-0.15,-0.15,9.85,-0.13,0.03,-0.28
2347,-0.15,-0.15,9.85,-0.11,-0.01,-0.27
2351,-0.08,-0.96,9.46,-0.11,-0.01,-0.27
2357,-0.08,-0.96,9.46,-0.09,0.00,-0.24
2361,-0.08,-0.96,9.46,-0.08,0.01,-0.23
2366,-0.08,-0.96,9.46,-0.07,0.00,-0.21
2372,-0.08,-0.96,9.46,-0.06,0.00,-0.19
2376,-0.08,-0.96,9.46,-0.07,0.01,-0.19
2381,-0.08,-0.96,9.46,-0.06,0.01,-0.18
2386,-0.08,-0.96,9.46,-0.07,0.03,-0.17
2392,-0.08,-0.96,9.46,-0.06,0.03,-0.17
2396,-0.08,-0.96,9.46,-0.05,0.01,-0.15
2402,-0.08,-0.96,9.46,-0.05,-0.03,-0.14
2407,-0.08,-0.96,9.46,-0.04,-0.04,-0.12
2412,0.57,0.42,9.58,-0.04,-0.04,-0.12
2416,-0.23,0.11,9.50,-0.04,-0.04,-0.12
2421,-0.23,0.11,9.50,-0.06,0.05,-0.14
2426,-0.69,-0.38,9.77,-0.06,0.05,-0.14
2432,-0.84,-0.11,10.30,-0.06,0.05,-0.14
2437,-0.84,-0.11,10.30,-0.04,0.01,-0.11
2442,-1.00,-0.38,10.03,-0.04,0.01,-0.11
2446,-0.69,-1.46,9.77,-0.04,0.01,-0.11
2451,-0.69,-0.92,9.04,-0.04,0.01,-0.11
2456,-0.69,-0.92,9.04,-0.03,-0.01,-0.10
2462,-0.92,-0.84,9.35,-0.03,-0.01,-0.10
2467,-1.07,-0.84,7.66,-0.03,-0.01,-0.10
2471,-0.84,-0.73,7.63,-0.03,-0.01,-0.10
2476,-0.96,-0.80,7.20,-0.03,-0.01,-0.10
2482,-0.96,-0.80,7.20,-0.01,-0.05,-0.04
2486,-0.38,-0.54,8.85,-0.01,-0.05,-0.04
2491,-0.38,-0.54,8.85,0.01,-0.02,-0.01
2497,0.15,-1.23,10.49,0.01,-0.02,-0.01
2501,0.73,-1.80,11.26,0.01,-0.02,-0.01
2506,0.84,-2.03,11.50,0.01,-0.02,-0.01
2512,0.84,-2.03,11.50,0.02,-0.01,0.01
2517,0.84,-2.03,11.50,0.03,0.03,0.02
2521,-1.53,-1.99,9.46,0.03,0.03,0.02
2526,-1.53,-1.68,8.92,0.03,0.03,0.02
2532,-1.57,-1.42,9.35,0.03,0.03,0.02
2537,-1.57,-1.42,9.35,0.09,-0.01,0.07
2542,-1.57,-1.42,9.35,0.07,-0.02,0.07
2546,-0.19,-1.19,9.77,0.07,-0.02,0.07
2552,-0.19,-1.19,9.77,0.06,0.01,0.06
2556,-0.80,-1.46,9.04,0.06,0.01,0.06
2561,-1.30,-1.30,8.74,0.06,0.01,0.06
2566,-1.30,-1.30,8.74,0.05,0.01,0.07
2572,-1.30,-1.30,8.74,0.05,0.01,0.07
2577,-1.30,-1.30,8.74,0.05,-0.01,0.08
2582,-0.50,-0.15,9.30,0.05,-0.01,0.08
2586,-0.15,0.08,9.58,0.05,-0.01,0.08
2591,0.34,-0.46,10.27,0.05,-0.01,0.08
2597,0.34,-0.46,10.27,0.05,-0.00,0.09
2602,0.34,-0.46,10.27,0.05,-0.01,0.10
2607,-1.38,-0.34,8.96,0.05,-0.01,0.10
2611,-1.30,-0.30,8.78,0.05,-0.01,0.10
2616,-0.65,0.00,8.89,0.05,-0.01,0.10
2622,-0.65,0.00,8.89,0.07,-0.05,0.13
2626,0.08,-0.27,9.27,0.07,-0.05,0.13
2632,0.57,-0.38,9.23,0.07,-0.05,0.13
2637,0.57,-0.38,9.23,0.04,-0.03,0.11
2641,-0.19,-0.46,8.39,0.04,-0.03,0.11
2646,-0.19,-0.11,9.16,0.04,-0.03,0.11
2652,-0.19,-0.11,9.16,0.04,-0.04,0.12
2657,-0.19,-0.11,9.16,0.04,-0.04,0.11
2661,0.00,-0.23,10.46,0.04,-0.04,0.11
2666,0.15,-0.80,11.00,0.04,-0.04,0.11
2672,-0.04,-0.57,10.57,0.04,-0.04,0.11
2676,0.50,-0.88,10.11,0.04,-0.04,0.11
2681,1.19,-1.04,10.73,0.04,-0.04,0.11
2686,1.19,-1.04,10.73,0.04,-0.04,0.08
2691,1.19,-1.04,10.73,0.04,-0.02,0.08
2697,1.19,-1.04,10.73,0.04,0.01,0.08
2702,0.08,-1.04,10.03,0.04,0.01,0.08
2706,-0.84,-1.19,9.54,0.04,0.01,0.08
2711,-1.04,-0.61,9.50,0.04,0.01,0.08
2717,-1.04,-0.61,9.50,0.04,0.04,0.03
2722,-1.04,-0.61,9.50,0.03,0.02,0.03
2726,-1.30,-0.42,8.66,0.03,0.02,0.03
2731,-0.69,0.96,9.12,0.03,0.02,0.03
2736,-0.80,0.00,9.00,0.03,0.02,0.03
2742,-0.80,0.00,9.00,-0.01,-0.01,-0.01
2746,-0.23,-0.38,8.36,-0.01,-0.01,-0.01
2751,-0.11,-0.46,8.81,-0.01,-0.01,-0.01
2757,-0.11,-0.46,8.81,-0.01,-0.02,-0.02
2761,-1.23,-0.46,8.42,-0.01,-0.02,-0.02
2766,-0.84,-0.46,8.81,-0.01,-0.02,-0.02
2772,-0.73,-0.92,9.50,-0.01,-0.02,-0.02
2776,0.65,-1.15,10.38,-0.01,-0.02,-0.02
2781,1.38,-1.27,10.84,-0.01,-0.02,-0.02
2786,1.38,-1.27,10.84,0.01,-0.04,0.01
2792,1.38,-1.27,10.84,0.02,-0.02,0.02
2796,0.11,-1.07,10.46,0.02,-0.02,0.02
2801,-0.73,-0.46,9.61,0.02,-0.02,0.02
2806,-1.27,-0.38,9.43,0.02,-0.02,0.02
2812,-1.27,-0.38,9.43,0.06,0.04,0.07
2816,-0.42,-0.19,9.46,0.06,0.04,0.07
2821,-0.23,-0.04,9.65,0.06,0.04,0.07
2826,-0.23,-0.04,9.65,0.05,-0.04,0.06
2831,-0.23,-0.04,9.65,0.04,-0.01,0.06
2837,-0.23,-0.04,9.65,0.03,0.02,0.06
2842,-0.57,-0.46,8.39,0.03,0.02,0.06
2846,0.46,-0.04,9.35,0.03,0.02,0.06
2851,0.69,-0.54,9.65,0.03,0.02,0.06
2856,0.30,-0.54,9.93,0.03,0.02,0.06
2862,0.30,-0.54,9.93,-0.02,-0.00,0.01
2866,0.15,0.11,9.39,-0.02,-0.00,0.01
2871,0.15,-0.19,9.38,-0.02,-0.00,0.01
2877,0.15,-0.19,9.38,-0.01,-0.03,0.04
2881,0.23,-1.00,9.50,-0.01,-0.03,0.04
2886,-0.04,-1.07,9.61,-0.01,-0.03,0.04
2892,-0.04,-1.07,9.61,0.01,0.00,0.05
2897,-0.04,-1.07,9.61,0.01,0.01,0.07
2901,0.46,-0.65,10.23,0.01,0.01,0.07
2906,-0.34,-0.77,9.84,0.01,0.01,0.07
2912,-0.54,-0.65,10.00,0.01,0.01,0.07
2916,-1.04,-0.54,9.35,0.01,0.01,0.07
2921,-1.15,-0.80,9.16,0.01,0.01,0.07
2926,-1.11,-0.65,8.73,0.01,0.01,0.07
2932,-0.27,-0.27,9.50,0.01,0.01,0.07
2936,-0.42,0.19,9.73,0.01,0.01,0.07
2941,-0.54,-0.19,9.69,0.01,0.01,0.07
2947,-0.54,-0.19,9.69,-0.00,0.03,0.06
2951,-1.00,0.19,9.93,-0.00,0.03,0.06
2956,-1.46,-0.11,9.30,-0.00,0.03,0.06
2962,-1.07,-0.04,10.19,-0.00,0.03,0.06
2966,-1.15,-0.04,9.65,-0.00,0.03,0.06
2971,-1.27,-0.19,9.61,-0.00,0.03,0.06
2977,-1.27,-0.19,9.61,-0.03,0.00,0.04
2982,-1.27,-0.19,9.61,-0.03,0.00,0.04
2986,-1.11,-0.08,9.27,-0.03,0.00,0.04
2991,-1.00,-0.23,8.88,-0.03,0.00,0.04
2997,-0.65,0.00,8.66,-0.03,0.00,0.04
3001,-0.42,-0.15,8.16,-0.03,0.00,0.04
3006,0.11,-0.34,8.42,-0.03,0.00,0.04
3012,0.11,-0.34,8.42,-0.02,-0.04,0.02
3017,0.11,-0.34,8.42,-0.03,-0.03,0.03
3021,0.15,-0.54,10.15,-0.03,-0.03,0.03
3026,0.42,-0.34,10.88,-0.03,-0.03,0.03
3032,0.42,-0.34,10.88,-0.03,0.01,0.01
3037,0.38,-0.84,11.68,-0.03,0.01,0.01
3041,0.38,-0.84,11.68,-0.03,0.05,-0.02
3046,-0.42,-1.49,10.65,-0.03,0.05,-0.02
3052,-0.77,-0.73,10.00,-0.03,0.05,-0.02
3056,-1.46,-0.69,8.36,-0.03,0.05,-0.02
3061,-1.38,-0.30,8.66,-0.03,0.05,-0.02
3066,-1.11,-0.19,8.81,-0.03,0.05,-0.02
3072,-1.11,-0.19,8.81,-0.00,-0.00,-0.04
3077,-0.08,-0.15,9.27,-0.00,-0.00,-0.04
3081,-0.73,0.15,9.30,-0.00,-0.00,-0.04
3086,-1.27,-0.08,8.96,-0.00,-0.00,-0.04
3091,-1.72,-0.19,8.54,-0.00,-0.00,-0.04
3096,-1.57,0.30,8.70,-0.00,-0.00,-0.04
3102,-1.57,0.30,8.70,-0.05,0.03,-0.08
3106,-0.46,0.23,9.16,-0.05,0.03,-0.08
3111,-0.30,0.46,9.61,-0.05,0.03,-0.08
3117,-0.42,0.54,9.54,-0.05,0.03,-0.08
3121,-0.15,0.08,9.96,-0.05,0.03,-0.08
3126,-0.23,-0.15,9.84,-0.05,0.03,-0.08
3132,-0.23,-0.15,9.84,-0.05,0.04,-0.11
3137,-0.23,-0.15,9.84,-0.05,0.03,-0.10
3142,-1.23,0.23,9.50,-0.05,0.03,-0.10
3146,-1.23,0.23,9.50,-0.05,0.02,-0.09
3151,0.30,0.19,10.03,-0.05,0.02,-0.09
3156,-0.19,-0.30,9.39,-0.05,0.02,-0.09
3161,-0.04,-0.04,9.12,-0.05,0.02,-0.09
3166,-0.50,-0.11,9.39,-0.05,0.02,-0.09
3172,-0.15,-0.11,9.27,-0.05,0.02,-0.09
3177,-0.77,0.23,9.46,-0.05,0.02,-0.09
3181,-0.77,0.23,9.46,-0.06,0.00,-0.10
3186,-0.77,0.23,9.46,-0.07,0.01,-0.10
3191,-0.50,-1.04,10.23,-0.07,0.01,-0.10
3196,-0.23,-1.30,10.65,-0.07,0.01,-0.10
3202,0.23,-1.30,10.61,-0.07,0.01,-0.10
3206,0.80,-1.34,9.93,-0.07,0.01,-0.10
3211,1.34,-1.30,10.31,-0.07,0.01,-0.10
3216,1.38,-1.38,9.92,-0.07,0.01,-0.10
3222,1.04,-1.76,9.92,-0.07,0.01,-0.10
3226,0.08,-1.42,9.46,-0.07,0.01,-0.10
3231,0.19,-2.11,9.69,-0.07,0.01,-0.10
3237,-0.38,-1.76,9.54,-0.07,0.01,-0.10
3241,-0.88,-0.88,8.81,-0.07,0.01,-0.10
3246,-0.54,-0.84,9.00,-0.07,0.01,-0.10
3251,-0.50,-0.23,8.58,-0.07,0.01,-0.10
3257,-0.80,-0.57,8.58,-0.07,0.01,-0.10
3262,-0.19,0.19,9.12,-0.07,0.01,-0.10
3266,-0.19,0.19,9.12,-0.02,0.00,-0.03
3271,0.00,-0.15,9.12,-0.02,0.00,-0.03
3276,-0.15,-0.34,8.66,-0.02,0.00,-0.03
3281,0.23,-1.15,9.16,-0.02,0.00,-0.03
3286,-0.42,-0.73,8.66,-0.02,0.00,-0.03
3292,-0.92,-0.54,8.62,-0.02,0.00,-0.03
3297,-0.11,-0.38,9.08,-0.02,0.00,-0.03
3301,-0.11,-0.38,9.08,-0.02,-0.06,-0.01
3306,-0.11,-0.38,9.08,0.00,-0.07,0.01
3311,1.53,-0.42,11.11,0.00,-0.07,0.01
3316,1.80,-1.95,11.57,0.00,-0.07,0.01
3322,2.76,-0.34,11.26,0.00,-0.07,0.01
3326,0.11,-0.46,10.73,0.00,-0.07,0.01
3331,-0.96,0.19,9.88,0.00,-0.07,0.01
3336,-1.23,0.00,9.61,0.00,-0.07,0.01
3342,-0.88,0.46,9.42,0.00,-0.07,0.01
3347,-0.42,0.65,9.34,0.00,-0.07,0.01
3351,-0.42,0.65,9.34,0.00,-0.03,0.00
3356,-0.15,0.61,8.81,0.00,-0.03,0.00
3361,-0.46,0.96,8.62,0.00,-0.03,0.00
3366,-0.88,0.00,8.20,0.00,-0.03,0.00
3371,-0.61,0.80,8.66,0.00,-0.03,0.00
3377,-0.73,-0.15,8.78,0.00,-0.03,0.00
3382,-0.15,-0.11,9.96,0.00,-0.03,0.00
3386,-0.15,-0.11,9.96,-0.10,0.01,-0.13
3391,0.42,-0.73,10.54,-0.10,0.01,-0.13
3396,-0.19,-0.88,9.61,-0.10,0.01,-0.13
3401,0.00,-1.11,9.73,-0.10,0.01,-0.13
3406,-0.50,-1.38,9.42,-0.10,0.01,-0.13
3412,-0.77,-1.30,9.35,-0.10,0.01,-0.13
3417,-0.38,-1.61,9.20,-0.10,0.01,-0.13
3421,-0.38,-1.61,9.20,-0.03,0.02,-0.12
3426,-0.38,-1.61,9.20,-0.03,0.02,-0.12
3432,-0.42,-1.00,9.73,-0.03,0.02,-0.12
3437,-0.54,-0.92,9.77,-0.03,0.02,-0.12
3441,-0.54,-0.92,9.77,-0.02,0.03,-0.10
3446,-0.84,-0.80,9.27,-0.02,0.03,-0.10
3451,-0.88,-1.15,8.88,-0.02,0.03,-0.10
3456,-1.19,-0.73,8.66,-0.02,0.03,-0.10
3462,-0.77,-0.92,8.84,-0.02,0.03,-0.10
3466,-0.19,-0.88,9.73,-0.02,0.03,-0.10
3471,0.11,-1.42,10.11,-0.02,0.03,-0.10
3476,-0.23,-1.11,10.19,-0.02,0.03,-0.10
3482,-0.54,-1.15,9.88,-0.02,0.03,-0.10
3486,-0.92,-1.11,10.15,-0.02,0.03,-0.10
3491,-0.88,-1.11,10.27,-0.02,0.03,-0.10
3497,-0.92,-0.42,9.81,-0.02,0.03,-0.10
3502,-0.11,-0.80,9.69,-0.02,0.03,-0.10
3506,-0.11,-0.80,9.69,0.03,0.01,0.00
3511,-0.11,-0.80,9.69,0.04,0.04,0.01
3517,-0.65,-0.57,9.34,0.04,0.04,0.01
3522,-1.23,-0.65,8.24,0.04,0.04,0.01
3526,-1.23,-0.65,8.24,0.06,-0.03,0.06
3531,-0.46,-0.30,8.62,0.06,-0.03,0.06
3536,0.38,-0.65,8.39,0.06,-0.03,0.06
3541,0.27,-0.77,8.54,0.06,-0.03,0.06
3546,0.08,-0.30,9.12,0.06,-0.03,0.06
3552,-0.04,-0.11,9.12,0.06,-0.03,0.06
3557,0.77,-1.04,10.73,0.06,-0.03,0.06
3561,0.77,-1.04,10.73,0.03,-0.03,0.06
3566,0.77,-1.04,10.73,0.03,-0.01,0.07
3571,0.65,-1.30,11.30,0.03,-0.01,0.07
3576,-0.77,-1.23,10.34,0.03,-0.01,0.07
3582,-1.19,-0.92,10.00,0.03,-0.01,0.07
3586,-1.91,-0.88,9.12,0.03,-0.01,0.07
3592,-1.38,0.19,9.12,0.03,-0.01,0.07
3596,-1.38,0.19,9.12,0.04,-0.03,0.07
3601,0.23,-0.08,9.69,0.04,-0.03,0.07
3606,0.08,-0.08,9.58,0.04,-0.03,0.07
3611,0.19,0.15,9.54,0.04,-0.03,0.07
3617,-0.08,-0.57,9.69,0.04,-0.03,0.07
3621,-1.46,-0.54,8.62,0.04,-0.03,0.07
3627,-1.95,-0.27,8.16,0.04,-0.03,0.07
3631,-1.95,-0.27,8.16,-0.00,0.02,0.01
3636,-0.69,-0.04,9.31,-0.00,0.02,0.01
3642,-0.34,0.46,9.42,-0.00,0.02,0.01
3646,-0.34,0.46,9.42,0.00,-0.01,0.00
3652,-0.19,0.00,9.77,0.00,-0.01,0.00
3657,-0.54,0.42,9.58,0.00,-0.01,0.00
3661,-0.54,0.42,9.58,-0.01,0.03,-0.01
3666,-0.54,0.42,9.58,-0.01,0.00,-0.01
3671,-1.19,-0.38,9.23,-0.01,0.00,-0.01
3677,-0.80,-0.30,9.46,-0.01,0.00,-0.01
3681,-0.80,-0.30,9.46,-0.02,-0.02,-0.02
3687,-0.80,-0.30,9.46,-0.03,-0.02,-0.02
3692,0.19,-0.50,9.77,-0.03,-0.02,-0.02
3696,0.19,-0.50,9.77,-0.03,0.03,-0.04
3701,0.19,-0.50,9.77,-0.03,0.05,-0.04
3706,-0.50,-0.04,10.00,-0.03,0.05,-0.04
3712,-0.38,-0.30,9.46,-0.03,0.05,-0.04
3716,-0.38,-0.30,9.46,-0.01,0.00,-0.02
3721,-0.73,-0.84,10.15,-0.01,0.00,-0.02
3726,-0.69,-0.69,10.23,-0.01,0.00,-0.02
3732,-1.07,-0.69,9.58,-0.01,0.00,-0.02
3737,-1.07,-0.69,9.58,-0.02,-0.01,-0.04
3741,-0.57,-0.34,9.00,-0.02,-0.01,-0.04
3746,0.04,-0.50,8.74,-0.02,-0.01,-0.04
3752,-0.23,-0.42,9.08,-0.02,-0.01,-0.04
3756,0.30,-0.65,9.61,-0.02,-0.01,-0.04
3761,-0.23,-0.46,8.84,-0.02,-0.01,-0.04
3766,-0.27,-0.96,8.74,-0.02,-0.01,-0.04
3772,-0.65,-0.80,8.66,-0.02,-0.01,-0.04
3776,-1.23,-0.04,8.85,-0.02,-0.01,-0.04
3782,-0.73,-0.08,8.46,-0.02,-0.01,-0.04
3786,-0.73,-0.08,8.46,-0.02,-0.03,-0.01
3792,0.00,0.08,10.15,-0.02,-0.03,-0.01
3797,0.19,-0.61,10.27,-0.02,-0.03,-0.01
3801,0.19,-0.61,10.27,-0.02,0.00,-0.00
3807,0.19,-0.61,10.27,-0.02,0.01,0.00
3812,-0.11,-1.04,9.61,-0.02,0.01,0.00
3816,-0.11,-1.04,9.61,-0.01,-0.02,0.00
3821,-0.11,-1.04,9.61,-0.00,-0.02,-0.00
3826,-0.11,-1.04,9.61,0.01,-0.02,-0.01
3832,-0.23,-0.80,10.00,0.01,-0.02,-0.01
3836,-0.23,-0.80,10.00,0.02,-0.03,0.01
3841,1.42,-1.53,10.61,0.02,-0.03,0.01
3846,1.76,-1.68,11.15,0.02,-0.03,0.01
3852,1.04,-1.57,10.80,0.02,-0.03,0.01
3856,1.04,-1.57,10.80,0.04,0.04,0.03
3861,-0.61,-0.15,9.58,0.04,0.04,0.03
3867,-0.73,-0.08,9.27,0.04,0.04,0.03
3871,-0.73,-0.08,9.27,0.05,0.00,0.03
3877,-0.04,0.42,10.00,0.05,0.00,0.03
3882,-0.04,0.77,9.84,0.05,0.00,0.03
3886,-0.04,0.77,9.84,-0.01,0.00,-0.01
3891,-0.04,0.77,9.84,-0.01,0.00,-0.00
3896,0.19,0.11,9.04,-0.01,0.00,-0.00
3902,0.69,0.65,9.46,-0.01,0.00,-0.00
3906,0.69,0.65,9.46,-0.03,-0.03,-0.03
3912,0.77,0.19,9.65,-0.03,-0.03,-0.03
3917,0.88,0.00,10.00,-0.03,-0.03,-0.03
3921,0.88,0.00,10.00,-0.06,0.01,-0.07
3926,0.88,0.00,10.00,-0.06,0.02,-0.08
3931,0.04,-0.19,8.93,-0.06,0.02,-0.08
3937,-0.42,-0.15,9.00,-0.06,0.02,-0.08
3941,-0.42,-0.15,9.00,-0.04,-0.02,-0.08
3947,-0.42,-0.15,9.00,-0.04,-0.01,-0.08
3952,-0.19,-0.38,9.27,-0.04,-0.01,-0.08
3956,-0.19,-0.38,9.27,-0.06,-0.00,-0.10
3961,-0.19,-0.38,9.27,-0.06,0.00,-0.11
3966,-0.54,-0.15,9.27,-0.06,0.00,-0.11
3972,-0.27,0.04,9.35,-0.06,0.00,-0.11
3976,-0.27,0.04,9.35,-0.06,-0.00,-0.12
3981,-0.80,-0.08,8.93,-0.06,-0.00,-0.12
3987,-0.92,-0.42,8.70,-0.06,-0.00,-0.12
3991,-0.92,-0.42,8.70,-0.06,-0.02,-0.13
3997,-0.92,-0.42,8.70,-0.05,-0.04,-0.12
4002,0.61,-0.11,9.35,-0.05,-0.04,-0.12
4006,0.61,-0.11,9.35,-0.05,-0.02,-0.13
4011,0.61,-0.11,9.35,-0.06,0.01,-0.14
4016,-0.27,-0.04,9.85,-0.06,0.01,-0.14
4022,-0.30,-0.46,9.81,-0.06,0.01,-0.14
4026,-0.30,-0.46,9.81,-0.04,0.01,-0.12
4032,-0.34,-0.23,9.77,-0.04,0.01,-0.12
4037,-0.65,-0.46,9.69,-0.04,0.01,-0.12
4041,-0.65,-0.46,9.69,-0.04,0.02,-0.12
4046,-0.65,-0.46,9.69,-0.04,0.02,-0.13
4051,-1.27,-0.04,9.34,-0.04,0.02,-0.13
4057,-1.46,-0.11,8.62,-0.04,0.02,-0.13
4061,-1.46,-0.11,8.62,-0.04,0.01,-0.11
4067,-1.46,-0.11,8.62,-0.04,-0.02,-0.11
4072,-0.77,0.08,7.70,-0.04,-0.02,-0.11
4076,-0.77,0.08,7.70,-0.05,-0.06,-0.13
4081,-0.77,0.08,7.70,-0.05,-0.05,-0.13
4086,-0.77,0.08,7.70,-0.06,-0.02,-0.13
4092,0.80,-0.30,10.95,-0.06,-0.02,-0.13
4096,0.80,-0.30,10.95,-0.05,-0.03,-0.13
4101,0.92,-1.27,11.61,-0.05,-0.03,-0.13
4106,0.77,-1.15,12.26,-0.05,-0.03,-0.13
4112,-0.57,-1.38,10.96,-0.05,-0.03,-0.13
4117,-0.57,-1.38,10.96,-0.01,0.06,-0.11
4121,-1.15,-0.77,9.46,-0.01,0.06,-0.11
4127,-1.23,-0.54,9.39,-0.01,0.06,-0.11
4131,-1.23,-0.54,9.39,0.01,-0.03,-0.10
4137,0.00,-0.73,9.65,0.01,-0.03,-0.10
4142,-0.23,-0.54,9.34,0.01,-0.03,-0.10
4146,-0.23,-0.54,9.34,-0.01,-0.01,-0.12
4152,-0.23,-0.54,9.34,-0.01,0.00,-0.12
4158,-1.30,-0.77,8.78,-0.01,0.00,-0.12
4161,-1.30,-0.77,8.78,-0.02,-0.01,-0.13
4166,-1.30,-0.77,8.78,-0.02,-0.03,-0.14
4172,0.04,-0.65,9.54,-0.02,-0.03,-0.14
4177,-0.19,-0.19,9.39,-0.02,-0.03,-0.14
4181,-0.19,-0.19,9.39,-0.01,-0.02,-0.14
4187,-0.19,-0.19,9.39,-0.02,0.01,-0.13
4192,-0.04,-0.46,9.42,-0.02,0.01,-0.13
4196,-0.04,-0.46,9.42,-0.01,-0.02,-0.13
4201,-0.04,-0.46,9.42,-0.02,-0.01,-0.13
4207,-0.04,-0.46,9.42,-0.00,-0.02,-0.12
4212,0.38,-0.96,9.80,-0.00,-0.02,-0.12
4216,0.38,-0.96,9.80,0.01,-0.03,-0.10
4221,-0.15,-0.80,9.54,0.01,-0.03,-0.10
4226,0.15,-0.61,9.16,0.01,-0.03,-0.10
4232,-0.04,-0.88,9.42,0.01,-0.03,-0.10
4237,-0.04,-0.88,9.42,0.01,0.01,-0.12
4242,-1.00,-0.11,9.39,0.01,0.01,-0.12
4247,-0.88,0.04,9.46,0.01,0.01,-0.12
4251,-0.88,0.04,9.46,0.00,0.01,-0.12
4257,-1.27,-0.69,9.42,0.00,0.01,-0.12
4262,-0.57,-0.92,10.07,0.00,0.01,-0.12
4267,-0.57,-0.92,10.07,-0.01,-0.02,-0.12
4271,-0.57,-0.92,10.07,0.00,-0.01,-0.12
4277,-0.27,-0.46,9.42,0.00,-0.01,-0.12
4282,0.27,-0.54,10.23,0.00,-0.01,-0.12
4287,0.27,-0.54,10.23,0.02,0.00,-0.08
4291,0.27,-0.54,10.23,0.03,0.02,-0.07
4296,0.00,-1.61,10.11,0.03,0.02,-0.07
4302,-0.77,-1.95,9.73,0.03,0.02,-0.07
4307,-0.77,-1.95,9.73,0.07,0.07,-0.04
4312,-1.11,-0.92,8.93,0.07,0.07,-0.04
4317,-1.11,-0.84,8.66,0.07,0.07,-0.04
4321,-1.11,-0.84,8.66,0.08,0.00,-0.01
4327,-1.11,-0.84,8.66,0.07,0.02,-0.01
4332,-0.80,-0.38,9.84,0.07,0.02,-0.01
4337,-0.80,-0.38,9.84,0.05,0.01,-0.00
4341,-0.80,-0.38,9.84,0.06,-0.02,0.01
4347,-0.80,-0.38,9.84,0.06,-0.01,0.02
4352,-0.69,-1.65,8.62,0.06,-0.01,0.02
4357,-0.69,-1.65,8.62,0.06,0.02,0.03
4362,-0.69,-1.65,8.62,0.06,0.00,0.04
4367,-1.27,-1.27,9.39,0.06,0.00,0.04
4372,-1.27,-1.27,9.39,0.06,-0.01,0.05
4377,-1.27,-1.27,9.39,0.07,-0.02,0.06
4383,1.68,-2.07,11.54,0.07,-0.02,0.06
4387,1.68,-2.07,11.54,0.09,-0.01,0.09
4393,1.68,-2.07,11.54,0.10,0.03,0.10
4398,0.15,-1.95,10.77,0.10,0.03,0.10
4401,0.15,-1.95,10.77,0.12,0.07,0.15
4406,0.15,-1.95,10.77,0.14,0.06,0.16
4412,0.15,-1.95,10.77,0.14,0.02,0.16
4417,-0.15,-0.69,9.65,0.14,0.02,0.16
4421,-0.15,-0.69,9.65,0.13,-0.02,0.17
4426,-0.15,-0.69,9.65,0.12,-0.00,0.17
4432,-0.38,-0.46,9.35,0.12,-0.00,0.17
4437,-1.07,0.08,8.46,0.12,-0.00,0.17
4441,-1.07,0.08,8.46,0.09,0.01,0.16
4447,-1.07,0.08,8.46,0.07,-0.04,0.14
4452,0.61,-0.73,10.23,0.07,-0.04,0.14
4457,0.61,-0.73,10.23,0.05,-0.03,0.12
4461,0.61,-0.73,10.23,0.05,0.03,0.12
4467,0.61,-0.73,10.23,0.05,0.04,0.13
4472,0.15,-0.96,8.58,0.05,0.04,0.13
4477,0.15,-0.96,8.58,0.06,-0.02,0.12
4482,0.15,-0.96,8.58,0.05,-0.01,0.12
4487,-0.19,-0.84,9.43,0.05,-0.01,0.12
4492,-0.19,-0.84,9.43,0.06,0.01,0.12
4497,-0.19,-0.84,9.43,0.07,-0.01,0.12
4503,0.23,-0.92,10.15,0.07,-0.01,0.12
4507,0.23,-0.92,10.15,0.05,0.02,0.11
4512,0.23,-0.92,10.15,0.05,0.03,0.10
4517,-0.61,-0.61,8.39,0.05,0.03,0.10
4522,-0.77,-0.46,8.84,0.05,0.03,0.10
4527,-0.77,-0.46,8.84,0.05,-0.03,0.08
4532,-0.77,-0.46,8.84,0.04,-0.02,0.06
4538,0.19,-0.34,9.27,0.04,-0.02,0.06
4541,0.19,-0.34,9.27,0.02,0.01,0.03
4547,0.19,-0.34,9.27,0.03,0.01,0.03
4552,-0.88,-0.23,8.84,0.03,0.01,0.03
4557,-0.57,-0.30,9.46,0.03,0.01,0.03
4562,-0.57,-0.30,9.46,0.03,0.03,0.01
4567,-0.57,-0.30,9.46,0.03,0.02,0.01
4573,-1.23,-0.38,9.12,0.03,0.02,0.01
4577,-1.23,-0.38,9.12,0.02,-0.02,-0.02
4581,-1.23,-0.38,9.12,0.02,-0.03,-0.03
4587,-1.23,-0.38,9.12,0.02,-0.02,-0.03
4593,-0.69,-0.08,8.88,0.02,-0.02,-0.03
4596,-0.69,-0.08,8.88,0.02,-0.01,-0.03
4601,-0.69,-0.08,8.88,0.02,-0.03,-0.03
4606,-0.69,-0.08,8.88,0.01,-0.05,-0.04
4612,0.19,-0.11,8.23,0.01,-0.05,-0.04
4617,0.19,-0.11,8.23,0.00,-0.06,-0.05
4622,0.19,-0.11,8.23,-0.01,-0.03,-0.05
4628,0.46,0.11,10.27,-0.01,-0.03,-0.05
4631,0.46,0.11,10.27,-0.01,-0.00,-0.06
4637,0.46,0.11,10.27,-0.02,0.00,-0.07
4642,0.46,-1.19,11.68,-0.02,0.00,-0.07
4647,0.46,-1.19,11.68,0.01,0.01,-0.05
4652,0.46,-1.19,11.68,0.02,0.02,-0.02
4658,-1.34,-0.46,9.04,0.02,0.02,-0.02
4661,-1.34,-0.46,9.04,0.04,0.00,-0.02
4668,-1.34,-0.46,9.04,0.04,-0.03,-0.01
4673,-1.34,-0.46,9.04,0.03,-0.04,-0.02
4677,-1.34,-0.46,9.04,0.01,-0.03,-0.01
4682,-1.34,-0.46,9.04,0.01,-0.01,-0.00
4687,-1.34,-0.46,9.04,0.01,0.01,0.00
4693,-0.54,-1.07,9.20,0.01,0.01,0.00
4697,-0.54,-1.07,9.20,0.02,-0.04,0.02
4701,-0.54,-1.07,9.20,0.02,-0.04,0.02
4707,-0.54,-1.07,9.20,0.03,-0.03,0.03
4713,-0.65,-0.73,9.39,0.03,-0.03,0.03
4716,-0.65,-0.73,9.39,0.03,-0.02,0.04
4722,-0.65,-0.73,9.39,0.03,-0.04,0.04
4728,-0.65,-0.73,9.39,0.04,-0.04,0.06
4732,-0.65,-0.73,9.39,0.04,-0.04,0.07
4737,-0.65,-0.73,9.39,0.05,-0.01,0.08
4742,-1.00,-1.30,9.23,0.05,-0.01,0.08
4748,-1.11,-0.88,9.31,0.05,-0.01,0.08
4751,-1.11,-0.88,9.31,0.06,-0.05,0.12
4757,-1.11,-0.88,9.31,0.06,-0.06,0.12
4762,0.54,-1.27,9.65,0.06,-0.06,0.12
4767,0.54,-1.27,9.65,0.06,-0.02,0.13
4772,0.54,-1.27,9.65,0.06,0.00,0.14
4777,-1.11,-0.96,9.54,0.06,0.00,0.14
4782,-1.11,-0.65,9.61,0.06,0.00,0.14
4787,-1.11,-0.65,9.61,0.07,-0.02,0.16
4792,-1.11,-0.65,9.61,0.06,-0.04,0.16
4797,-0.69,-0.61,10.27,0.06,-0.04,0.16
4801,-0.69,-0.61,10.27,0.04,-0.02,0.13
4806,-0.69,-0.61,10.27,0.04,-0.00,0.12
4812,-1.00,-1.07,9.16,0.04,-0.00,0.12
4818,-0.27,-0.19,9.73,0.04,-0.00,0.12
4821,-0.27,-0.19,9.73,0.05,-0.00,0.14
4827,-0.27,-0.19,9.73,0.06,0.00,0.14
4832,-0.30,-0.46,9.81,0.06,0.00,0.14
4837,-0.30,-0.46,9.81,0.04,0.06,0.13
4842,-0.30,-0.46,9.81,0.03,0.07,0.12
4848,-0.30,-0.46,9.81,0.04,0.06,0.12
4852,-0.30,-0.46,9.81,0.05,0.03,0.13
4857,-0.30,-0.46,9.81,0.05,0.01,0.13
4862,-1.57,0.88,8.42,0.05,0.01,0.13
4867,-1.34,0.50,9.27,0.05,0.01,0.13
4872,-1.34,0.50,9.27,0.01,0.02,0.10
4877,-1.34,0.50,9.27,0.00,0.02,0.10
4881,-0.96,-0.30,8.62,0.00,0.02,0.10
4888,-0.54,-0.50,8.46,0.00,0.02,0.10
4892,-0.54,-0.50,8.46,0.00,-0.02,0.08
4897,-1.30,-0.69,8.12,0.00,-0.02,0.08
4902,-1.38,-0.11,8.66,0.00,-0.02,0.08
4907,-1.38,-0.11,8.66,-0.02,0.01,0.06
4912,-1.38,-0.11,8.66,-0.01,-0.02,0.06
4917,1.38,-0.84,10.80,-0.01,-0.02,0.06
4921,1.38,-0.84,10.80,-0.01,-0.03,0.06
4927,1.38,-0.84,10.80,-0.01,0.00,0.06
4832,-0.30,-0.46,9.81,0.06,0.00,0.14
4837,-0.30,-0.46,9.81,0.04,0.06,0.13
4842,-0.30,-0.46,9.81,0.03,0.07,0.12
4848,-0.30,-0.46,9.81,0.04,0.06,0.12
4852,-0.30,-0.46,9.81,0.05,0.03,0.13
4857,-0.30,-0.46,9.81,0.05,0.01,0.13
4862,-1.57,0.88,8.42,0.05,0.01,0.13
4867,-1.34,0.50,9.27,0.05,0.01,0.13
4872,-1.34,0.50,9.27,0.01,0.02,0.10
4877,-1.34,0.50,9.27,0.00,0.02,0.10
4881,-0.96,-0.30,8.62,0.00,0.02,0.10
4888,-0.54,-0.50,8.46,0.00,0.02,0.10
4892,-0.54,-0.50,8.46,0.00,-0.02,0.08
4897,-1.30,-0.69,8.12,0.00,-0.02,0.08
