timestamp,accX,accY,accZ,gyroX,gyroY,gyroZ
Break
7,-1.68,0.19,9.54,0.03,-0.06,0.19
18,-0.84,-0.61,9.73,0.03,-0.06,0.19
20,1.27,0.69,10.07,0.03,-0.06,0.19
21,1.27,0.69,10.07,-0.04,0.01,-0.22
25,1.99,-0.38,10.73,-0.04,0.01,-0.22
30,1.99,-0.38,10.73,-0.02,0.03,-0.22
35,0.19,-0.80,10.61,-0.02,0.03,-0.22
40,-0.92,-0.61,9.73,-0.02,0.03,-0.22
47,-1.72,-1.00,9.89,-0.02,0.03,-0.22
51,-1.42,-0.38,9.85,-0.02,0.03,-0.22
55,-0.88,-0.77,9.77,-0.02,0.03,-0.22
60,-1.00,-0.19,9.00,-0.02,0.03,-0.22
67,-1.00,0.00,8.24,-0.02,0.03,-0.22
70,-0.77,0.15,7.62,-0.02,0.03,-0.22
77,-0.92,-0.08,6.55,-0.02,0.03,-0.22
81,-0.92,-0.08,6.55,-0.04,0.00,-0.22
85,-0.88,-1.07,8.04,-0.04,0.00,-0.22
90,-0.23,-1.11,9.08,-0.04,0.00,-0.22
96,0.27,-1.04,10.11,-0.04,0.00,-0.22
102,0.27,-1.04,10.11,0.01,-0.02,-0.21
107,1.07,-3.87,12.45,0.01,-0.02,-0.21
110,1.07,-3.87,12.45,0.11,0.01,-0.13
115,1.07,-3.87,12.45,0.12,0.05,-0.20
120,1.07,-3.87,12.45,0.10,0.10,-0.18
126,0.30,0.80,9.00,0.10,0.10,-0.18
132,-1.72,1.84,9.16,0.10,0.10,-0.18
136,-2.30,0.08,9.23,0.10,0.10,-0.18
141,-1.76,0.00,9.04,0.10,0.10,-0.18
147,-1.99,0.57,9.20,0.10,0.10,-0.18
151,-1.99,0.57,9.20,0.00,-0.01,-0.10
156,-0.88,-0.57,10.07,0.00,-0.01,-0.10
162,-0.69,0.57,9.96,0.00,-0.01,-0.10
165,-0.69,0.57,9.96,0.07,-0.00,0.00
171,-0.73,1.49,9.77,0.07,-0.00,0.00
177,-1.23,0.69,8.77,0.07,-0.00,0.00
181,-1.23,0.69,8.77,0.05,0.01,0.02
185,-1.23,0.69,8.77,0.06,-0.03,0.04
191,-1.04,-0.80,9.46,0.06,-0.03,0.04
197,-2.64,0.11,8.43,0.06,-0.03,0.04
201,-2.64,0.11,8.43,0.07,0.05,0.01
206,-1.11,-0.30,9.04,0.07,0.05,0.01
212,-0.84,-0.77,9.61,0.07,0.05,0.01
215,-0.84,-0.77,9.61,0.05,-0.06,-0.08
220,-0.84,-0.77,9.61,0.07,-0.02,-0.09
226,-0.77,-0.27,9.73,0.07,-0.02,-0.09
232,-1.27,0.04,9.81,0.07,-0.02,-0.09
235,-1.27,0.04,9.81,0.04,0.04,-0.10
241,-1.27,0.04,9.81,0.02,-0.01,-0.11
247,-0.57,-0.57,10.11,0.02,-0.01,-0.11
251,-0.57,-0.57,10.11,-0.00,0.03,-0.07
256,-0.57,-0.57,10.11,-0.00,0.05,-0.03
260,-2.30,-1.34,10.15,-0.00,0.05,-0.03
267,-1.42,-1.68,11.07,-0.00,0.05,-0.03
270,-1.42,-1.68,11.07,0.08,0.01,0.11
276,-1.80,-0.92,9.65,0.08,0.01,0.11
282,-1.61,-2.22,9.77,0.08,0.01,0.11
285,-1.61,-2.22,9.77,0.15,-0.00,0.20
291,-1.61,-2.22,9.77,0.16,-0.00,0.22
296,-1.72,-0.38,8.81,0.16,-0.00,0.22
301,-1.72,-0.38,8.81,0.14,-0.02,0.21
305,-1.72,-0.38,8.81,0.12,-0.01,0.20
311,-0.80,0.08,8.84,0.12,-0.01,0.20
316,0.08,-0.04,8.92,0.12,-0.01,0.20
321,0.08,-0.04,8.92,0.08,-0.02,0.15
326,0.08,-0.04,8.92,0.05,0.02,0.13
332,-2.61,0.88,7.55,0.05,0.02,0.13
336,-2.61,0.88,7.55,0.00,0.03,0.09
340,-2.61,0.88,7.55,-0.00,-0.03,0.07
346,-0.88,0.08,9.96,-0.00,-0.03,0.07
352,0.69,0.15,11.92,-0.00,-0.03,0.07
355,0.69,0.15,11.92,-0.00,0.04,0.06
361,0.69,0.15,11.92,0.01,0.04,0.08
367,-1.42,-0.08,9.96,0.01,0.04,0.08
370,-1.42,-0.08,9.96,0.03,0.01,0.10
376,-1.42,-0.08,9.96,0.04,-0.00,0.10
381,-1.42,-0.08,9.96,0.03,-0.01,0.10
387,-0.46,-0.34,9.04,0.03,-0.01,0.10
391,-0.46,-0.34,9.04,0.00,0.00,0.11
395,0.30,0.23,9.85,0.00,0.00,0.11
401,0.42,-0.04,9.81,0.00,0.00,0.11
407,-0.38,0.73,10.15,0.00,0.00,0.11
411,-0.38,0.73,10.15,-0.05,0.05,0.04
415,-1.84,-0.50,10.39,-0.05,0.05,0.04
420,-1.04,-1.04,9.35,-0.05,0.05,0.04
427,0.42,-1.23,9.34,-0.05,0.05,0.04
431,0.61,-1.15,9.08,-0.05,0.05,0.04
437,0.69,-0.46,9.43,-0.05,0.05,0.04
440,0.69,-0.46,9.43,-0.02,0.07,0.00
445,0.69,-0.46,9.43,-0.03,0.06,-0.02
451,0.77,0.00,8.66,-0.03,0.06,-0.02
457,1.07,-0.27,8.43,-0.03,0.06,-0.02
460,1.07,-0.27,8.43,-0.05,-0.01,-0.05
466,-0.57,-1.15,9.12,-0.05,-0.01,-0.05
472,-1.04,-0.23,8.88,-0.05,-0.01,-0.05
476,-1.04,-0.23,8.88,-0.05,0.00,-0.09
481,-1.04,-0.23,8.88,-0.05,-0.06,-0.08
487,2.07,0.30,10.77,-0.05,-0.06,-0.08
491,2.07,0.30,10.77,-0.05,-0.05,-0.05
495,2.07,0.30,10.77,-0.04,-0.03,-0.05
501,2.07,0.30,10.77,-0.04,0.01,-0.04
507,0.34,-0.80,10.92,-0.04,0.01,-0.04
510,0.34,-0.80,10.92,-0.02,0.04,-0.01
516,0.00,-1.61,9.88,-0.02,0.04,-0.01
520,0.73,-1.23,9.89,-0.02,0.04,-0.01
527,0.80,-0.80,9.96,-0.02,0.04,-0.01
531,0.80,-0.80,9.96,-0.02,0.01,0.02
536,0.80,-0.80,9.96,-0.02,0.02,0.02
542,-0.96,-0.08,7.86,-0.02,0.02,0.02
545,-0.96,-0.08,7.86,-0.04,-0.02,0.05
551,-1.27,-0.19,8.31,-0.04,-0.02,0.05
557,0.19,-0.30,9.12,-0.04,-0.02,0.05
560,0.19,-0.30,9.12,-0.04,-0.08,0.09
566,0.19,-0.30,9.12,-0.03,-0.08,0.13
571,2.64,-1.38,11.92,-0.03,-0.08,0.13
577,1.42,-1.84,10.95,-0.03,-0.08,0.13
581,1.42,-1.84,10.95,0.04,0.03,0.22
586,1.42,-1.84,10.95,0.06,0.01,0.25
592,-0.15,-0.80,10.23,0.06,0.01,0.25
595,-0.15,-0.80,10.23,0.07,0.01,0.28
601,-0.15,-0.80,10.23,0.05,0.03,0.28
607,-1.49,-0.88,9.61,0.05,0.03,0.28
610,-1.49,-0.88,9.61,0.01,-0.03,0.26
615,-1.49,-0.88,9.61,-0.02,-0.07,0.26
621,-1.49,-0.88,9.61,-0.02,-0.05,0.26
627,-0.80,-0.61,8.32,-0.02,-0.05,0.26
631,-0.80,-0.61,8.32,-0.03,-0.02,0.24
636,-0.80,-0.61,8.32,-0.02,-0.03,0.24
641,-0.80,-0.61,8.32,-0.02,-0.02,0.23
647,-0.73,-0.08,9.65,-0.02,-0.02,0.23
652,-0.73,-0.08,9.65,-0.02,-0.07,0.24
656,-0.73,-0.08,9.65,-0.02,-0.08,0.25
662,1.27,-0.65,9.81,-0.02,-0.08,0.25
666,1.27,-0.65,9.81,-0.01,-0.03,0.25
671,1.27,-0.65,9.81,0.01,0.01,0.24
677,-0.50,0.08,8.78,0.01,0.01,0.24
681,-0.50,0.08,8.78,-0.02,-0.02,0.21
685,-0.50,0.08,8.78,-0.05,-0.02,0.18
691,-0.34,-0.15,9.92,-0.05,-0.02,0.18
697,-0.15,0.08,10.11,-0.05,-0.02,0.18
701,-0.15,0.08,10.11,-0.11,0.00,0.11
706,-0.15,0.08,10.11,-0.12,-0.00,0.10
712,0.50,0.34,9.42,-0.12,-0.00,0.10
715,0.50,0.34,9.42,-0.16,0.02,0.05
722,0.50,0.34,9.42,-0.17,0.03,0.04
727,0.50,0.23,9.73,-0.17,0.03,0.04
731,0.50,0.23,9.73,-0.15,0.07,0.03
736,0.50,0.23,9.73,-0.15,0.09,0.01
741,0.50,0.23,9.73,-0.15,0.09,0.02
747,0.08,0.38,10.57,-0.15,0.09,0.02
751,0.08,0.38,10.57,-0.16,0.03,0.00
755,0.08,0.38,10.57,-0.16,0.04,-0.01
761,0.08,0.38,10.57,-0.16,0.06,-0.02
767,-1.27,1.19,7.97,-0.16,0.06,-0.02
771,-1.27,1.19,7.97,-0.17,0.01,-0.04
776,-1.27,1.19,7.97,-0.18,-0.01,-0.06
782,-1.27,1.19,7.97,-0.21,0.00,-0.07
786,-1.27,1.19,7.97,-0.22,0.03,-0.09
791,-1.27,1.19,7.97,-0.23,0.03,-0.10
796,-0.15,0.04,8.54,-0.23,0.03,-0.10
802,-1.19,0.69,7.97,-0.23,0.03,-0.10
806,-1.19,0.69,7.97,-0.24,0.03,-0.16
811,-1.19,0.69,7.97,-0.25,0.03,-0.21
817,-0.11,-0.77,9.65,-0.25,0.03,-0.21
821,-0.11,-0.77,9.65,-0.26,-0.03,-0.26
827,-0.11,-0.77,9.65,-0.26,-0.02,-0.27
832,1.95,-0.73,12.45,-0.26,-0.02,-0.27
836,1.95,-0.73,12.45,-0.25,0.08,-0.30
841,1.95,-0.73,12.45,-0.24,0.08,-0.32
846,-0.84,1.04,9.00,-0.24,0.08,-0.32
853,0.04,0.61,8.74,-0.24,0.08,-0.32
855,0.04,0.61,8.74,-0.25,0.03,-0.39
861,0.04,0.61,8.74,-0.26,0.05,-0.40
867,0.61,-0.34,8.78,-0.26,0.05,-0.40
871,0.61,-0.34,8.78,-0.26,0.05,-0.43
876,0.61,-0.34,8.78,-0.26,0.04,-0.44
881,0.61,-0.34,8.78,-0.27,0.05,-0.45
887,0.96,1.38,9.89,-0.27,0.05,-0.45
890,0.96,1.38,9.89,-0.30,0.07,-0.49
896,0.96,1.38,9.89,-0.32,0.06,-0.51
901,0.96,1.38,9.89,-0.33,0.07,-0.53
907,0.88,0.80,9.84,-0.33,0.07,-0.53
911,0.88,0.80,9.84,-0.33,0.01,-0.51
916,0.88,0.80,9.84,-0.31,-0.01,-0.49
922,2.14,0.34,9.93,-0.31,-0.01,-0.49
926,2.14,0.34,9.93,-0.29,0.07,-0.46
931,2.14,0.34,9.93,-0.29,0.06,-0.46
937,2.41,0.57,10.11,-0.29,0.06,-0.46
941,2.41,0.57,10.11,-0.29,0.05,-0.46
946,2.41,0.57,10.11,-0.29,0.08,-0.46
951,1.53,-0.88,9.38,-0.29,0.08,-0.46
957,1.34,-0.15,9.42,-0.29,0.08,-0.46
961,1.34,-0.15,9.42,-0.25,0.04,-0.44
966,1.34,-0.15,9.42,-0.24,0.04,-0.43
972,1.04,0.38,9.85,-0.24,0.04,-0.43
977,1.04,0.38,9.85,-0.25,0.04,-0.45
981,1.04,0.38,9.85,-0.25,0.01,-0.45
986,1.04,0.38,9.85,-0.25,-0.00,-0.45
992,1.99,-0.50,10.50,-0.25,-0.00,-0.45
996,1.99,-0.50,10.50,-0.23,0.03,-0.42
1001,1.99,-0.50,10.50,-0.22,0.03,-0.40
1007,1.84,-1.68,10.04,-0.22,0.03,-0.40
1011,1.84,-1.68,10.04,-0.22,0.00,-0.40
1015,1.84,-1.68,10.04,-0.20,0.00,-0.40
1020,1.84,-1.68,10.04,-0.20,0.00,-0.40
1025,2.76,-1.99,8.01,-0.20,0.00,-0.40
1031,2.76,-1.99,8.01,-0.19,-0.01,-0.39
1037,2.76,-1.99,8.01,-0.17,-0.02,-0.40
1042,1.76,-3.83,7.81,-0.17,-0.02,-0.40
1046,1.76,-3.83,7.81,-0.14,0.02,-0.42
1051,1.76,-3.83,7.81,-0.12,0.01,-0.42
1057,2.99,-3.71,11.19,-0.12,0.01,-0.42
1061,2.99,-3.71,11.19,-0.12,-0.00,-0.39
1066,2.99,-3.71,11.19,-0.11,0.01,-0.39
1071,4.90,-3.45,13.71,-0.11,0.01,-0.39
1077,3.33,-4.29,11.68,-0.11,0.01,-0.39
1081,3.33,-4.29,11.68,-0.08,0.03,-0.34
1086,3.33,-4.29,11.68,-0.06,0.06,-0.32
1092,3.18,-3.87,10.39,-0.06,0.06,-0.32
1095,3.18,-3.87,10.39,0.00,0.07,-0.25
1101,3.18,-3.87,10.39,0.02,0.07,-0.23
1106,1.00,-2.91,9.58,0.02,0.07,-0.23
1112,0.27,-2.41,9.16,0.02,0.07,-0.23
1116,0.27,-2.41,9.16,0.05,0.03,-0.18
1121,0.27,-2.41,9.16,0.06,-0.01,-0.16
1127,1.07,-1.68,9.39,0.06,-0.01,-0.16
1131,1.07,-1.68,9.39,0.04,-0.01,-0.13
1136,1.07,-1.68,9.39,0.04,0.01,-0.12
1142,1.07,-1.68,9.39,0.04,0.00,-0.11
1146,1.07,-1.68,9.39,0.04,0.00,-0.09
1151,1.07,-1.68,9.39,0.05,-0.01,-0.07
1156,1.07,-1.68,9.39,0.06,-0.00,-0.04
1162,0.15,0.77,10.23,0.06,-0.00,-0.04
1166,0.15,0.77,10.23,0.06,0.01,-0.02
1171,0.15,0.77,10.23,0.07,0.00,-0.03
1176,1.80,0.57,10.00,0.07,0.00,-0.03
1182,2.11,1.38,9.39,0.07,0.00,-0.03
1185,2.11,1.38,9.39,0.04,-0.02,-0.06
1191,2.11,1.38,9.39,0.03,0.03,-0.10
1197,1.57,1.04,9.35,0.03,0.03,-0.10
1201,1.57,1.04,9.35,-0.00,0.07,-0.17
1206,1.57,1.04,9.35,-0.03,0.05,-0.21
1212,0.19,1.07,9.50,-0.03,0.05,-0.21
1215,0.19,1.07,9.50,-0.08,0.02,-0.32
1221,0.19,1.07,9.50,-0.10,0.02,-0.37
1226,0.19,1.07,9.50,-0.12,0.01,-0.41
1232,1.07,0.11,8.82,-0.12,0.01,-0.41
1236,1.07,0.11,8.82,-0.14,-0.01,-0.50
1241,1.07,0.11,8.82,-0.14,-0.01,-0.53
1247,2.38,-1.84,10.34,-0.14,-0.01,-0.53
1251,2.38,-1.84,10.34,-0.13,0.05,-0.59
1256,2.38,-1.84,10.34,-0.10,0.08,-0.61
1261,2.38,-1.84,10.34,-0.11,0.11,-0.63
1267,1.76,-1.04,12.14,-0.11,0.11,-0.63
1271,1.76,-1.04,12.14,-0.11,0.08,-0.68
1276,1.76,-1.04,12.14,-0.11,0.10,-0.70
1282,1.76,-1.04,12.14,-0.11,0.13,-0.73
1286,1.76,-1.04,12.14,-0.12,0.15,-0.75
1291,1.76,-1.04,12.14,-0.13,0.14,-0.77
1296,0.04,-1.15,8.08,-0.13,0.14,-0.77
1302,0.11,-1.19,8.35,-0.13,0.14,-0.77
1306,0.11,-1.19,8.35,-0.10,0.11,-0.77
1311,0.11,-1.19,8.35,-0.10,0.11,-0.76
1317,0.08,-0.57,8.12,-0.10,0.11,-0.76
1321,0.08,-0.57,8.12,-0.07,0.06,-0.74
1327,0.08,-0.57,8.12,-0.06,0.08,-0.73
1331,-0.84,-0.96,9.50,-0.06,0.08,-0.73
1337,-0.08,-0.30,9.77,-0.06,0.08,-0.73
1341,-0.08,-0.30,9.77,0.00,0.04,-0.65
1346,-0.08,-0.30,9.77,0.01,0.03,-0.62
1352,0.23,-1.00,10.07,0.01,0.03,-0.62
1356,0.23,-1.00,10.07,0.02,0.04,-0.61
1361,0.23,-1.00,10.07,0.01,0.02,-0.60
1367,2.61,-0.84,9.61,0.01,0.02,-0.60
1371,2.61,-0.84,9.61,0.03,0.09,-0.57
1376,2.61,-0.84,9.61,0.04,0.13,-0.55
1381,2.61,-0.84,9.61,0.06,0.13,-0.52
1387,0.46,-0.69,10.50,0.06,0.13,-0.52
1391,0.46,-0.69,10.50,0.08,0.07,-0.46
1396,0.46,-0.69,10.50,0.09,0.06,-0.44
1402,0.46,-0.69,10.50,0.09,0.07,-0.41
1406,0.46,-0.69,10.50,0.10,0.07,-0.39
1411,0.46,-0.69,10.50,0.11,0.05,-0.38
1416,0.46,-0.69,10.50,0.11,0.03,-0.37
1422,1.30,-1.07,9.42,0.11,0.03,-0.37
1426,1.30,-1.07,9.42,0.12,0.02,-0.33
1431,1.30,-1.07,9.42,0.12,0.03,-0.33
1437,1.30,-1.07,9.42,0.12,0.04,-0.33
1441,1.30,-1.07,9.42,0.12,0.05,-0.35
1446,1.30,-1.07,9.42,0.12,0.06,-0.36
1451,1.30,-1.07,9.42,0.13,0.06,-0.36
1456,0.27,-1.46,8.85,0.13,0.06,-0.36
1461,0.27,-1.46,8.85,0.13,0.09,-0.37
1466,0.27,-1.46,8.85,0.14,0.09,-0.37
1471,0.27,-1.46,8.85,0.13,0.08,-0.37
1476,0.27,-1.46,8.85,0.13,0.09,-0.39
1480,0.27,-1.46,8.85,0.13,0.11,-0.40
1485,0.27,-1.46,8.85,0.12,0.10,-0.43
1491,-0.42,-1.11,10.57,0.12,0.10,-0.43
1497,-0.42,-1.11,10.57,0.11,0.08,-0.44
1501,-0.42,-1.11,10.57,0.11,0.06,-0.43
1507,0.19,-1.49,9.69,0.11,0.06,-0.43
1511,0.19,-1.49,9.69,0.10,0.05,-0.44
1516,0.19,-1.49,9.69,0.12,0.03,-0.43
1522,0.19,-1.49,9.69,0.14,0.01,-0.42
1526,0.19,-1.49,9.69,0.18,0.00,-0.38
1531,0.19,-1.49,9.69,0.21,0.02,-0.34
1536,0.19,-1.49,9.69,0.22,0.05,-0.31
1542,0.19,-1.49,9.69,0.24,0.05,-0.30
1546,0.19,-1.49,9.69,0.25,0.05,-0.27
1551,0.19,-1.49,9.69,0.26,0.06,-0.26
1557,0.19,-1.49,9.69,0.27,0.04,-0.25
1561,0.19,-1.49,9.69,0.27,0.01,-0.22
1566,0.19,-1.49,9.69,0.28,-0.02,-0.20
1571,0.19,-1.49,9.69,0.28,-0.01,-0.19
1577,0.57,-1.53,10.23,0.28,-0.01,-0.19
1581,0.57,-1.53,10.23,0.28,0.06,-0.19
1586,0.57,-1.53,10.23,0.28,0.05,-0.19
1591,0.57,-1.53,10.23,0.28,0.04,-0.19
1596,0.57,-1.53,10.23,0.29,0.05,-0.17
1601,0.57,-1.53,10.23,0.29,0.07,-0.14
1606,0.57,-1.53,10.23,0.31,0.06,-0.11
1612,0.00,-1.80,9.58,0.31,0.06,-0.11
1616,0.00,-1.80,9.58,0.32,-0.04,-0.02
1621,0.00,-1.80,9.58,0.31,-0.03,0.02
1626,0.00,-1.80,9.58,0.32,0.00,0.05
1631,0.00,-1.80,9.58,0.32,0.00,0.12
1636,0.00,-1.80,9.58,0.34,-0.03,0.18
1641,0.00,-1.80,9.58,0.37,-0.04,0.26
1647,0.27,-0.96,9.80,0.37,-0.04,0.26
1651,0.27,-0.96,9.80,0.39,0.02,0.40
1656,0.27,-0.96,9.80,0.40,-0.01,0.46
1662,0.27,-0.96,9.80,0.41,-0.08,0.53
1666,0.27,-0.96,9.80,0.42,-0.12,0.61
1671,0.27,-0.96,9.80,0.44,-0.11,0.68
1676,0.27,-0.96,9.80,0.44,-0.09,0.72
1681,0.27,-0.96,9.80,0.44,-0.08,0.77
1686,0.27,-0.96,9.80,0.43,-0.09,0.81
1691,0.27,-0.96,9.80,0.43,-0.11,0.84
1697,0.27,-0.96,9.80,0.42,-0.09,0.87
1701,0.27,-0.96,9.80,0.38,-0.08,0.88
1706,0.27,-0.96,9.80,0.37,-0.06,0.90
1711,0.27,-0.96,9.80,0.36,-0.07,0.93
1716,1.80,-1.19,10.54,0.36,-0.07,0.93
1721,1.80,-1.19,10.54,0.34,-0.08,0.96
1726,1.80,-1.19,10.54,0.32,-0.07,0.97
1731,1.27,-1.27,8.50,0.32,-0.07,0.97
1736,1.27,-1.27,8.50,0.30,-0.04,0.99
1741,1.27,-1.27,8.50,0.30,-0.04,1.00
1746,1.27,-1.27,8.50,0.30,-0.06,1.01
1751,1.27,-1.27,8.50,0.28,-0.07,1.01
1756,1.27,-1.27,8.50,0.26,-0.08,1.01
1761,1.27,-1.27,8.50,0.25,-0.07,1.00
1766,1.23,-1.00,9.20,0.25,-0.07,1.00
1771,1.23,-1.00,9.20,0.23,-0.08,0.96
1776,1.23,-1.00,9.20,0.20,-0.07,0.92
1781,1.23,-1.00,9.20,0.18,-0.06,0.89
1786,1.23,-1.00,9.20,0.16,-0.06,0.84
1791,1.23,-1.00,9.20,0.15,-0.06,0.82
1796,1.23,-1.00,9.20,0.13,-0.06,0.78
1802,1.46,0.27,9.16,0.13,-0.06,0.78
1806,1.46,0.27,9.16,0.09,-0.03,0.71
1811,1.46,0.27,9.16,0.08,-0.02,0.66
1816,1.46,0.27,9.16,0.06,-0.04,0.62
1821,1.46,0.27,9.16,0.05,-0.05,0.59
1826,1.46,0.27,9.16,0.02,-0.03,0.56
1831,1.46,0.27,9.16,0.00,-0.02,0.52
1836,1.04,-0.65,9.54,0.00,-0.02,0.52
1841,1.04,-0.65,9.54,-0.00,-0.03,0.46
1846,1.04,-0.65,9.54,-0.00,-0.03,0.44
1851,1.04,-0.65,9.54,-0.01,-0.02,0.40
1856,1.04,-0.65,9.54,-0.01,-0.00,0.36
1861,1.04,-0.65,9.54,-0.04,0.00,0.31
1866,1.04,-0.65,9.54,-0.06,-0.01,0.25
1871,0.73,-0.46,10.27,-0.06,-0.01,0.25
1876,0.73,-0.46,10.27,-0.10,-0.04,0.18
1881,0.73,-0.46,10.27,-0.12,-0.02,0.16
1886,0.73,-0.46,10.27,-0.12,0.00,0.14
1891,0.73,-0.46,10.27,-0.13,0.02,0.12
1896,0.73,-0.46,10.27,-0.13,0.04,0.09
1901,0.73,-0.46,10.27,-0.14,0.06,0.06
1906,0.34,-0.11,9.80,-0.14,0.06,0.06
1911,0.34,-0.11,9.80,-0.17,0.09,-0.00
1916,0.34,-0.11,9.80,-0.17,0.07,-0.02
1922,0.34,-0.11,9.80,-0.17,0.02,-0.02
1926,0.34,-0.11,9.80,-0.17,-0.01,-0.02
1931,0.34,-0.11,9.80,-0.17,-0.02,-0.04
1936,0.34,-0.11,9.80,-0.17,-0.02,-0.05
1942,2.49,-0.73,8.77,-0.17,-0.02,-0.05
1946,2.49,-0.73,8.77,-0.18,0.01,-0.09
1951,2.49,-0.73,8.77,-0.17,0.06,-0.12
1956,2.49,-0.73,8.77,-0.17,0.08,-0.14
1961,2.49,-0.73,8.77,-0.17,0.10,-0.17
1966,2.49,-0.73,8.77,-0.17,0.08,-0.19
1971,2.49,-0.73,8.77,-0.18,0.05,-0.21
1976,2.49,-0.73,8.77,-0.18,0.02,-0.23
1981,2.49,-0.73,8.77,-0.19,0.01,-0.25
1986,2.49,-0.73,8.77,-0.19,0.01,-0.27
1992,1.95,-1.23,9.43,-0.19,0.01,-0.27
1996,1.95,-1.23,9.43,-0.19,0.02,-0.30
2001,1.95,-1.23,9.43,-0.20,0.03,-0.34
2006,1.95,-1.23,9.43,-0.20,0.05,-0.36
2011,1.95,-1.23,9.43,-0.20,0.08,-0.39
2016,1.95,-1.23,9.43,-0.20,0.10,-0.40
2021,1.95,-1.23,9.43,-0.20,0.10,-0.43
2027,1.23,-0.69,10.15,-0.20,0.10,-0.43
2031,1.23,-0.69,10.15,-0.20,0.06,-0.46
2036,1.23,-0.69,10.15,-0.19,0.05,-0.47
2041,1.23,-0.69,10.15,-0.20,0.04,-0.49
2046,1.23,-0.69,10.15,-0.19,0.03,-0.50
2051,1.23,-0.69,10.15,-0.20,0.02,-0.51
2056,1.23,-0.69,10.15,-0.21,0.02,-0.53
2062,2.91,-0.42,9.20,-0.21,0.02,-0.53
2066,2.91,-0.42,9.20,-0.21,0.05,-0.54
2071,2.91,-0.42,9.20,-0.21,0.06,-0.55
2076,2.91,-0.42,9.20,-0.20,0.07,-0.55
2082,0.73,-0.34,9.80,-0.20,0.07,-0.55
2086,0.73,-0.34,9.80,-0.22,0.06,-0.56
2091,0.73,-0.34,9.80,-0.22,0.03,-0.55
2097,1.65,-0.42,10.35,-0.22,0.03,-0.55
2101,1.65,-0.42,10.35,-0.22,0.02,-0.52
2106,1.65,-0.42,10.35,-0.21,0.01,-0.50
2112,1.65,-0.42,10.35,-0.21,0.01,-0.49
2116,1.65,-0.42,10.35,-0.20,0.00,-0.47
2121,1.65,-0.42,10.35,-0.19,0.00,-0.45
2126,1.65,-0.42,10.35,-0.18,0.02,-0.43
2132,1.99,-0.73,9.46,-0.18,0.02,-0.43
2136,1.99,-0.73,9.46,-0.17,0.05,-0.41
2141,1.99,-0.73,9.46,-0.16,0.04,-0.41
2147,1.99,-0.73,9.46,-0.16,0.03,-0.39
2151,1.99,-0.73,9.46,-0.17,0.01,-0.38
2156,1.99,-0.73,9.46,-0.17,0.01,-0.37
2160,1.99,-0.73,9.46,-0.17,0.01,-0.37
2166,2.03,-0.88,10.23,-0.17,0.01,-0.37
2171,2.03,-0.88,10.23,-0.18,0.04,-0.37
2176,2.03,-0.88,10.23,-0.17,0.03,-0.38
2182,2.03,-0.88,10.23,-0.15,0.01,-0.37
2186,2.03,-0.88,10.23,-0.14,0.03,-0.36
2191,2.03,-0.88,10.23,-0.12,0.04,-0.36
2195,2.03,-0.88,10.23,-0.11,0.06,-0.35
2202,-0.27,-1.88,9.12,-0.11,0.06,-0.35
2206,-0.27,-1.88,9.12,-0.09,0.03,-0.36
2211,-0.27,-1.88,9.12,-0.08,0.02,-0.37
2217,-0.27,-1.88,9.12,-0.09,0.01,-0.36
2221,-0.27,-1.88,9.12,-0.09,0.02,-0.37
2226,-0.27,-1.88,9.12,-0.09,0.02,-0.38
2231,-0.27,-1.88,9.12,-0.10,0.01,-0.38
2236,0.61,-1.76,9.46,-0.10,0.01,-0.38
2242,0.61,-1.76,9.46,-0.10,0.02,-0.38
2246,0.61,-1.76,9.46,-0.11,0.02,-0.38
2252,0.77,-2.41,9.65,-0.11,0.02,-0.38
2256,0.77,-2.41,9.65,-0.09,0.00,-0.36
2261,0.77,-2.41,9.65,-0.08,0.00,-0.34
2265,0.77,-2.41,9.65,-0.07,0.02,-0.32
2271,0.92,-1.72,9.89,-0.07,0.02,-0.32
2276,0.92,-1.72,9.89,-0.08,0.02,-0.29
2281,0.92,-1.72,9.89,-0.07,-0.01,-0.28
2286,1.38,-1.72,10.00,-0.07,-0.01,-0.28
2291,1.38,-1.72,10.00,-0.06,0.01,-0.25
2296,1.38,-1.72,10.00,-0.06,0.04,-0.23
2301,1.38,-1.72,10.00,-0.05,0.04,-0.21
2306,1.68,-1.57,10.27,-0.05,0.04,-0.21
2311,1.68,-1.57,10.27,-0.04,0.03,-0.18
2315,1.68,-1.57,10.27,-0.04,0.04,-0.16
2321,-0.57,-1.49,8.12,-0.04,0.04,-0.16
2326,-0.57,-1.49,8.12,-0.02,0.01,-0.10
2331,-0.57,-1.49,8.12,-0.00,-0.02,-0.06
2336,-0.57,-1.49,8.12,0.03,-0.04,-0.01
2341,1.99,-1.84,9.04,0.03,-0.04,-0.01
2346,1.99,-1.84,9.04,0.05,-0.01,0.05
2351,1.99,-1.84,9.04,0.06,0.00,0.07
2356,0.65,-1.65,8.88,0.06,0.00,0.07
2361,0.65,-1.65,8.88,0.07,-0.01,0.12
2366,0.65,-1.65,8.88,0.06,0.00,0.14
2371,0.65,-1.65,8.88,0.04,0.01,0.15
2377,1.11,-1.00,9.96,0.04,0.01,0.15
2381,1.11,-1.00,9.96,0.02,-0.02,0.17
2386,1.11,-1.00,9.96,0.01,-0.03,0.17
2391,0.96,-1.49,9.34,0.01,-0.03,0.17
2396,0.96,-1.49,9.34,-0.01,-0.02,0.19
2401,0.96,-1.49,9.34,0.00,-0.02,0.21
2406,0.96,-1.49,9.34,0.01,-0.02,0.22
2411,0.96,-1.49,9.34,0.01,-0.03,0.23
2416,0.96,-1.49,9.34,0.01,-0.01,0.26
2420,0.96,-1.49,9.34,0.01,-0.01,0.27
2427,1.72,-0.38,9.27,0.01,-0.01,0.27
2431,1.72,-0.38,9.27,0.01,-0.01,0.29
2436,1.72,-0.38,9.27,0.01,-0.01,0.32
2441,1.72,-0.38,9.27,0.01,-0.01,0.33
2446,1.72,-0.38,9.27,0.02,0.00,0.34
2451,1.72,-0.38,9.27,0.01,-0.01,0.35
2455,1.72,-0.38,9.27,0.01,-0.01,0.36
2461,1.15,-1.00,9.50,0.01,-0.01,0.36
2466,1.15,-1.00,9.50,-0.02,-0.03,0.35
2471,1.15,-1.00,9.50,-0.04,-0.01,0.35
2477,1.15,-1.00,9.50,-0.06,-0.00,0.35
2481,1.15,-1.00,9.50,-0.06,-0.02,0.35
2486,1.15,-1.00,9.50,-0.06,-0.03,0.35
2491,1.15,-1.00,9.50,-0.06,-0.01,0.36
2496,-0.30,-1.00,9.84,-0.06,-0.01,0.36
2501,-0.30,-1.00,9.84,-0.06,0.01,0.36
2506,-0.30,-1.00,9.84,-0.05,-0.02,0.36
2511,0.11,-0.80,9.65,-0.05,-0.02,0.36
2516,0.11,-0.80,9.65,-0.03,-0.04,0.38
2521,0.11,-0.80,9.65,-0.05,-0.01,0.38
2526,0.11,-0.80,9.65,-0.06,0.01,0.38
2531,0.54,-0.19,9.61,-0.06,0.01,0.38
2536,0.54,-0.19,9.61,-0.07,-0.02,0.38
2541,0.54,-0.19,9.61,-0.09,-0.01,0.38
2546,-0.34,-0.54,9.77,-0.09,-0.01,0.38
2551,-0.34,-0.54,9.77,-0.09,0.02,0.37
2556,-0.34,-0.54,9.77,-0.10,-0.02,0.37
2561,-0.34,-0.54,9.77,-0.09,-0.04,0.38
2566,1.04,-0.92,9.69,-0.09,-0.04,0.38
2571,1.04,-0.92,9.69,-0.09,0.03,0.40
2576,1.04,-0.92,9.69,-0.08,0.05,0.40
2581,-0.73,-2.30,9.61,-0.08,0.05,0.40
2586,-0.73,-2.30,9.61,-0.05,0.01,0.41
2591,-0.73,-2.30,9.61,-0.03,-0.01,0.42
2596,-0.73,-2.30,9.61,-0.02,-0.01,0.42
2602,-0.30,-2.11,9.58,-0.02,-0.01,0.42
2606,-0.30,-2.11,9.58,-0.06,-0.01,0.40
2611,-0.30,-2.11,9.58,-0.09,0.00,0.37
2616,0.57,-1.72,8.50,-0.09,0.00,0.37
2621,0.57,-1.72,8.50,-0.14,0.02,0.33
2626,0.57,-1.72,8.50,-0.15,0.04,0.33
2631,0.57,-1.72,8.50,-0.13,0.05,0.33
2636,0.57,-1.72,8.50,-0.11,0.04,0.33
2641,0.57,-1.72,8.50,-0.08,0.02,0.32
2646,0.57,-1.72,8.50,-0.06,-0.01,0.32
2651,1.61,-4.14,10.07,-0.06,-0.01,0.32
2656,1.61,-4.14,10.07,0.00,-0.03,0.32
2660,1.61,-4.14,10.07,0.03,-0.01,0.33
2666,1.61,-4.14,10.07,0.07,0.01,0.34
2671,1.61,-4.14,10.07,0.08,0.01,0.35
2676,1.61,-4.14,10.07,0.07,0.03,0.35
2681,1.61,-4.14,10.07,0.07,0.03,0.35
2686,2.34,-1.42,9.16,0.07,0.03,0.35
2691,2.34,-1.42,9.16,0.01,0.01,0.33
2696,2.34,-1.42,9.16,-0.02,-0.02,0.32
2702,2.34,-1.42,9.16,-0.04,-0.01,0.31
2706,2.34,-1.42,9.16,-0.04,0.02,0.32
2711,2.34,-1.42,9.16,-0.06,0.02,0.32
2715,2.34,-1.42,9.16,-0.06,0.02,0.34
2720,2.61,-2.11,8.92,-0.06,0.02,0.34
2726,2.61,-2.11,8.92,-0.04,0.01,0.34
2731,2.61,-2.11,8.92,-0.02,-0.01,0.34
2737,2.61,-2.11,8.92,-0.00,-0.02,0.35
2741,2.61,-2.11,8.92,0.01,-0.02,0.34
2746,2.61,-2.11,8.92,0.02,-0.04,0.34
2751,2.61,-2.11,8.92,0.02,-0.04,0.35
2756,2.99,-2.72,9.58,0.02,-0.04,0.35
2761,2.99,-2.72,9.58,0.03,-0.03,0.35
2765,2.99,-2.72,9.58,0.03,-0.02,0.34
2771,2.34,-1.91,9.69,0.03,-0.02,0.34
2776,2.34,-1.91,9.69,0.01,0.01,0.34
2781,2.34,-1.91,9.69,-0.00,0.01,0.33
2786,2.34,-1.91,9.69,-0.03,-0.00,0.34
2791,1.99,-0.54,9.65,-0.03,-0.00,0.34
2796,1.99,-0.54,9.65,-0.06,0.02,0.35
2801,1.99,-0.54,9.65,-0.07,0.02,0.35
2806,1.76,-0.80,9.20,-0.07,0.02,0.35
2811,1.76,-0.80,9.20,-0.09,0.01,0.36
2815,1.76,-0.80,9.20,-0.09,0.02,0.36
2821,1.76,-0.80,9.20,-0.09,0.02,0.37
2827,1.07,-0.73,8.84,-0.09,0.02,0.37
2831,1.07,-0.73,8.84,-0.08,0.00,0.37
2836,1.07,-0.73,8.84,-0.08,0.00,0.36
2842,1.07,-0.73,8.84,-0.08,-0.00,0.34
2846,1.07,-0.73,8.84,-0.08,0.02,0.33
2851,1.07,-0.73,8.84,-0.08,0.03,0.33
2856,1.07,-0.73,8.84,-0.08,0.04,0.32
2861,-0.73,-1.76,6.71,-0.08,0.04,0.32
2866,-0.73,-1.76,6.71,-0.08,0.04,0.27
2871,-0.73,-1.76,6.71,-0.11,0.04,0.23
2877,-0.04,-0.04,10.88,-0.11,0.04,0.23
2881,-0.04,-0.04,10.88,-0.14,0.01,0.20
2886,-0.04,-0.04,10.88,-0.14,-0.03,0.21
2891,2.64,-3.45,12.14,-0.14,-0.03,0.21
2896,2.64,-3.45,12.14,-0.12,0.03,0.20
2901,2.64,-3.45,12.14,-0.11,0.05,0.20
2906,2.64,-3.45,12.14,-0.11,0.03,0.18
2911,0.08,-1.53,7.62,-0.11,0.03,0.18
2916,0.08,-1.53,7.62,-0.11,0.03,0.16
2921,0.08,-1.53,7.62,-0.12,0.06,0.17
2927,1.91,-2.18,12.41,-0.12,0.06,0.17
2931,1.91,-2.18,12.41,-0.13,0.06,0.20
2936,1.91,-2.18,12.41,-0.10,0.01,0.22
2941,1.91,-2.18,12.41,-0.09,-0.04,0.23
2947,0.77,-1.61,7.77,-0.09,-0.04,0.23
2951,0.77,-1.61,7.77,-0.08,-0.02,0.23
2956,0.77,-1.61,7.77,-0.08,0.01,0.24
2961,0.77,-1.61,7.77,-0.09,0.05,0.25
2966,0.77,-1.61,7.77,-0.08,0.06,0.26
2971,0.77,-1.61,7.77,-0.07,0.07,0.28
2976,0.77,-1.61,7.77,-0.06,0.04,0.28
2982,0.11,-1.72,7.70,-0.06,0.04,0.28
2986,0.11,-1.72,7.70,-0.10,-0.04,0.26
2991,0.11,-1.72,7.70,-0.11,-0.03,0.27
2996,3.26,-2.26,11.38,-0.11,-0.03,0.27
3001,3.26,-2.26,11.38,-0.12,0.06,0.29
3006,3.26,-2.26,11.38,-0.10,0.05,0.29
3011,3.26,-2.26,11.38,-0.07,0.01,0.29
3016,1.38,-1.38,9.23,-0.07,0.01,0.29
3021,1.38,-1.38,9.23,-0.06,-0.00,0.30
3026,1.38,-1.38,9.23,-0.07,0.02,0.31
3031,2.26,-2.76,10.31,-0.07,0.02,0.31
3036,2.26,-2.76,10.31,-0.06,0.04,0.31
3041,2.26,-2.76,10.31,-0.05,0.01,0.31
3046,2.26,-2.76,10.31,-0.04,-0.01,0.30
3051,2.34,-1.76,9.81,-0.04,-0.01,0.30
3056,2.34,-1.76,9.81,-0.06,0.01,0.28
3061,2.34,-1.76,9.81,-0.07,0.04,0.27
3066,1.57,-2.38,9.93,-0.07,0.04,0.27
3071,1.57,-2.38,9.93,-0.07,0.03,0.26
3076,1.57,-2.38,9.93,-0.06,0.01,0.24
3081,1.57,-2.38,9.93,-0.06,0.01,0.22
3086,1.57,-2.38,9.93,-0.08,0.01,0.20
3091,1.57,-2.38,9.93,-0.08,0.03,0.19
3096,1.57,-2.38,9.93,-0.09,0.06,0.18
3101,1.57,-2.38,9.93,-0.09,0.07,0.17
3106,1.57,-2.38,9.93,-0.09,0.06,0.15
3110,1.57,-2.38,9.93,-0.08,0.04,0.14
3116,0.69,-1.30,9.61,-0.08,0.04,0.14
3121,0.69,-1.46,9.77,-0.08,0.04,0.14
3126,0.69,-1.46,9.77,-0.08,0.07,0.10
3131,0.69,-1.46,9.77,-0.08,0.09,0.08
3136,0.69,-1.46,9.77,-0.07,0.08,0.06
3141,0.69,-1.46,9.77,-0.08,0.07,0.04
3146,0.69,-1.46,9.77,-0.06,0.05,0.03
3151,-2.30,-1.07,9.31,-0.06,0.05,0.03
3156,-2.30,-1.07,9.31,-0.09,0.05,-0.02
3161,-2.30,-1.07,9.31,-0.08,0.04,-0.04
3166,-2.30,-1.07,9.31,-0.09,0.04,-0.06
3171,-2.41,-1.57,8.84,-0.09,0.04,-0.06
3176,-2.41,-1.57,8.84,-0.10,0.05,-0.10
3181,-2.41,-1.57,8.84,-0.10,0.06,-0.12
3186,-2.57,-0.73,8.92,-0.10,0.06,-0.12
3190,-2.57,-0.73,8.92,-0.12,0.04,-0.15
3196,-2.57,-0.73,8.92,-0.12,0.04,-0.15
3201,-2.57,-0.73,8.92,-0.13,0.04,-0.17
3206,-2.57,-0.73,8.92,-0.13,0.03,-0.17
3211,-2.57,-0.73,8.92,-0.13,0.03,-0.18
3215,-2.57,-0.73,8.92,-0.13,0.03,-0.18
3221,-2.57,-0.73,8.92,-0.13,0.03,-0.19
3226,-2.57,-0.73,8.92,-0.13,0.04,-0.18
3231,-2.57,-0.73,8.92,-0.12,0.04,-0.18
3236,-2.57,-0.73,8.92,-0.12,0.04,-0.18
3241,-0.50,-2.14,9.54,-0.12,0.04,-0.18
3246,-0.50,-2.14,9.54,-0.10,0.03,-0.16
3251,-0.50,-2.14,9.54,-0.11,0.03,-0.15
3256,-0.04,-2.64,9.61,-0.11,0.03,-0.15
3261,-0.04,-2.64,9.61,-0.10,0.04,-0.14
3265,-0.04,-2.64,9.61,-0.09,0.05,-0.14
3271,-0.04,-2.64,9.61,-0.08,0.04,-0.14
3276,-0.04,-2.64,9.61,-0.07,0.04,-0.13
3281,-0.04,-2.64,9.61,-0.07,0.04,-0.13
3286,-0.04,-2.64,9.61,-0.06,0.04,-0.12
3291,-0.88,-3.07,9.50,-0.06,0.04,-0.12
3296,-0.88,-3.07,9.50,-0.05,0.04,-0.11
3301,-0.88,-3.07,9.50,-0.04,0.04,-0.11
3306,-1.38,-2.68,9.50,-0.04,0.04,-0.11
3311,-1.38,-2.68,9.50,-0.03,0.04,-0.10
3316,-1.38,-2.68,9.50,-0.04,0.03,-0.10
3321,-1.38,-2.68,9.50,-0.03,0.03,-0.08
3326,-1.38,-2.68,9.50,-0.03,0.03,-0.08
3331,-1.38,-2.68,9.50,-0.02,0.02,-0.06
3336,-1.38,-2.68,9.50,-0.00,0.02,-0.05
3341,-1.38,-2.68,9.50,-0.01,0.01,-0.04
3346,-1.38,-2.68,9.50,-0.00,0.01,-0.04
3351,-1.38,-2.68,9.50,-0.00,0.01,-0.02
3356,-1.38,-2.68,9.50,0.01,0.01,-0.01
3361,-1.38,-2.68,9.50,0.01,0.01,-0.00
3366,-1.38,-2.68,9.50,0.02,-0.00,0.01
3371,-1.38,-2.68,9.50,0.02,-0.01,0.03
3376,-1.91,-2.38,8.96,0.02,-0.01,0.03
3381,-1.91,-2.38,8.96,0.03,-0.01,0.06
3385,-1.91,-2.38,8.96,0.04,-0.01,0.07
3391,-1.91,-2.38,8.96,0.04,-0.01,0.09
3396,-1.91,-2.38,8.96,0.05,-0.01,0.10
3401,-1.91,-2.38,8.96,0.05,-0.02,0.12
3406,-1.91,-2.38,8.96,0.06,-0.03,0.12
3411,-1.38,-2.49,9.31,0.06,-0.03,0.12
3416,-1.38,-2.49,9.31,0.07,-0.03,0.16
3421,-1.38,-2.49,9.31,0.08,-0.03,0.17
3426,-1.38,-2.49,9.31,0.08,-0.03,0.19
3431,-1.38,-2.49,9.31,0.09,-0.02,0.20
3436,-1.38,-2.49,9.31,0.10,-0.03,0.20
3441,-1.38,-2.49,9.31,0.10,-0.03,0.22
3446,-0.88,-2.22,9.39,0.10,-0.03,0.22
3451,-0.88,-2.22,9.39,0.09,-0.04,0.23
3456,-0.88,-2.22,9.39,0.10,-0.04,0.24
3461,-0.88,-2.22,9.39,0.11,-0.03,0.25
3466,-0.88,-2.22,9.39,0.11,-0.02,0.25
3471,-0.88,-2.22,9.39,0.12,-0.03,0.24
3476,-0.88,-2.22,9.39,0.13,-0.03,0.25
3481,-0.88,-2.22,9.39,0.12,-0.04,0.24
3486,-0.88,-2.22,9.39,0.13,-0.04,0.25
3491,-0.88,-2.22,9.39,0.12,-0.04,0.25
3496,-0.88,-2.22,9.39,0.12,-0.05,0.24
3501,-0.80,-1.72,9.00,0.12,-0.05,0.24
3506,-0.80,-1.72,9.00,0.13,-0.05,0.24
3511,-0.80,-1.72,9.00,0.12,-0.06,0.22
3516,-0.80,-1.72,9.00,0.12,-0.06,0.22
3521,-0.80,-1.72,9.00,0.12,-0.04,0.21
3526,-0.80,-1.72,9.00,0.12,-0.03,0.20
3531,-0.08,-2.03,9.88,0.12,-0.03,0.20
3536,-0.08,-2.03,9.88,0.13,-0.05,0.18
3540,-0.08,-2.03,9.88,0.14,-0.05,0.18
3546,-0.08,-2.03,9.88,0.13,-0.04,0.17
3551,-0.08,-2.03,9.88,0.13,-0.03,0.16
3556,-0.08,-2.03,9.88,0.13,-0.03,0.14
3561,-0.08,-2.03,9.88,0.13,-0.04,0.13
3566,-0.65,-1.11,9.31,0.13,-0.04,0.13
3571,-0.65,-1.11,9.31,0.12,-0.04,0.11
3576,-0.65,-1.11,9.31,0.12,-0.04,0.10
3581,-0.65,-1.11,9.31,0.12,-0.04,0.07
3586,-0.65,-1.11,9.31,0.11,-0.04,0.05
3591,-0.80,-0.77,9.54,0.11,-0.04,0.05
3596,-0.80,-0.77,9.54,0.10,-0.04,0.01
3601,-0.80,-0.77,9.54,0.09,-0.03,0.00
3605,-0.80,-0.77,9.54,0.09,-0.03,-0.02
3611,-0.80,-0.77,9.54,0.09,-0.02,-0.03
3616,-0.80,-0.77,9.54,0.08,-0.01,-0.04
3621,-0.80,-0.77,9.54,0.08,-0.02,-0.06
3626,-0.80,-0.77,9.54,0.08,-0.04,-0.07
3631,-0.80,-0.77,9.54,0.08,-0.04,-0.08
3636,-0.80,-0.77,9.54,0.07,-0.03,-0.09
3640,-0.88,-1.19,9.42,0.07,-0.03,-0.09
3646,-0.88,-1.19,9.42,0.07,-0.02,-0.12
3651,-0.88,-1.19,9.42,0.07,-0.03,-0.13
3656,-0.88,-1.19,9.42,0.07,-0.03,-0.13
3660,-1.00,-1.11,9.43,0.07,-0.03,-0.13
3665,-1.00,-1.11,9.43,0.07,-0.02,-0.15
3671,-0.88,-1.19,9.39,0.07,-0.02,-0.15
3677,-0.88,-1.19,9.39,0.06,-0.02,-0.17
3680,-0.88,-1.11,9.43,0.06,-0.02,-0.17
3686,-1.00,-1.19,9.39,0.06,-0.02,-0.17
3690,-1.00,-1.19,9.39,0.05,-0.00,-0.18
3695,-1.00,-1.19,9.39,0.05,-0.02,-0.18
3701,-1.00,-1.19,9.39,0.05,-0.02,-0.18
3706,-1.00,-1.19,9.39,0.04,-0.02,-0.18
3711,-1.00,-1.19,9.39,0.04,-0.02,-0.18
3715,-1.00,-1.19,9.39,0.05,-0.02,-0.18
3721,-1.00,-1.19,9.39,0.06,-0.02,-0.17
3726,-1.00,-1.19,9.39,0.06,-0.02,-0.16
3731,-0.92,-1.23,9.42,0.06,-0.02,-0.16
3735,-0.88,-1.19,9.35,0.06,-0.02,-0.16
3741,-0.88,-1.19,9.35,0.05,-0.02,-0.13
3746,-0.88,-1.19,9.35,0.04,-0.01,-0.12
3751,-1.11,-1.19,9.20,0.04,-0.01,-0.12
3756,-1.11,-1.19,9.20,0.04,-0.02,-0.10
3761,-1.11,-1.19,9.20,0.05,-0.03,-0.08
3766,-1.11,-1.19,9.20,0.05,-0.03,-0.07
3771,-1.11,-1.19,9.20,0.06,-0.02,-0.05
3776,-1.11,-1.19,9.20,0.05,-0.01,-0.04
3780,-1.30,-1.46,9.43,0.05,-0.01,-0.04
3786,-1.30,-1.49,9.42,0.05,-0.01,-0.04
3791,-1.30,-1.49,9.42,0.07,-0.03,0.01
3796,-1.27,-1.53,9.54,0.07,-0.03,0.01
3800,-1.34,-1.57,9.42,0.07,-0.03,0.01
3806,-1.34,-1.57,9.42,0.08,-0.02,0.05
3811,-1.34,-1.57,9.42,0.09,-0.03,0.07
3815,-1.34,-1.57,9.35,0.09,-0.03,0.07
3821,-1.34,-1.57,9.35,0.09,-0.04,0.09
3826,-1.34,-1.57,9.35,0.09,-0.03,0.09
3831,-1.34,-1.27,9.27,0.09,-0.03,0.09
3835,-1.34,-1.27,9.27,0.09,-0.03,0.09
3841,-1.34,-1.27,9.27,0.09,-0.04,0.12
3846,-1.34,-1.27,9.27,0.09,-0.04,0.13
3851,-1.34,-1.27,9.31,0.09,-0.04,0.13
3855,-1.34,-1.23,9.30,0.09,-0.04,0.13
3861,-1.34,-1.23,9.30,0.10,-0.03,0.14
3866,-1.34,-1.23,9.30,0.10,-0.04,0.14
3870,-1.23,-1.04,9.42,0.10,-0.04,0.14
3875,-1.27,-1.11,9.42,0.10,-0.04,0.14
3881,-1.30,-1.11,9.42,0.10,-0.04,0.14
3886,-1.30,-1.11,9.42,0.10,-0.03,0.15
3891,-1.34,-1.19,9.39,0.10,-0.03,0.15
3896,-1.34,-1.11,9.43,0.10,-0.03,0.15
3900,-1.30,-1.11,9.42,0.10,-0.03,0.15
3905,-1.30,-1.11,9.42,0.11,-0.04,0.16
3911,-1.30,-1.11,9.42,0.11,-0.04,0.16
3916,-1.30,-1.11,9.42,0.11,-0.04,0.15
3921,-1.15,-0.61,9.43,0.11,-0.04,0.15
3926,-1.11,-0.54,9.43,0.11,-0.04,0.15
3931,-1.11,-0.54,9.43,0.10,-0.03,0.13
3936,-1.11,-0.54,9.43,0.10,-0.03,0.13
3940,-1.11,-0.54,9.43,0.09,-0.02,0.12
3946,-1.11,-0.54,9.43,0.08,-0.02,0.11
3951,-0.88,-0.11,9.39,0.08,-0.02,0.11
3955,-0.84,-0.08,9.39,0.08,-0.02,0.11
3961,-0.84,-0.08,9.39,0.07,-0.02,0.09
3966,-0.84,-0.08,9.39,0.06,-0.02,0.08
3971,-0.77,0.04,9.46,0.06,-0.02,0.08
3975,-0.77,0.04,9.50,0.06,-0.02,0.08
3981,-0.77,0.04,9.50,0.04,-0.01,0.07
3986,-0.77,0.04,9.50,0.04,-0.01,0.06
3990,-0.61,0.19,9.50,0.04,-0.01,0.06
3996,-0.65,0.11,9.46,0.04,-0.01,0.06
4001,-0.65,0.04,9.46,0.04,-0.01,0.06
4006,-0.65,0.04,9.46,0.01,-0.00,0.04
4011,-0.65,0.04,9.46,0.01,0.01,0.03
4015,-0.65,0.04,9.46,0.00,0.01,0.03
4021,-0.65,0.04,9.46,0.00,0.00,0.02
4026,-0.65,0.04,9.46,-0.00,-0.00,0.01
4031,-0.65,0.04,9.46,-0.01,-0.01,-0.00
4036,-0.65,0.04,9.46,-0.02,0.01,-0.01
4041,-0.84,-0.54,9.50,-0.02,0.01,-0.01
4045,-0.88,-0.61,9.42,-0.02,0.01,-0.01
4051,-0.88,-0.61,9.42,-0.03,0.01,-0.04
4056,-0.84,-0.65,9.50,-0.03,0.01,-0.04
4060,-0.84,-0.69,9.46,-0.03,0.01,-0.04
4066,-0.84,-0.69,9.46,-0.04,0.02,-0.07
4071,-0.84,-0.69,9.46,-0.04,0.01,-0.07
4076,-0.92,-0.77,9.38,-0.04,0.01,-0.07
4080,-0.96,-0.84,9.42,-0.04,0.01,-0.07
4086,-0.96,-0.84,9.42,-0.04,0.01,-0.09
4090,-1.07,-1.00,9.43,-0.04,0.01,-0.09
4095,-1.00,-1.00,9.46,-0.04,0.01,-0.09
4101,-1.07,-1.00,9.50,-0.04,0.01,-0.09
4106,-1.07,-1.00,9.50,-0.04,0.01,-0.10
4110,-0.96,-1.04,9.50,-0.04,0.01,-0.10
4115,-0.96,-1.07,9.46,-0.04,0.01,-0.10
4121,-0.96,-1.07,9.46,-0.04,0.02,-0.10
4126,-1.00,-1.15,9.43,-0.04,0.02,-0.10
4131,-1.00,-1.19,9.46,-0.04,0.02,-0.10
4136,-1.04,-1.19,9.46,-0.04,0.02,-0.10
4141,-1.04,-1.19,9.46,-0.04,0.02,-0.10
4145,-1.04,-1.19,9.46,-0.05,0.01,-0.11
4151,-1.04,-1.19,9.46,-0.05,0.01,-0.10
4156,-1.04,-1.19,9.46,-0.05,0.01,-0.11
4161,-1.04,-1.27,9.46,-0.05,0.01,-0.11
4165,-1.07,-1.27,9.46,-0.05,0.01,-0.11
4171,-1.07,-1.27,9.46,-0.04,0.02,-0.09
4176,-1.07,-1.27,9.46,-0.04,0.01,-0.09
4180,-1.04,-1.27,9.46,-0.04,0.01,-0.09
4186,-1.07,-1.30,9.46,-0.04,0.01,-0.09
4190,-1.07,-1.30,9.46,-0.04,0.02,-0.07
4196,-1.07,-1.30,9.46,-0.04,0.02,-0.07
4201,-1.07,-1.49,9.42,-0.04,0.02,-0.07
4206,-1.19,-1.61,9.50,-0.04,0.02,-0.07
4210,-1.23,-1.76,9.50,-0.04,0.02,-0.07
4215,-1.27,-1.80,9.42,-0.04,0.02,-0.07
4221,-1.27,-1.80,9.46,-0.04,0.02,-0.07
4226,-1.27,-1.80,9.46,-0.02,0.01,-0.04
4231,-1.15,-1.76,9.43,-0.02,0.01,-0.04
4235,-1.11,-1.68,9.42,-0.02,0.01,-0.04
4241,-1.11,-1.68,9.42,-0.01,0.01,-0.02
4246,-1.00,-1.65,9.43,-0.01,0.01,-0.02
4250,-1.00,-1.65,9.43,-0.01,0.01,-0.01
4255,-1.07,-1.61,9.39,-0.01,0.01,-0.01
4261,-1.07,-1.57,9.38,-0.01,0.01,-0.01
4266,-1.07,-1.57,9.38,-0.00,-0.00,-0.00
4271,-0.92,-1.34,9.42,-0.00,-0.00,-0.00
4276,-0.88,-1.23,9.42,-0.00,-0.00,-0.00
4280,-1.07,-1.34,9.31,-0.00,-0.00,-0.00
4285,-0.96,-1.30,9.31,-0.00,-0.00,-0.00
4291,-1.00,-1.30,9.27,-0.00,-0.00,-0.00
4295,-0.96,-1.15,9.34,-0.00,-0.00,-0.00
4301,-0.96,-1.15,9.31,-0.00,-0.00,-0.00
4305,-0.84,-1.19,9.39,-0.00,-0.00,-0.00
4311,-0.84,-1.19,9.39,0.00,-0.00,0.02
4315,-0.92,-1.34,9.42,0.00,-0.00,0.02
4321,-1.04,-1.38,9.39,0.00,-0.00,0.02
4326,-1.07,-1.30,9.39,0.00,-0.00,0.02
4331,-1.07,-1.34,9.43,0.00,-0.00,0.02
4335,-1.07,-1.34,9.43,-0.00,-0.00,0.02
4340,-1.07,-1.34,9.38,-0.00,-0.00,0.02
4346,-1.07,-1.34,9.38,0.01,-0.01,0.02
4351,-1.07,-1.34,9.50,0.01,-0.01,0.02
4355,-1.11,-1.42,9.46,0.01,-0.01,0.02
4361,-1.19,-1.38,9.39,0.01,-0.01,0.02
4365,-1.19,-1.23,9.39,0.01,-0.01,0.02
4370,-1.19,-1.19,9.42,0.01,-0.01,0.02
4376,-1.15,-1.23,9.43,0.01,-0.01,0.02
4381,-1.11,-1.19,9.46,0.01,-0.01,0.02
4386,-1.11,-1.19,9.43,0.01,-0.01,0.02
4390,-1.04,-1.23,9.42,0.01,-0.01,0.02
4395,-1.07,-1.15,9.42,0.01,-0.01,0.02
4401,-1.07,-1.15,9.42,0.01,0.00,-0.01
4406,-1.04,-1.07,9.46,0.01,0.00,-0.01
4410,-1.07,-1.07,9.46,0.01,0.00,-0.01
4415,-1.07,-1.07,9.42,0.01,0.00,-0.01
4420,-1.04,-1.04,9.35,0.01,0.00,-0.01
4426,-1.04,-1.04,9.39,0.01,0.00,-0.01
4431,-1.04,-1.00,9.30,0.01,0.00,-0.01
4436,-1.04,-1.00,9.42,0.01,0.00,-0.01
4441,-1.04,-1.00,9.39,0.01,0.00,-0.01
4445,-1.04,-1.04,9.42,0.01,0.00,-0.01
4451,-1.04,-1.04,9.42,-0.01,0.01,-0.04
4455,-1.04,-1.07,9.38,-0.01,0.01,-0.04
4460,-1.07,-1.00,9.38,-0.01,0.01,-0.04
4466,-1.00,-1.07,9.43,-0.01,0.01,-0.04
4471,-1.04,-1.04,9.39,-0.01,0.01,-0.04
4476,-1.04,-1.04,9.39,-0.00,0.00,-0.04
4481,-1.04,-1.19,9.39,-0.00,0.00,-0.04
4485,-1.07,-1.19,9.46,-0.00,0.00,-0.04
4490,-1.04,-1.23,9.42,-0.00,0.00,-0.04
4496,-1.07,-1.23,9.43,-0.00,0.00,-0.04
4501,-1.11,-1.15,9.39,-0.00,0.00,-0.04
4506,-1.07,-1.23,9.38,-0.00,0.00,-0.04
4510,-1.07,-1.23,9.38,-0.00,-0.00,-0.04
4515,-1.07,-1.23,9.38,-0.00,-0.00,-0.03
4520,-1.11,-1.30,9.42,-0.00,-0.00,-0.03
4526,-1.15,-1.27,9.39,-0.00,-0.00,-0.03
4531,-1.11,-1.23,9.34,-0.00,-0.00,-0.03
4536,-1.15,-1.23,9.43,-0.00,-0.00,-0.03
4540,-1.07,-1.30,9.42,-0.00,-0.00,-0.03
4545,-1.11,-1.30,9.42,-0.00,-0.00,-0.03
4551,-1.11,-1.27,9.42,-0.00,-0.00,-0.03
4555,-1.15,-1.30,9.39,-0.00,-0.00,-0.03
4560,-1.15,-1.34,9.34,-0.00,-0.00,-0.03
4567,-1.15,-1.27,9.39,-0.00,-0.00,-0.03
4571,-1.11,-1.23,9.46,-0.00,-0.00,-0.03
4576,-1.11,-1.19,9.46,-0.00,-0.00,-0.03
4580,-1.11,-1.19,9.43,-0.00,-0.00,-0.03
4586,-1.11,-1.23,9.43,-0.00,-0.00,-0.03
4591,-1.07,-1.30,9.46,-0.00,-0.00,-0.03
4595,-1.07,-1.30,9.46,0.00,-0.00,-0.03
4601,-1.11,-1.30,9.42,0.00,-0.00,-0.03
4605,-1.15,-1.27,9.39,0.00,-0.00,-0.03
4610,-1.11,-1.27,9.42,0.00,-0.00,-0.03
4616,-1.11,-1.30,9.42,0.00,-0.00,-0.03
4621,-1.15,-1.23,9.43,0.00,-0.00,-0.03
4626,-1.11,-1.23,9.43,0.00,-0.00,-0.03
4630,-1.11,-1.23,9.43,0.01,-0.00,-0.03
4636,-1.11,-1.27,9.42,0.01,-0.00,-0.03
4641,-1.15,-1.27,9.42,0.01,-0.00,-0.03
4646,-1.11,-1.19,9.43,0.01,-0.00,-0.03
4651,-1.11,-1.19,9.43,0.01,-0.01,-0.02
4655,-1.11,-1.19,9.38,0.01,-0.01,-0.02
4661,-1.11,-1.19,9.38,0.01,-0.00,-0.02
4666,-1.11,-1.23,9.38,0.01,-0.00,-0.02
4670,-1.07,-1.15,9.42,0.01,-0.00,-0.02
4676,-1.11,-1.19,9.46,0.01,-0.00,-0.02
4680,-1.11,-1.15,9.46,0.01,-0.00,-0.02
4686,-1.11,-1.11,9.50,0.01,-0.00,-0.02
4691,-1.11,-1.11,9.42,0.01,-0.00,-0.02
4695,-1.07,-1.19,9.50,0.01,-0.00,-0.02
4701,-1.11,-1.19,9.46,0.01,-0.00,-0.02
4706,-1.07,-1.23,9.43,0.01,-0.00,-0.02
4710,-1.11,-1.19,9.34,0.01,-0.00,-0.02
4715,-1.04,-1.11,9.34,0.01,-0.00,-0.02
4720,-1.00,-1.19,9.39,0.01,-0.00,-0.02
4727,-1.04,-1.19,9.42,0.01,-0.00,-0.02
4732,-1.04,-1.19,9.42,0.01,-0.00,-0.02
4736,-1.04,-1.19,9.42,0.01,-0.01,-0.04
4740,-1.04,-1.27,9.43,0.01,-0.01,-0.04
4745,-1.07,-1.27,9.42,0.01,-0.01,-0.04
4751,-1.07,-1.27,9.42,0.01,-0.01,-0.04
4755,-1.11,-1.27,9.39,0.01,-0.01,-0.04
4761,-1.07,-1.27,9.35,0.01,-0.01,-0.04
4766,-1.07,-1.27,9.35,0.01,-0.01,-0.04
4771,-1.07,-1.27,9.35,0.01,0.00,-0.04
4776,-1.07,-1.27,9.35,0.02,-0.01,-0.03
4780,-1.04,-1.23,9.46,0.02,-0.01,-0.03
4786,-1.00,-1.27,9.46,0.02,-0.01,-0.03
4791,-1.04,-1.19,9.46,0.02,-0.01,-0.03
4795,-0.96,-1.23,9.50,0.02,-0.01,-0.03
4801,-1.00,-1.27,9.54,0.02,-0.01,-0.03
4805,-1.00,-1.23,9.46,0.02,-0.01,-0.03
4811,-1.00,-1.27,9.38,0.02,-0.01,-0.03
4815,-1.00,-1.34,9.35,0.02,-0.01,-0.03
4820,-0.88,-1.34,9.39,0.02,-0.01,-0.03
4827,-0.92,-1.27,9.43,0.02,-0.01,-0.03
4831,-0.88,-1.23,9.46,0.02,-0.01,-0.03
4835,-0.88,-1.23,9.46,0.02,0.01,0.01
4840,-1.04,-1.19,9.39,0.02,0.01,0.01
4846,-1.00,-1.19,9.35,0.02,0.01,0.01
4851,-0.92,-1.15,9.46,0.02,0.01,0.01
4855,-0.92,-1.15,9.46,0.03,-0.01,0.03
4860,-0.84,-1.23,9.42,0.03,-0.01,0.03
4865,-0.88,-1.30,9.34,0.03,-0.01,0.03
4870,-0.92,-1.19,9.42,0.03,-0.01,0.03
4876,-0.69,-1.27,9.46,0.03,-0.01,0.03
4881,-0.92,-1.23,9.42,0.03,-0.01,0.03
4886,-0.77,-1.34,9.43,0.03,-0.01,0.03
4891,-0.77,-1.34,9.43,0.04,-0.01,0.05
4896,-0.77,-1.34,9.43,0.04,-0.01,0.05
4901,-0.84,-1.15,9.46,0.04,-0.01,0.05
4906,-0.84,-1.11,9.38,0.04,-0.01,0.05
4910,-0.92,-1.15,9.38,0.04,-0.01,0.05
4916,-0.80,-1.15,9.39,0.04,-0.01,0.05
4921,-0.84,-1.15,9.34,0.04,-0.01,0.05
4827,-0.92,-1.27,9.43,0.02,-0.01,-0.03
4831,-0.88,-1.23,9.46,0.02,-0.01,-0.03
4835,-0.88,-1.23,9.46,0.02,0.01,0.01
4840,-1.04,-1.19,9.39,0.02,0.01,0.01
4846,-1.00,-1.19,9.35,0.02,0.01,0.01
4851,-0.92,-1.15,9.46,0.02,0.01,0.01
4855,-0.92,-1.15,9.46,0.03,-0.01,0.03
4860,-0.84,-1.23,9.42,0.03,-0.01,0.03
4865,-0.88,-1.30,9.34,0.03,-0.01,0.03
4870,-0.92,-1.19,9.42,0.03,-0.01,0.03
4876,-0.69,-1.27,9.46,0.03,-0.01,0.03
4881,-0.92,-1.23,9.42,0.03,-0.01,0.03
4886,-0.77,-1.34,9.43,0.03,-0.01,0.03
4891,-0.77,-1.34,9.43,0.04,-0.01,0.05
4896,-0.77,-1.34,9.43,0.04,-0.01,0.05
4901,-0.84,-1.15,9.46,0.04,-0.01,0.05
