timestamp,accX,accY,accZ,gyroX,gyroY,gyroZ
Break
6,1.95,-1.04,10.27,-0.14,-0.32,0.16
19,1.38,-0.65,8.39,-0.14,-0.32,0.16
21,1.38,-0.65,8.39,-0.06,0.06,-0.85
22,1.38,-0.65,8.39,-0.10,-0.24,-0.89
26,6.17,2.30,11.49,-0.10,-0.24,-0.89
31,3.71,2.26,12.22,-0.10,-0.24,-0.89
36,3.71,2.26,12.22,-0.12,-0.24,-0.99
41,3.71,2.26,12.22,-0.10,0.01,-1.08
46,3.71,2.26,12.22,-0.13,0.33,-1.09
51,-6.05,1.15,7.01,-0.13,0.33,-1.09
56,-6.05,1.15,7.01,-0.11,0.32,-0.95
61,-3.33,2.22,7.24,-0.11,0.32,-0.95
66,-3.33,2.22,7.24,-0.10,0.18,-0.86
71,7.12,0.80,10.91,-0.10,0.18,-0.86
76,6.32,-1.15,11.76,-0.10,0.18,-0.86
81,4.18,-1.30,12.34,-0.10,0.18,-0.86
86,4.18,-1.30,12.34,0.04,-0.25,-0.89
91,-2.53,-2.14,9.65,0.04,-0.25,-0.89
96,-5.63,-1.88,8.62,0.04,-0.25,-0.89
101,-5.63,-1.88,8.62,0.24,0.55,-0.66
106,-6.71,0.27,6.44,0.24,0.55,-0.66
111,-7.05,0.65,6.78,0.24,0.55,-0.66
117,-7.05,0.65,6.78,0.24,0.26,-0.43
121,-7.05,0.65,6.78,0.20,0.00,-0.38
126,-2.11,-2.03,7.12,0.20,0.00,-0.38
131,-2.38,-2.41,4.45,0.20,0.00,-0.38
136,-2.38,-2.41,4.45,0.20,-0.40,-0.25
141,0.92,-4.75,8.46,0.20,-0.40,-0.25
146,1.84,-4.79,9.92,0.20,-0.40,-0.25
151,4.21,-3.41,12.83,0.20,-0.40,-0.25
156,7.16,-0.42,16.74,0.20,-0.40,-0.25
161,9.27,2.57,15.32,0.20,-0.40,-0.25
166,9.27,2.57,15.32,0.38,0.13,0.02
172,9.27,2.57,15.32,0.28,0.16,-0.05
176,-1.84,-6.78,8.50,0.28,0.16,-0.05
181,-4.10,-9.08,5.55,0.28,0.16,-0.05
186,-10.15,-7.59,3.45,0.28,0.16,-0.05
191,-10.15,-7.59,3.45,0.38,0.13,0.07
196,5.71,-0.65,12.45,0.38,0.13,0.07
201,0.57,-0.04,10.38,0.38,0.13,0.07
206,0.57,-0.04,10.38,0.31,-0.38,0.03
211,4.94,-7.12,15.48,0.31,-0.38,0.03
216,-0.92,-6.28,11.54,0.31,-0.38,0.03
222,-6.97,-8.58,8.27,0.31,-0.38,0.03
226,-7.89,-5.29,3.29,0.31,-0.38,0.03
231,-7.01,-4.41,4.14,0.31,-0.38,0.03
237,-7.01,-4.41,4.14,0.82,0.27,0.76
241,-7.01,-4.41,4.14,0.78,0.07,0.89
246,-5.32,0.69,5.48,0.78,0.07,0.89
251,-3.52,-1.76,3.68,0.78,0.07,0.89
256,-1.95,-2.68,6.44,0.78,0.07,0.89
261,2.68,-3.64,13.60,0.78,0.07,0.89
266,5.17,-3.37,15.10,0.78,0.07,0.89
271,3.37,-5.02,15.48,0.78,0.07,0.89
276,3.37,-5.02,15.48,0.73,0.22,1.06
281,-2.30,-2.95,10.88,0.73,0.22,1.06
286,-4.33,-1.11,9.46,0.73,0.22,1.06
292,-4.33,-1.11,9.46,0.75,-0.23,1.08
296,-4.33,-1.11,9.46,0.72,-0.27,1.04
301,-3.56,-0.80,7.39,0.72,-0.27,1.04
306,-1.65,0.11,7.05,0.72,-0.27,1.04
311,-2.18,1.30,8.62,0.72,-0.27,1.04
316,-0.92,-2.87,8.12,0.72,-0.27,1.04
321,0.57,-2.84,9.46,0.72,-0.27,1.04
326,0.57,-2.84,9.46,0.38,-0.24,0.81
331,0.57,-2.84,9.46,0.40,-0.17,0.77
336,0.57,-2.84,9.46,0.44,-0.02,0.77
342,-1.04,-0.69,9.16,0.44,-0.02,0.77
346,-1.00,-1.46,8.66,0.44,-0.02,0.77
351,3.03,-1.46,8.27,0.44,-0.02,0.77
357,3.03,-1.46,8.27,0.43,-0.20,0.66
361,3.03,-1.46,8.27,0.41,-0.09,0.60
366,-2.76,0.08,7.66,0.41,-0.09,0.60
371,-4.33,1.88,8.46,0.41,-0.09,0.60
377,-7.24,3.14,6.66,0.41,-0.09,0.60
381,-5.48,2.91,7.28,0.41,-0.09,0.60
386,-5.48,2.91,7.28,0.20,-0.04,0.39
391,1.95,2.45,7.23,0.20,-0.04,0.39
396,1.95,2.45,7.23,0.15,-0.22,0.36
401,2.18,1.27,11.26,0.15,-0.22,0.36
406,-0.65,1.99,12.26,0.15,-0.22,0.36
411,1.46,2.72,10.04,0.15,-0.22,0.36
416,1.46,2.72,10.04,0.15,0.04,0.27
422,1.46,2.72,10.04,0.16,0.08,0.21
427,-1.42,1.53,12.76,0.16,0.08,0.21
431,0.38,-0.88,16.74,0.16,0.08,0.21
436,10.84,-4.18,18.50,0.16,0.08,0.21
441,10.11,-1.80,15.32,0.16,0.08,0.21
446,8.96,-1.57,13.87,0.16,0.08,0.21
451,8.96,-1.57,13.87,0.14,-0.33,0.19
456,4.67,-0.65,11.19,0.14,-0.33,0.19
461,-2.11,1.34,7.73,0.14,-0.33,0.19
466,-3.98,1.04,7.01,0.14,-0.33,0.19
471,-4.45,1.84,5.90,0.14,-0.33,0.19
476,-5.40,1.65,7.01,0.14,-0.33,0.19
481,-5.59,1.91,6.05,0.14,-0.33,0.19
486,-2.87,-0.19,5.48,0.14,-0.33,0.19
491,-2.99,-0.50,6.62,0.14,-0.33,0.19
496,3.79,-2.53,11.95,0.14,-0.33,0.19
501,6.93,-2.26,12.45,0.14,-0.33,0.19
506,5.29,-2.91,12.48,0.14,-0.33,0.19
511,7.55,-2.91,18.23,0.14,-0.33,0.19
516,4.94,-1.91,15.20,0.14,-0.33,0.19
521,-7.51,0.23,7.32,0.14,-0.33,0.19
526,-7.51,0.23,7.32,0.23,0.46,0.18
531,-4.75,2.14,6.78,0.23,0.46,0.18
536,-2.22,2.18,7.01,0.23,0.46,0.18
541,-1.04,1.99,7.12,0.23,0.46,0.18
546,0.92,0.04,7.51,0.23,0.46,0.18
551,0.27,-0.30,7.74,0.23,0.46,0.18
556,-2.80,0.65,4.56,0.23,0.46,0.18
561,-2.80,0.65,4.56,0.01,-0.12,0.20
566,-2.80,0.65,4.56,0.02,-0.05,0.20
571,-1.19,-0.65,9.85,0.02,-0.05,0.20
576,0.57,-1.53,12.83,0.02,-0.05,0.20
582,2.80,-1.15,14.79,0.02,-0.05,0.20
586,2.84,-0.30,15.10,0.02,-0.05,0.20
591,2.57,-0.27,14.02,0.02,-0.05,0.20
596,3.79,-1.04,11.98,0.02,-0.05,0.20
601,3.26,-0.80,11.60,0.02,-0.05,0.20
606,-1.68,-1.42,9.43,0.02,-0.05,0.20
611,-2.61,0.23,7.55,0.02,-0.05,0.20
617,-6.55,1.46,4.90,0.02,-0.05,0.20
621,-7.51,2.30,4.21,0.02,-0.05,0.20
626,-8.08,2.53,3.98,0.02,-0.05,0.20
631,-8.04,1.15,2.38,0.02,-0.05,0.20
636,-5.90,1.72,1.84,0.02,-0.05,0.20
641,0.42,-1.76,5.82,0.02,-0.05,0.20
646,0.42,-1.76,5.82,0.03,-0.37,0.47
651,2.91,-2.49,17.47,0.03,-0.37,0.47
656,3.10,0.11,18.66,0.03,-0.37,0.47
661,-0.08,-0.92,18.89,0.03,-0.37,0.47
667,0.19,-1.07,18.20,0.03,-0.37,0.47
671,-7.82,-3.60,13.29,0.03,-0.37,0.47
676,-0.42,-6.82,11.34,0.03,-0.37,0.47
681,2.57,-7.43,8.89,0.03,-0.37,0.47
686,4.10,-7.47,7.55,0.03,-0.37,0.47
691,3.33,-6.86,6.40,0.03,-0.37,0.47
696,4.37,-4.41,7.39,0.03,-0.37,0.47
701,4.37,-4.41,7.39,0.18,-0.04,0.49
706,-2.80,-1.42,9.96,0.18,-0.04,0.49
711,-8.35,2.34,10.15,0.18,-0.04,0.49
716,-7.24,3.41,7.77,0.18,-0.04,0.49
721,-7.85,3.03,8.31,0.18,-0.04,0.49
726,-1.53,0.57,7.27,0.18,-0.04,0.49
731,-1.53,0.57,7.27,0.02,-0.11,0.41
736,-1.53,0.57,7.27,-0.05,-0.38,0.45
741,4.21,1.42,5.52,-0.05,-0.38,0.45
746,7.97,0.11,7.62,-0.05,-0.38,0.45
751,7.97,0.11,7.62,-0.01,-0.70,0.34
756,4.10,0.80,13.60,-0.01,-0.70,0.34
761,1.65,2.61,13.87,-0.01,-0.70,0.34
766,-0.08,2.68,12.41,-0.01,-0.70,0.34
772,0.84,1.49,12.22,-0.01,-0.70,0.34
776,0.80,0.69,11.11,-0.01,-0.70,0.34
781,-0.61,1.11,10.04,-0.01,-0.70,0.34
787,0.08,0.50,9.85,-0.01,-0.70,0.34
791,1.15,0.77,14.05,-0.01,-0.70,0.34
796,1.15,0.80,10.95,-0.01,-0.70,0.34
801,0.46,1.57,10.69,-0.01,-0.70,0.34
806,0.08,2.07,9.73,-0.01,-0.70,0.34
811,-0.11,2.14,9.00,-0.01,-0.70,0.34
817,-1.07,0.88,6.20,-0.01,-0.70,0.34
821,-1.07,0.88,6.20,-0.24,0.01,0.07
826,-1.07,0.88,6.20,-0.26,0.07,0.06
831,0.11,1.76,3.41,-0.26,0.07,0.06
836,3.41,0.84,5.02,-0.26,0.07,0.06
841,4.33,0.96,6.36,-0.26,0.07,0.06
846,4.67,0.50,9.69,-0.26,0.07,0.06
851,5.13,-0.54,13.29,-0.26,0.07,0.06
856,5.13,-0.54,13.29,-0.22,0.12,0.10
861,-3.45,-1.23,11.11,-0.22,0.12,0.10
866,-4.86,-0.11,8.70,-0.22,0.12,0.10
872,-4.37,-0.38,8.62,-0.22,0.12,0.10
876,-1.07,-1.53,9.54,-0.22,0.12,0.10
881,-1.30,-1.46,9.34,-0.22,0.12,0.10
886,0.23,-1.46,9.69,-0.22,0.12,0.10
892,0.50,-2.84,9.88,-0.22,0.12,0.10
896,3.10,-4.45,13.29,-0.22,0.12,0.10
901,1.19,-4.25,13.11,-0.22,0.12,0.10
907,3.03,-3.14,12.87,-0.22,0.12,0.10
911,-0.77,-1.68,11.45,-0.22,0.12,0.10
916,2.91,-1.00,14.21,-0.22,0.12,0.10
921,3.68,0.08,14.64,-0.22,0.12,0.10
926,3.68,0.08,14.64,-0.03,-0.04,0.32
931,3.37,1.68,12.83,-0.03,-0.04,0.32
937,3.91,0.30,10.73,-0.03,-0.04,0.32
941,3.91,0.30,10.73,-0.03,0.35,0.36
947,3.91,0.30,10.73,-0.05,0.36,0.31
951,-3.98,3.18,10.03,-0.05,0.36,0.31
956,-3.98,3.18,10.03,-0.14,0.31,0.27
961,-3.98,3.18,10.03,-0.19,0.27,0.22
966,-5.71,2.34,9.50,-0.19,0.27,0.22
972,-5.25,1.42,8.42,-0.19,0.27,0.22
976,-5.25,1.42,8.42,-0.29,0.07,0.02
981,-0.69,-0.11,6.85,-0.29,0.07,0.02
986,1.04,0.19,7.16,-0.29,0.07,0.02
992,2.03,-0.34,7.70,-0.29,0.07,0.02
997,2.03,-0.34,7.70,-0.34,-0.47,0.04
1001,5.90,-1.80,11.84,-0.34,-0.47,0.04
1006,5.90,-1.80,11.84,-0.28,0.39,0.05
1011,0.04,-0.38,9.65,-0.28,0.39,0.05
1017,-0.46,0.38,9.89,-0.28,0.39,0.05
1021,-2.34,1.23,11.72,-0.28,0.39,0.05
1026,-2.34,1.23,11.72,-0.23,-0.04,0.17
1031,-2.34,1.23,11.72,-0.26,-0.07,0.15
1036,-0.23,0.57,9.89,-0.26,-0.07,0.15
1042,-0.23,0.57,9.89,-0.27,-0.05,0.12
1047,5.71,-0.38,6.55,-0.27,-0.05,0.12
1051,3.71,-1.11,5.40,-0.27,-0.05,0.12
1056,1.76,-0.11,4.90,-0.27,-0.05,0.12
1061,0.27,0.34,5.71,-0.27,-0.05,0.12
1067,0.27,0.34,5.71,-0.25,0.21,-0.00
1072,-3.64,1.30,8.12,-0.25,0.21,-0.00
1076,-3.64,1.30,8.12,-0.28,0.13,-0.07
1081,-3.64,1.30,8.12,-0.31,0.07,-0.10
1086,-3.64,1.30,8.12,-0.33,-0.04,-0.12
1092,1.99,-1.19,7.16,-0.33,-0.04,-0.12
1096,1.99,-1.19,7.16,-0.29,-0.10,-0.14
1101,-3.37,0.30,3.10,-0.29,-0.10,-0.14
1106,-1.00,0.15,6.02,-0.29,-0.10,-0.14
1112,-0.08,0.23,8.93,-0.29,-0.10,-0.14
1116,-0.08,0.23,8.93,-0.31,-0.07,-0.20
1121,6.09,-0.73,18.24,-0.31,-0.07,-0.20
1127,9.20,-1.49,20.04,-0.31,-0.07,-0.20
1131,9.20,-1.49,20.04,-0.27,0.05,-0.16
1136,5.32,-1.68,13.45,-0.27,0.05,-0.16
1142,2.49,-1.11,11.19,-0.27,0.05,-0.16
1146,2.49,-1.11,11.19,-0.23,0.18,-0.20
1151,2.49,-1.11,11.19,-0.23,0.18,-0.22
1156,0.27,-0.38,11.38,-0.23,0.18,-0.22
1162,-2.95,0.50,12.18,-0.23,0.18,-0.22
1166,-2.95,0.50,12.18,-0.24,0.19,-0.24
1171,3.68,-0.57,11.22,-0.24,0.19,-0.24
1177,2.68,-1.38,8.50,-0.24,0.19,-0.24
1181,2.68,-1.38,8.50,-0.25,-0.04,-0.27
1186,2.68,-1.38,8.50,-0.26,-0.14,-0.26
1191,2.84,0.38,8.58,-0.26,-0.14,-0.26
1197,3.22,0.54,10.04,-0.26,-0.14,-0.26
1201,3.22,0.54,10.04,-0.23,0.38,-0.35
1206,0.96,-0.15,11.60,-0.23,0.38,-0.35
1211,-1.30,0.77,10.39,-0.23,0.38,-0.35
1217,-2.22,0.38,10.41,-0.23,0.38,-0.35
1221,-2.22,0.38,10.41,-0.24,0.05,-0.37
1226,0.08,-0.42,12.07,-0.24,0.05,-0.37
1232,0.92,0.15,10.95,-0.24,0.05,-0.37
1236,0.92,0.15,10.95,-0.25,0.07,-0.33
1241,3.10,-0.19,9.12,-0.25,0.07,-0.33
1247,2.80,0.80,9.08,-0.25,0.07,-0.33
1251,2.80,0.80,9.08,-0.22,0.19,-0.24
1257,2.80,0.80,9.08,-0.19,0.25,-0.21
1261,-0.61,-0.34,9.35,-0.19,0.25,-0.21
1266,-0.61,-0.34,9.35,-0.13,0.19,-0.13
1271,-0.61,-0.34,9.35,-0.13,0.12,-0.05
1276,2.61,-0.65,8.12,-0.13,0.12,-0.05
1282,3.33,-0.50,8.32,-0.13,0.12,-0.05
1286,3.33,-0.50,8.32,-0.12,-0.15,0.09
1291,-1.11,0.30,5.21,-0.12,-0.15,0.09
1297,-4.06,0.73,3.83,-0.12,-0.15,0.09
1301,-4.06,0.73,3.83,-0.11,0.26,0.05
1306,-4.06,0.73,3.83,-0.09,0.14,0.05
1311,0.46,-1.65,7.81,-0.09,0.14,0.05
1317,-0.30,-1.34,7.85,-0.09,0.14,0.05
1321,-0.30,-1.34,7.85,-0.10,-0.17,0.17
1326,-0.30,-1.34,7.85,-0.11,-0.05,0.11
1332,3.98,-1.80,10.42,-0.11,-0.05,0.11
1336,3.98,-1.80,10.42,-0.11,0.17,0.07
1341,3.98,-1.80,10.42,-0.08,0.10,0.08
1347,3.98,-1.80,10.42,-0.06,0.06,0.09
1352,-0.27,-3.22,10.73,-0.06,0.06,0.09
1356,-0.27,-3.22,10.73,-0.05,0.26,0.06
1361,-2.34,-2.68,13.75,-0.05,0.26,0.06
1366,-5.79,-1.42,12.87,-0.05,0.26,0.06
1372,-4.14,-1.61,11.76,-0.05,0.26,0.06
1376,-4.14,-1.61,11.76,-0.08,0.04,-0.02
1381,2.30,-1.72,9.20,-0.08,0.04,-0.02
1387,4.64,-1.72,8.88,-0.08,0.04,-0.02
1391,4.64,-1.72,8.88,-0.08,-0.33,-0.06
1396,4.18,-0.57,8.84,-0.08,-0.33,-0.06
1401,2.07,-0.30,8.46,-0.08,-0.33,-0.06
1406,2.07,-0.30,8.46,-0.06,0.31,-0.17
1413,0.04,1.07,8.54,-0.06,0.31,-0.17
1417,-2.14,1.91,9.46,-0.06,0.31,-0.17
1421,-2.14,1.91,9.46,-0.13,-0.03,-0.27
1426,-2.14,1.91,9.46,-0.16,-0.04,-0.32
1431,0.84,1.19,10.91,-0.16,-0.04,-0.32
1437,2.22,1.65,9.61,-0.16,-0.04,-0.32
1442,2.22,1.65,9.61,-0.25,-0.14,-0.44
1448,2.22,1.65,9.61,-0.24,-0.08,-0.45
1451,2.22,1.65,9.61,-0.22,0.01,-0.41
1456,2.22,1.65,9.61,-0.21,0.06,-0.41
1461,2.22,1.65,9.61,-0.19,0.03,-0.38
1466,1.65,0.65,9.27,-0.19,0.03,-0.38
1472,2.53,1.27,10.15,-0.19,0.03,-0.38
1476,2.53,1.27,10.15,-0.11,0.01,-0.22
1481,0.84,1.49,10.34,-0.11,0.01,-0.22
1486,1.88,1.34,10.61,-0.11,0.01,-0.22
1492,2.72,0.73,10.23,-0.11,0.01,-0.22
1496,2.72,0.73,10.23,-0.16,-0.13,-0.19
1501,-0.96,-0.38,8.08,-0.16,-0.13,-0.19
1507,4.06,-0.96,7.47,-0.16,-0.13,-0.19
1511,4.06,-0.96,7.47,-0.12,-0.25,-0.14
1516,4.06,-0.96,7.47,-0.08,-0.18,-0.12
1522,4.67,-0.46,10.42,-0.08,-0.18,-0.12
1527,4.67,-0.46,10.42,-0.09,0.07,-0.12
1531,4.67,-0.46,10.42,-0.11,0.03,-0.14
1536,1.95,-1.23,11.61,-0.11,0.03,-0.14
1543,1.95,-0.88,11.68,-0.11,0.03,-0.14
1546,1.95,-0.88,11.68,-0.11,-0.03,-0.16
1551,1.95,-0.88,11.68,-0.11,0.02,-0.17
1557,4.79,-3.45,9.50,-0.11,0.02,-0.17
1561,4.79,-3.45,9.50,-0.09,-0.08,-0.18
1566,4.79,-3.45,9.50,-0.06,0.01,-0.17
1573,3.33,-1.88,7.59,-0.06,0.01,-0.17
1576,3.33,-1.88,7.59,-0.02,0.23,-0.17
1581,3.33,-1.88,7.59,-0.03,0.16,-0.18
1586,3.33,-1.88,7.59,-0.04,0.15,-0.22
1592,-4.94,-0.27,10.04,-0.04,0.15,-0.22
1597,-4.94,-0.27,10.04,-0.06,0.09,-0.27
1601,-4.94,-0.27,10.04,-0.06,-0.02,-0.27
1606,-4.94,-0.27,10.04,-0.06,-0.19,-0.23
1612,4.86,-2.30,9.80,-0.06,-0.19,-0.23
1616,4.86,-2.30,9.80,-0.02,-0.41,-0.18
1621,4.86,-2.30,9.80,0.02,-0.03,-0.21
1627,4.21,-1.65,10.03,0.02,-0.03,-0.21
1632,4.21,-1.65,10.03,0.04,0.24,-0.21
1636,4.21,-1.65,10.03,0.05,0.09,-0.20
1642,-2.45,-0.08,12.18,0.05,0.09,-0.20
1646,-2.45,-0.08,12.18,0.03,0.09,-0.18
1651,-2.45,-0.08,12.18,0.03,0.12,-0.20
1656,-2.34,0.30,9.12,0.03,0.12,-0.20
1662,1.84,0.42,7.01,0.03,0.12,-0.20
1666,1.84,0.42,7.01,-0.06,-0.18,-0.19
1672,1.84,0.42,7.01,-0.08,-0.36,-0.16
1677,3.52,-0.42,8.12,-0.08,-0.36,-0.16
1681,3.52,-0.42,8.12,-0.02,0.11,-0.14
1686,3.52,-0.42,8.12,-0.02,0.34,-0.15
1691,-1.42,0.73,9.69,-0.02,0.34,-0.15
1697,-1.19,1.46,10.27,-0.02,0.34,-0.15
1701,-1.19,1.46,10.27,0.02,-0.09,-0.02
1706,-1.19,1.46,10.27,0.00,-0.15,0.00
1712,1.23,-0.34,9.35,0.00,-0.15,0.00
1716,1.23,-0.34,9.35,-0.02,-0.06,-0.03
1721,1.23,-0.34,9.35,-0.01,0.03,-0.03
1726,1.23,-0.34,9.35,0.00,0.03,-0.02
1732,4.41,-2.26,15.94,0.00,0.03,-0.02
1736,4.41,-2.26,15.94,0.04,0.06,0.03
1741,4.41,-2.26,15.94,0.05,0.14,0.04
1747,-0.08,-1.49,10.07,0.05,0.14,0.04
1751,-0.08,-1.49,10.07,0.08,0.14,0.05
1756,-0.08,-1.49,10.07,0.07,0.07,0.04
1762,4.98,-1.27,12.83,0.07,0.07,0.04
1766,4.98,-1.27,12.83,0.05,-0.01,0.04
1772,4.98,-1.27,12.83,0.05,0.09,0.03
1776,-3.26,-0.15,6.05,0.05,0.09,0.03
1782,-3.37,-0.11,6.40,0.05,0.09,0.03
1786,-3.37,-0.11,6.40,0.01,0.12,-0.04
1791,-3.37,-0.11,6.40,0.00,-0.02,-0.03
1797,3.68,-0.57,9.31,0.00,-0.02,-0.03
1801,3.68,-0.57,9.31,0.02,-0.14,-0.02
1807,3.68,-0.57,9.31,-0.01,0.12,-0.05
1811,1.00,-0.54,7.47,-0.01,0.12,-0.05
1818,-1.72,-0.46,8.20,-0.01,0.12,-0.05
1822,-1.72,-0.46,8.20,-0.02,0.01,-0.11
1826,-1.72,-0.46,8.20,-0.01,0.02,-0.10
1832,-0.23,-0.96,11.96,-0.01,0.02,-0.10
1837,-0.23,-0.96,11.96,0.01,0.06,-0.10
1842,-0.23,-0.96,11.96,0.02,0.00,-0.09
1848,-0.23,-0.96,11.96,0.02,-0.06,-0.07
1851,-0.23,-0.96,11.96,0.02,-0.11,-0.06
1856,-0.23,-0.96,11.96,0.01,-0.08,-0.06
1861,-0.23,-0.96,11.96,0.01,0.01,-0.08
1867,2.61,-0.30,9.43,0.01,0.01,-0.08
1871,2.61,-0.30,9.43,0.00,0.13,-0.10
1877,2.61,-0.30,9.43,-0.00,0.08,-0.10
1881,-0.19,-0.23,9.42,-0.00,0.08,-0.10
1887,0.15,-0.23,9.12,-0.00,0.08,-0.10
1891,0.15,-0.23,9.12,-0.04,-0.05,-0.11
1896,0.15,-0.23,9.12,-0.05,-0.06,-0.14
1902,-0.65,0.00,6.47,-0.05,-0.06,-0.14
1906,-0.65,0.00,6.47,-0.05,-0.02,-0.14
1911,-0.65,0.00,6.47,-0.06,-0.04,-0.15
1917,2.84,-1.88,11.11,-0.06,-0.04,-0.15
1921,2.84,-1.88,11.11,-0.05,-0.11,-0.13
1927,2.84,-1.88,11.11,-0.04,-0.05,-0.12
1931,2.84,-1.88,11.11,-0.01,0.02,-0.11
1937,3.03,-1.68,10.11,-0.01,0.02,-0.11
1941,3.03,-1.68,10.11,0.01,-0.02,-0.09
1946,3.03,-1.68,10.11,0.03,-0.04,-0.07
1952,2.22,-1.72,9.73,0.03,-0.04,-0.07
1956,2.22,-1.72,9.73,0.03,0.04,-0.07
1962,2.22,-1.72,9.73,0.02,0.06,-0.09
1966,2.22,-1.72,9.73,0.02,0.02,-0.11
1972,0.88,-1.72,10.27,0.02,0.02,-0.11
1976,0.88,-1.72,10.27,0.03,-0.00,-0.09
1981,0.88,-1.72,10.27,0.03,0.01,-0.09
1986,0.88,-1.72,10.27,0.02,-0.01,-0.09
1993,-0.73,-0.34,5.82,0.02,-0.01,-0.09
1996,-0.73,-0.34,5.82,0.02,-0.05,-0.09
2002,2.72,-1.38,9.96,0.02,-0.05,-0.09
2007,2.95,-1.72,10.49,0.02,-0.05,-0.09
2011,2.95,-1.72,10.49,0.03,-0.05,-0.06
2016,2.95,-1.72,10.49,0.04,-0.00,-0.04
2022,1.00,-0.84,9.80,0.04,-0.00,-0.04
2027,1.00,-0.84,9.80,0.06,0.01,-0.03
2031,1.00,-0.84,9.80,0.06,-0.04,-0.02
2036,1.00,-0.84,9.80,0.06,-0.06,0.00
2043,2.03,-1.72,10.31,0.06,-0.06,0.00
2046,2.03,-1.72,10.31,0.06,-0.01,0.03
2051,2.03,-1.72,10.31,0.07,0.02,0.04
2057,-1.65,-1.11,9.00,0.07,0.02,0.04
2061,-1.65,-1.11,9.00,0.09,-0.00,0.05
2066,-1.65,-1.11,9.00,0.09,-0.04,0.05
2071,-0.27,-0.42,9.43,0.09,-0.04,0.05
2077,0.54,-0.19,8.73,0.09,-0.04,0.05
2081,0.54,-0.19,8.73,0.08,-0.26,0.07
2086,0.54,-0.19,8.73,0.09,-0.19,0.05
2092,1.76,1.04,5.06,0.09,-0.19,0.05
2096,1.76,1.04,5.06,0.04,-0.24,0.02
2101,1.76,1.04,5.06,0.05,-0.30,0.02
2107,1.76,1.04,5.06,0.08,-0.11,0.06
2111,1.76,1.04,5.06,0.06,0.15,0.06
2117,1.76,1.04,5.06,0.05,0.18,0.03
2121,1.76,1.04,5.06,0.04,0.11,0.01
2128,-5.44,-0.73,8.50,0.04,0.11,0.01
2131,-5.44,-0.73,8.50,0.02,0.07,-0.08
2136,-5.44,-0.73,8.50,0.01,0.02,-0.08
2141,2.30,-2.72,10.96,0.01,0.02,-0.08
2148,3.98,-1.99,11.30,0.01,0.02,-0.08
2152,3.98,-1.99,11.30,-0.03,-0.29,-0.03
2156,4.52,-0.77,9.43,-0.03,-0.29,-0.03
2162,3.60,-1.61,8.16,-0.03,-0.29,-0.03
2166,3.60,-1.61,8.16,-0.01,0.14,-0.04
2171,3.60,-1.61,8.16,0.03,-0.01,-0.01
2177,2.30,-1.00,11.68,0.03,-0.01,-0.01
2181,2.30,-1.00,11.68,0.09,0.04,0.07
2186,2.30,-1.00,11.68,0.09,0.12,0.10
2191,2.30,-1.00,11.68,0.11,0.12,0.11
2197,-2.57,0.54,6.71,0.11,0.12,0.11
2201,-2.57,0.54,6.71,0.06,-0.05,0.08
2206,-2.57,0.54,6.71,0.03,-0.22,0.07
2212,3.60,-1.23,10.65,0.03,-0.22,0.07
2217,3.60,-1.23,10.65,0.05,-0.04,0.10
2221,3.60,-1.23,10.65,0.03,0.14,0.08
2227,3.60,-1.23,10.65,0.04,0.09,0.06
2231,3.60,-1.23,10.65,0.04,-0.05,0.07
2236,3.60,-1.23,10.65,0.04,-0.11,0.06
2241,3.60,-1.23,10.65,0.02,-0.05,0.06
2247,3.68,-1.68,12.41,0.02,-0.05,0.06
2251,3.68,-1.68,12.41,0.03,0.06,0.09
2256,3.68,-1.68,12.41,0.04,0.05,0.11
2261,1.19,-1.57,10.77,0.04,0.05,0.11
2267,1.34,-1.42,9.89,0.04,0.05,0.11
2271,1.34,-1.42,9.89,0.06,0.08,0.14
2276,1.34,-1.42,9.89,0.07,0.06,0.16
2282,1.65,-0.77,8.81,0.07,0.06,0.16
2286,1.65,-0.77,8.81,0.08,0.06,0.19
2291,1.65,-0.77,8.81,0.07,0.08,0.19
2297,-0.77,0.00,6.89,0.07,0.08,0.19
2301,-0.77,0.00,6.89,0.04,0.05,0.20
2306,-0.77,0.00,6.89,0.04,0.02,0.19
2311,-0.77,0.00,6.89,0.02,-0.03,0.18
2317,0.57,-1.19,10.04,0.02,-0.03,0.18
2321,0.57,-1.19,10.04,0.01,-0.09,0.21
2326,0.57,-1.19,10.04,0.00,-0.04,0.21
2332,0.57,-1.19,10.04,0.00,-0.01,0.22
2336,0.57,-1.19,10.04,0.02,-0.02,0.22
2341,0.57,-1.19,10.04,0.02,-0.04,0.22
2346,0.57,-1.19,10.04,0.03,-0.03,0.22
2352,1.07,-1.80,11.11,0.03,-0.03,0.22
2356,1.07,-1.80,11.11,0.04,0.04,0.23
2361,1.07,-1.80,11.11,0.04,0.03,0.21
2367,1.07,-1.80,11.11,0.05,0.00,0.22
2371,1.07,-1.80,11.11,0.04,-0.04,0.21
2376,1.07,-1.80,11.11,0.04,-0.05,0.21
2381,1.07,-1.80,11.11,0.04,-0.05,0.20
2387,3.64,-1.34,9.30,0.04,-0.05,0.20
2391,3.64,-1.34,9.30,0.04,-0.01,0.19
2396,3.64,-1.34,9.30,0.03,0.06,0.17
2402,-0.30,0.19,8.89,0.03,0.06,0.17
2406,-0.30,0.19,8.89,0.01,0.11,0.13
2411,-0.30,0.19,8.89,-0.00,0.05,0.11
2416,-0.30,0.19,8.89,-0.02,-0.01,0.09
2422,0.23,0.23,10.95,-0.02,-0.01,0.09
2426,0.23,0.23,10.95,-0.04,-0.03,0.06
2431,0.23,0.23,10.95,-0.06,-0.02,0.06
2436,1.88,0.00,9.04,-0.06,-0.02,0.06
2441,1.88,0.00,9.04,-0.06,-0.02,0.04
2446,1.88,0.00,9.04,-0.07,0.00,0.04
2452,1.88,0.00,9.04,-0.07,0.02,0.03
2456,1.88,0.00,9.04,-0.07,0.04,0.02
2461,1.88,0.00,9.04,-0.07,0.05,0.00
2466,1.88,0.00,9.04,-0.07,0.04,-0.01
2472,0.73,0.30,10.50,-0.07,0.04,-0.01
2476,0.73,0.30,10.50,-0.09,0.02,-0.03
2481,0.73,0.30,10.50,-0.10,0.01,-0.05
2487,0.73,0.30,10.50,-0.11,0.00,-0.07
2491,0.73,0.30,10.50,-0.11,-0.00,-0.08
2496,0.73,0.30,10.50,-0.11,0.00,-0.10
2501,0.73,0.30,10.50,-0.11,0.02,-0.12
2507,3.14,-0.80,10.27,-0.11,0.02,-0.12
2511,3.14,-0.80,10.27,-0.10,0.06,-0.12
2516,3.14,-0.80,10.27,-0.09,0.06,-0.13
2522,3.14,-0.80,10.27,-0.08,0.11,-0.13
2526,3.14,-0.80,10.27,-0.08,0.21,-0.14
2531,3.14,-0.80,10.27,-0.08,0.28,-0.17
2536,3.14,-0.80,10.27,-0.10,0.24,-0.20
2542,-1.27,-1.07,11.95,-0.10,0.24,-0.20
2546,-1.27,-1.07,11.95,-0.12,0.05,-0.24
2551,-1.27,-1.07,11.95,-0.12,-0.01,-0.22
2556,-1.27,-1.07,11.95,-0.13,0.03,-0.22
2561,-1.27,-1.07,11.95,-0.14,0.10,-0.26
2566,-1.27,-1.07,11.95,-0.14,0.04,-0.29
2571,-1.27,-1.07,11.95,-0.13,-0.08,-0.30
2577,3.75,-2.11,8.73,-0.13,-0.08,-0.30
2581,3.75,-2.11,8.73,-0.08,-0.06,-0.26
2586,3.75,-2.11,8.73,-0.07,0.11,-0.25
2592,3.75,-2.11,8.73,-0.07,0.17,-0.25
2596,3.75,-2.11,8.73,-0.05,0.10,-0.26
2601,3.75,-2.11,8.73,-0.05,0.05,-0.26
2606,3.75,-2.11,8.73,-0.06,0.02,-0.28
2612,-1.42,-0.11,9.46,-0.06,0.02,-0.28
2616,-1.42,-0.11,9.46,-0.07,-0.01,-0.30
2621,-1.42,-0.11,9.46,-0.07,-0.06,-0.30
2627,-1.42,-0.11,9.46,-0.07,-0.07,-0.30
2631,-1.42,-0.11,9.46,-0.07,-0.01,-0.29
2636,-1.42,-0.11,9.46,-0.07,0.05,-0.29
2642,-1.42,-0.11,9.46,-0.07,0.06,-0.28
2646,-1.42,-0.11,9.46,-0.06,0.05,-0.26
2651,-1.42,-0.11,9.46,-0.06,0.08,-0.26
2656,-1.42,-0.11,9.46,-0.08,0.11,-0.26
2661,-2.14,0.34,10.27,-0.08,0.11,-0.26
2666,-2.14,0.34,10.27,-0.08,0.02,-0.26
2671,0.30,-1.19,10.15,-0.08,0.02,-0.26
2677,0.30,-1.19,10.15,-0.07,-0.06,-0.21
2681,0.30,-1.19,10.15,-0.05,-0.13,-0.13
2686,0.30,-1.19,10.15,-0.04,-0.07,-0.14
2691,0.30,-1.19,10.15,-0.05,-0.04,-0.13
2696,2.18,-0.27,11.07,-0.05,-0.04,-0.13
2701,2.18,-0.27,11.07,-0.03,-0.04,-0.05
2706,2.18,-0.27,11.07,-0.02,-0.02,-0.03
2712,2.18,-0.27,11.07,-0.03,-0.00,-0.02
2716,2.18,-0.27,11.07,-0.02,0.00,0.00
2721,2.18,-0.27,11.07,-0.01,-0.04,0.01
2726,2.18,-0.27,11.07,-0.01,-0.05,0.02
2732,2.03,-1.68,10.49,-0.01,-0.05,0.02
2736,2.03,-1.68,10.49,-0.01,-0.01,0.02
2741,2.03,-1.68,10.49,-0.01,-0.02,0.03
2746,2.03,-1.68,10.49,-0.00,-0.00,0.03
2751,2.03,-1.68,10.49,-0.00,0.01,0.04
2756,2.03,-1.68,10.49,-0.01,0.04,0.03
2761,2.03,-1.68,10.49,-0.01,0.02,0.04
2767,0.50,-1.91,9.88,-0.01,0.02,0.04
2771,0.50,-1.91,9.88,-0.01,-0.02,0.03
2776,0.50,-1.91,9.88,-0.02,-0.00,0.04
2782,0.50,-1.91,9.88,-0.03,-0.01,0.05
2786,0.50,-1.91,9.88,-0.01,-0.03,0.06
2791,0.50,-1.91,9.88,-0.00,-0.02,0.08
2796,0.50,-1.91,9.88,0.02,0.04,0.09
2802,1.57,-1.68,8.73,0.02,0.04,0.09
2806,1.57,-1.68,8.73,0.01,0.09,0.08
2811,1.57,-1.68,8.73,0.02,0.06,0.07
2816,1.57,-1.68,8.73,0.02,0.03,0.09
2821,1.57,-1.68,8.73,0.03,0.00,0.11
2827,1.57,-1.68,8.73,0.03,0.02,0.11
2831,1.57,-1.68,8.73,0.02,0.01,0.12
2837,-0.50,-2.03,8.93,0.02,0.01,0.12
2842,-0.50,-2.03,8.93,0.04,-0.07,0.11
2846,-0.50,-2.03,8.93,0.04,-0.12,0.14
2851,2.11,-1.27,10.50,0.04,-0.12,0.14
2856,2.11,-1.27,10.50,0.04,0.01,0.14
2861,2.11,-1.27,10.50,0.04,0.05,0.14
2866,2.11,-1.27,10.50,0.02,0.03,0.13
2871,2.11,-1.27,10.50,0.03,-0.00,0.14
2876,2.11,-1.27,10.50,0.01,-0.01,0.13
2881,2.11,-1.27,10.50,0.01,0.01,0.14
2887,0.80,-1.61,9.80,0.01,0.01,0.14
2891,0.80,-1.61,9.80,-0.01,0.02,0.14
2896,0.80,-1.61,9.80,-0.01,-0.02,0.15
2901,0.80,-1.61,9.80,-0.00,-0.03,0.16
2907,1.80,-0.69,10.65,-0.00,-0.03,0.16
2911,1.80,-0.69,10.65,0.01,-0.01,0.21
2916,1.80,-0.69,10.65,0.02,0.01,0.23
2922,1.76,-0.88,9.39,0.02,0.01,0.23
2926,1.76,-0.88,9.39,0.03,0.01,0.24
2931,1.76,-0.88,9.39,0.03,0.01,0.26
2936,1.76,-0.88,9.39,0.03,0.00,0.26
2941,1.76,-0.88,9.39,0.03,0.00,0.26
2946,1.76,-0.88,9.39,0.02,-0.02,0.26
2951,1.76,-0.88,9.39,0.01,-0.02,0.26
2957,2.07,-0.69,9.46,0.01,-0.02,0.26
2961,2.07,-0.69,9.46,-0.01,-0.02,0.25
2966,2.07,-0.69,9.46,-0.02,0.01,0.24
2971,2.07,-0.69,9.46,-0.03,0.03,0.24
2976,2.07,-0.69,9.46,-0.02,0.03,0.23
2981,2.07,-0.69,9.46,-0.04,0.01,0.22
2986,2.07,-0.69,9.46,-0.04,-0.00,0.23
2992,0.61,-0.77,9.81,-0.04,-0.00,0.23
2996,0.61,-0.77,9.81,-0.03,0.03,0.23
3001,0.61,-0.77,9.81,-0.03,0.02,0.24
3006,0.61,-0.77,9.81,-0.03,-0.01,0.25
3011,0.61,-0.77,9.81,-0.03,0.01,0.25
3016,0.61,-0.77,9.81,-0.04,0.03,0.25
3021,0.61,-0.77,9.81,-0.04,0.03,0.25
3027,-0.42,0.34,8.36,-0.04,0.03,0.25
3031,-0.42,0.34,8.36,-0.06,0.02,0.22
3036,-0.42,0.34,8.36,-0.06,0.01,0.20
3042,-0.42,0.34,8.36,-0.07,0.01,0.20
3047,0.80,0.80,8.70,-0.07,0.01,0.20
3051,0.80,0.80,8.70,-0.11,0.01,0.17
3056,0.80,0.80,8.70,-0.12,0.02,0.16
3062,0.19,0.19,9.04,-0.12,0.02,0.16
3066,0.19,0.19,9.04,-0.15,-0.01,0.14
3071,0.19,0.19,9.04,-0.15,-0.01,0.14
3077,0.19,0.19,9.04,-0.15,-0.01,0.15
3081,0.19,0.19,9.04,-0.14,-0.01,0.16
3086,0.19,0.19,9.04,-0.14,-0.02,0.19
3092,0.19,0.19,9.04,-0.13,-0.02,0.21
3096,0.19,0.19,9.04,-0.13,-0.01,0.24
3101,0.19,0.19,9.04,-0.12,0.01,0.27
3106,0.19,0.19,9.04,-0.12,0.03,0.28
3112,0.19,0.19,9.04,-0.11,0.01,0.29
3116,0.19,0.19,9.04,-0.10,-0.03,0.30
3121,0.19,0.19,9.04,-0.09,-0.06,0.32
3126,0.19,0.19,9.04,-0.10,-0.06,0.33
3132,0.88,-0.38,9.65,-0.10,-0.06,0.33
3136,0.88,-0.38,9.65,-0.13,-0.02,0.34
3141,0.88,-0.38,9.65,-0.15,-0.02,0.33
3147,0.27,0.19,9.12,-0.15,-0.02,0.33
3151,0.27,0.19,9.12,-0.17,-0.02,0.33
3156,0.27,0.19,9.12,-0.18,-0.00,0.33
3161,0.27,0.19,9.12,-0.19,-0.00,0.33
3167,-0.46,-0.46,9.27,-0.19,-0.00,0.33
3171,-0.46,-0.46,9.27,-0.19,-0.06,0.35
3176,-0.46,-0.46,9.27,-0.20,-0.06,0.36
3182,1.80,-0.69,10.03,-0.20,-0.06,0.36
3186,1.80,-0.69,10.03,-0.19,-0.04,0.39
3191,1.80,-0.69,10.03,-0.18,-0.02,0.41
3197,1.80,-0.69,10.03,-0.18,-0.00,0.41
3202,0.23,-0.65,9.61,-0.18,-0.00,0.41
3206,0.23,-0.65,9.61,-0.17,0.02,0.44
3211,0.23,-0.65,9.61,-0.17,0.03,0.44
3217,-1.99,-0.34,9.34,-0.17,0.03,0.44
3221,-1.99,-0.34,9.34,-0.17,-0.07,0.44
3226,-1.99,-0.34,9.34,-0.16,-0.13,0.46
3231,-1.99,-0.34,9.34,-0.15,-0.15,0.46
3237,2.03,-0.73,8.66,-0.15,-0.15,0.46
3241,2.03,-0.73,8.66,-0.15,0.01,0.43
3246,2.03,-0.73,8.66,-0.19,0.05,0.42
3252,1.11,0.38,12.26,-0.19,0.05,0.42
3256,1.11,0.38,12.26,-0.24,0.10,0.37
3261,1.11,0.38,12.26,-0.26,0.09,0.34
3267,1.11,0.38,12.26,-0.27,0.07,0.33
3271,1.11,0.38,12.26,-0.25,0.03,0.33
3277,1.11,0.38,12.26,-0.24,-0.03,0.33
3281,1.11,0.38,12.26,-0.21,-0.06,0.33
3287,2.95,-2.41,8.70,-0.21,-0.06,0.33
3291,2.95,-2.41,8.70,-0.19,0.01,0.31
3296,2.95,-2.41,8.70,-0.19,0.08,0.30
3302,2.95,-2.41,8.70,-0.20,0.09,0.29
3306,2.95,-2.41,8.70,-0.20,0.06,0.29
3311,2.95,-2.41,8.70,-0.19,0.02,0.29
3316,2.95,-2.41,8.70,-0.20,0.00,0.29
3322,2.11,-3.22,11.61,-0.20,0.00,0.29
3326,2.11,-3.22,11.61,-0.21,0.04,0.29
3331,2.11,-3.22,11.61,-0.20,0.06,0.27
3337,2.11,-3.22,11.61,-0.18,0.07,0.26
3341,2.11,-3.22,11.61,-0.17,0.08,0.25
3346,2.11,-3.22,11.61,-0.17,0.10,0.23
3351,2.11,-3.22,11.61,-0.16,0.12,0.21
3357,1.19,-1.61,10.96,-0.16,0.12,0.21
3361,1.19,-1.61,10.96,-0.17,0.12,0.17
3366,1.19,-1.61,10.96,-0.17,0.10,0.16
3372,1.11,-0.80,9.65,-0.17,0.10,0.16
3376,1.11,-0.80,9.65,-0.17,0.08,0.14
3381,1.11,-0.80,9.65,-0.15,0.07,0.14
3387,1.11,-0.80,9.65,-0.16,0.06,0.13
3392,3.33,-0.69,9.58,-0.16,0.06,0.13
3397,3.33,-0.69,9.58,-0.15,0.10,0.13
3401,3.33,-0.69,9.58,-0.15,0.13,0.14
3407,1.49,-0.30,9.69,-0.15,0.13,0.14
3411,1.49,-0.30,9.69,-0.15,0.11,0.14
3416,1.49,-0.30,9.69,-0.16,0.07,0.14
3421,1.49,-0.30,9.69,-0.17,0.04,0.14
3427,2.26,-1.38,9.04,-0.17,0.04,0.14
3431,2.26,-1.38,9.04,-0.19,0.05,0.12
3436,2.26,-1.38,9.04,-0.20,0.04,0.10
3442,3.29,-1.46,8.27,-0.20,0.04,0.10
3446,3.29,-1.46,8.27,-0.21,0.06,0.05
3451,3.29,-1.46,8.27,-0.22,0.10,0.02
3456,3.29,-1.46,8.27,-0.24,0.10,0.00
3462,5.36,-0.65,12.87,-0.24,0.10,0.00
3466,5.36,-0.65,12.87,-0.26,0.11,-0.06
3471,5.36,-0.65,12.87,-0.28,0.14,-0.10
3477,2.14,-1.27,8.85,-0.28,0.14,-0.10
3481,2.14,-1.27,8.85,-0.29,0.13,-0.16
3486,2.14,-1.27,8.85,-0.30,0.09,-0.18
3491,2.14,-1.27,8.85,-0.31,0.08,-0.19
3497,2.91,-0.34,7.70,-0.31,0.08,-0.19
3501,2.91,-0.34,7.70,-0.35,0.10,-0.24
3506,2.91,-0.34,7.70,-0.36,0.12,-0.27
3512,2.57,-1.19,9.46,-0.36,0.12,-0.27
3516,2.57,-1.19,9.46,-0.38,0.09,-0.32
3521,2.57,-1.19,9.46,-0.39,0.11,-0.34
3526,2.57,-1.19,9.46,-0.39,0.12,-0.34
3531,1.61,-1.88,9.20,-0.39,0.12,-0.34
3537,1.61,-1.88,9.20,-0.40,0.11,-0.35
3542,1.61,-1.88,9.20,-0.43,0.10,-0.36
3546,1.61,-1.88,9.20,-0.43,0.11,-0.37
3551,1.61,-1.88,9.20,-0.43,0.12,-0.38
3556,1.61,-1.88,9.20,-0.42,0.13,-0.38
3562,1.61,-1.88,9.20,-0.42,0.13,-0.37
3566,1.61,-1.88,9.20,-0.42,0.14,-0.38
3571,1.61,-1.88,9.20,-0.40,0.15,-0.37
3576,1.61,-1.88,9.20,-0.39,0.14,-0.35
3582,0.65,-2.61,7.82,-0.39,0.14,-0.35
3586,0.65,-2.61,7.82,-0.39,0.10,-0.34
3591,0.65,-2.61,7.82,-0.39,0.09,-0.33
3597,0.46,-1.99,8.16,-0.39,0.09,-0.33
3601,0.46,-1.99,8.16,-0.38,0.05,-0.31
3606,0.46,-1.99,8.16,-0.36,0.04,-0.30
3611,0.46,-1.99,8.16,-0.34,0.06,-0.30
3617,1.15,-3.95,8.66,-0.34,0.06,-0.30
3621,1.15,-3.95,8.66,-0.32,0.06,-0.31
3626,1.15,-3.95,8.66,-0.34,0.05,-0.31
3632,1.53,-3.79,9.58,-0.34,0.05,-0.31
3636,1.53,-3.79,9.58,-0.34,0.05,-0.29
3641,1.53,-3.79,9.58,-0.31,0.04,-0.28
3646,1.53,-3.79,9.58,-0.32,0.07,-0.27
3652,1.84,-5.48,7.77,-0.32,0.07,-0.27
3656,1.84,-5.48,7.77,-0.31,0.04,-0.25
3661,1.84,-5.48,7.77,-0.30,0.04,-0.24
3667,0.57,-2.91,9.69,-0.30,0.04,-0.24
3671,0.57,-2.91,9.69,-0.28,0.12,-0.20
3676,0.57,-2.91,9.69,-0.27,0.12,-0.17
3681,0.57,-2.91,9.69,-0.25,0.07,-0.14
3687,0.65,-4.94,9.04,-0.25,0.07,-0.14
3691,0.65,-4.94,9.04,-0.22,0.01,-0.10
3696,0.65,-4.94,9.04,-0.21,0.05,-0.10
3702,0.54,-4.98,8.50,-0.21,0.05,-0.10
3706,0.54,-4.98,8.50,-0.18,0.03,-0.07
3711,0.54,-4.98,8.50,-0.18,0.01,-0.07
3716,0.54,-4.98,8.50,-0.16,0.03,-0.06
3722,0.11,-4.86,9.65,-0.16,0.03,-0.06
3726,0.11,-4.86,9.65,-0.13,0.03,-0.03
3732,0.11,-4.86,9.65,-0.14,0.02,-0.03
3737,0.42,-4.18,9.04,-0.14,0.02,-0.03
3741,0.42,-4.18,9.04,-0.13,0.03,-0.01
3746,0.42,-4.18,9.04,-0.13,0.04,-0.00
3752,-0.23,-4.18,9.50,-0.13,0.04,-0.00
3756,-0.23,-4.18,9.50,-0.10,0.03,0.02
3761,-0.23,-4.18,9.50,-0.10,0.03,0.03
3766,-0.23,-4.18,9.50,-0.09,0.03,0.04
3772,-0.04,-3.26,9.65,-0.09,0.03,0.04
3776,-0.04,-3.26,9.65,-0.09,0.01,0.06
3781,-0.04,-3.26,9.65,-0.09,0.01,0.06
3787,-0.04,-3.26,9.65,-0.08,0.00,0.06
3791,-0.04,-3.26,9.65,-0.08,0.01,0.05
3796,-0.04,-3.26,9.65,-0.07,0.02,0.05
3801,-0.04,-3.26,9.65,-0.08,0.02,0.04
3807,-0.69,-3.03,9.27,-0.08,0.02,0.04
3811,-0.69,-3.03,9.27,-0.07,0.02,0.03
3816,-0.69,-3.03,9.27,-0.07,0.01,0.01
3822,-0.57,-3.10,9.35,-0.07,0.01,0.01
3826,-0.57,-3.10,9.35,-0.06,0.01,-0.01
3831,-0.57,-3.10,9.35,-0.07,0.02,-0.03
3836,-0.57,-3.10,9.35,-0.07,0.02,-0.05
3842,-0.69,-2.84,9.08,-0.07,0.02,-0.05
3846,-0.69,-2.84,9.08,-0.06,0.01,-0.06
3851,-0.69,-2.84,9.08,-0.06,0.02,-0.07
3857,-0.73,-2.64,9.31,-0.06,0.02,-0.07
3861,-0.73,-2.64,9.31,-0.05,0.02,-0.08
3866,-0.73,-2.64,9.31,-0.04,0.02,-0.08
3871,-0.73,-2.64,9.31,-0.05,0.01,-0.09
3877,-1.04,-2.80,9.12,-0.05,0.01,-0.09
3881,-1.04,-2.80,9.12,-0.05,0.01,-0.09
3887,-1.04,-2.80,9.12,-0.03,0.00,-0.08
3892,-0.77,-2.49,9.27,-0.03,0.00,-0.08
3896,-0.77,-2.49,9.27,-0.03,0.01,-0.07
3901,-0.77,-2.49,9.27,-0.04,0.01,-0.07
3906,-0.77,-2.49,9.27,-0.03,0.01,-0.07
3912,-0.80,-2.30,9.34,-0.03,0.01,-0.07
3916,-0.80,-2.30,9.34,-0.04,0.00,-0.07
3922,-0.80,-2.30,9.34,-0.04,0.01,-0.07
3927,-0.80,-2.30,9.34,-0.04,0.01,-0.08
3931,-0.80,-2.30,9.34,-0.04,0.01,-0.07
3936,-0.80,-2.30,9.34,-0.04,0.01,-0.08
3941,-0.65,-1.57,9.30,-0.04,0.01,-0.08
3947,-0.65,-1.53,9.31,-0.04,0.01,-0.08
3951,-0.65,-1.53,9.31,-0.05,0.02,-0.08
3956,-0.65,-1.53,9.31,-0.06,0.02,-0.08
3962,-0.54,-1.46,9.20,-0.06,0.02,-0.08
3966,-0.54,-1.46,9.20,-0.06,0.01,-0.08
3971,-0.54,-1.46,9.20,-0.06,0.01,-0.07
3977,-0.57,-1.76,9.16,-0.06,0.01,-0.07
3981,-0.57,-1.76,9.16,-0.06,0.01,-0.07
3986,-0.57,-1.76,9.16,-0.06,0.00,-0.08
3991,-0.57,-1.76,9.16,-0.07,0.00,-0.08
3996,-1.57,-1.68,9.12,-0.07,0.00,-0.08
4001,-1.57,-1.68,9.12,-0.07,0.00,-0.06
4006,-1.57,-1.68,9.12,-0.06,0.00,-0.08
4012,-0.27,-2.18,9.20,-0.06,0.00,-0.08
4016,-0.27,-2.18,9.20,-0.07,0.01,-0.09
4021,-0.27,-2.18,9.20,-0.08,0.01,-0.09
4026,-0.27,-2.18,9.20,-0.08,0.01,-0.10
4032,-0.50,-2.22,9.30,-0.08,0.01,-0.10
4036,-0.50,-2.22,9.30,-0.07,0.01,-0.10
4041,-0.50,-2.22,9.30,-0.08,0.02,-0.10
4047,-0.50,-2.22,9.30,-0.08,0.01,-0.11
4051,-0.50,-2.22,9.30,-0.09,0.01,-0.11
4056,-0.50,-2.22,9.30,-0.08,0.02,-0.11
4061,-0.50,-2.22,9.30,-0.08,0.01,-0.11
4067,-0.30,-3.14,9.31,-0.08,0.01,-0.11
4071,-0.30,-3.14,9.31,-0.07,0.01,-0.11
4076,-0.30,-3.14,9.31,-0.07,0.01,-0.11
4082,-0.27,-3.07,9.27,-0.07,0.01,-0.11
4086,-0.27,-3.07,9.27,-0.06,0.01,-0.11
4091,-0.27,-3.07,9.27,-0.07,0.02,-0.11
4097,-0.27,-3.07,9.27,-0.06,0.01,-0.10
4101,-0.27,-3.07,9.27,-0.06,0.01,-0.11
4106,-0.27,-3.07,9.27,-0.06,0.01,-0.11
4111,-0.27,-3.07,9.27,-0.05,0.01,-0.11
4117,-0.38,-3.26,9.20,-0.05,0.01,-0.11
4121,-0.38,-3.26,9.20,-0.06,0.01,-0.11
4126,-0.38,-3.26,9.20,-0.05,0.01,-0.11
4132,-0.38,-3.26,9.20,-0.04,0.01,-0.11
4136,-0.38,-3.26,9.20,-0.04,0.01,-0.10
4141,-0.38,-3.26,9.20,-0.04,0.01,-0.10
4146,-0.38,-3.26,9.20,-0.04,0.01,-0.10
4152,-0.34,-3.56,9.20,-0.04,0.01,-0.10
4156,-0.34,-3.56,9.20,-0.04,0.00,-0.10
4161,-0.34,-3.56,9.20,-0.02,0.00,-0.09
4167,-0.34,-3.56,9.20,-0.02,0.00,-0.08
4171,-0.34,-3.56,9.20,-0.01,0.00,-0.08
4176,-0.34,-3.56,9.20,-0.01,0.00,-0.09
4181,-0.34,-3.56,9.20,-0.01,0.01,-0.08
4187,-0.34,-3.56,9.20,-0.01,0.00,-0.07
4191,-0.34,-3.56,9.20,0.00,0.00,-0.07
4196,-0.34,-3.56,9.20,0.00,0.00,-0.04
4201,0.15,-2.95,9.20,0.00,0.00,-0.04
4207,-0.88,-2.76,9.38,0.00,0.00,-0.04
4211,-0.88,-2.76,9.38,0.02,0.02,-0.06
4216,-0.88,-2.76,9.38,0.01,0.01,-0.02
4222,-0.69,-3.14,9.34,0.01,0.01,-0.02
4226,-0.69,-3.14,9.34,0.02,-0.01,-0.02
4231,-0.69,-3.14,9.34,0.03,0.00,-0.02
4236,-0.88,-3.22,9.27,0.03,0.00,-0.02
4241,-0.88,-3.22,9.27,0.03,0.00,-0.04
4246,-0.88,-3.22,9.27,0.04,-0.01,-0.03
4251,-0.88,-3.22,9.27,0.04,-0.02,-0.03
4256,-0.42,-3.26,9.27,0.04,-0.02,-0.03
4261,-0.42,-3.26,9.27,0.05,-0.00,-0.02
4266,-0.42,-3.26,9.27,0.05,-0.01,-0.03
4272,-0.30,-3.10,9.27,0.05,-0.01,-0.03
4276,-0.30,-3.10,9.27,0.06,-0.01,-0.00
4281,-0.30,-3.10,9.27,0.07,-0.01,-0.00
4286,-0.30,-3.10,9.27,0.07,0.00,0.01
4291,-0.30,-3.10,9.27,0.07,-0.00,0.00
4296,-0.30,-3.10,9.27,0.07,-0.01,0.01
4301,-0.30,-3.10,9.27,0.08,-0.01,0.02
4307,-0.30,-3.10,9.27,0.09,-0.02,0.01
4311,-0.30,-3.10,9.27,0.09,-0.01,0.02
4316,-0.30,-3.10,9.27,0.09,-0.01,0.02
4321,-0.30,-3.10,9.27,0.09,-0.02,0.02
4326,-0.42,-2.91,9.30,0.09,-0.02,0.02
4331,-0.42,-2.91,9.30,0.10,-0.02,0.03
4336,-0.42,-2.91,9.30,0.10,-0.01,0.03
4342,-0.46,-2.68,9.20,0.10,-0.01,0.03
4346,-0.46,-2.68,9.20,0.10,-0.01,0.04
4351,-0.46,-2.68,9.20,0.10,-0.02,0.04
4356,-0.46,-2.68,9.20,0.10,-0.01,0.04
4361,-0.46,-2.68,9.20,0.09,-0.01,0.05
4366,-0.46,-2.68,9.20,0.11,-0.02,0.05
4371,-0.46,-2.68,9.20,0.09,-0.02,0.04
4377,-0.57,-2.57,9.16,0.09,-0.02,0.04
4381,-0.57,-2.57,9.16,0.10,-0.02,0.04
4386,-0.57,-2.57,9.16,0.10,-0.02,0.04
4392,-0.57,-2.57,9.16,0.09,-0.02,0.04
4396,-0.57,-2.57,9.16,0.09,-0.01,0.03
4401,-0.57,-2.57,9.16,0.09,-0.02,0.02
4407,-0.57,-2.57,9.16,0.10,-0.01,0.02
4411,-0.57,-2.57,9.16,0.09,-0.02,0.01
4416,-0.57,-2.57,9.16,0.09,-0.01,0.01
4421,-0.57,-2.57,9.16,0.09,-0.01,-0.01
4427,-0.57,-2.57,9.16,0.08,-0.01,-0.02
4431,-0.57,-2.57,9.16,0.08,-0.01,-0.03
4436,-0.57,-2.57,9.16,0.08,-0.01,-0.03
4441,-0.57,-2.57,9.16,0.08,-0.01,-0.04
4446,-0.57,-2.57,9.16,0.07,-0.01,-0.04
4451,-0.57,-2.57,9.16,0.07,-0.01,-0.05
4456,-0.57,-2.57,9.16,0.07,-0.01,-0.06
4461,-0.50,-1.72,9.35,0.07,-0.01,-0.06
4467,-0.65,-1.68,9.27,0.07,-0.01,-0.06
4471,-0.65,-1.68,9.27,0.05,-0.00,-0.06
4476,-0.65,-1.68,9.27,0.05,-0.01,-0.06
4481,-0.65,-1.68,9.27,0.06,-0.00,-0.06
4486,-0.65,-1.68,9.27,0.05,0.01,-0.07
4491,-0.65,-1.68,9.27,0.06,-0.00,-0.05
4496,-0.84,-1.23,9.39,0.06,-0.00,-0.05
4501,-0.84,-1.23,9.39,0.04,-0.00,-0.06
4506,-0.84,-1.23,9.39,0.04,0.01,-0.05
4511,-0.84,-1.23,9.39,0.03,0.00,-0.06
4516,-0.84,-1.23,9.39,0.02,0.00,-0.06
4521,-0.84,-1.23,9.39,0.03,0.01,-0.04
4527,-0.84,-1.23,9.39,0.02,0.00,-0.03
4531,-0.84,-1.23,9.39,0.01,0.00,-0.03
4536,-0.54,-1.15,9.27,0.01,0.00,-0.03
4541,-0.54,-1.15,9.27,-0.00,0.00,-0.01
4546,-0.54,-1.15,9.27,-0.00,0.00,-0.01
4551,-0.54,-1.15,9.27,-0.01,0.01,0.01
4556,-0.54,-1.15,9.27,-0.01,0.00,0.02
4561,-0.54,-1.15,9.27,-0.01,0.00,0.03
4566,-0.54,-1.15,9.27,-0.02,-0.00,0.04
4571,-0.54,-1.15,9.27,-0.02,0.00,0.06
4576,-0.54,-1.15,9.27,-0.02,0.00,0.06
4581,-0.54,-1.15,9.27,-0.02,0.00,0.07
4586,-0.65,-1.27,9.23,-0.02,0.00,0.07
4591,-0.65,-1.27,9.23,-0.03,-0.00,0.08
4596,-0.65,-1.27,9.23,-0.03,0.00,0.10
4601,-0.65,-1.27,9.23,-0.04,-0.00,0.10
4606,-0.65,-1.27,9.23,-0.03,-0.00,0.10
4611,-0.65,-1.27,9.23,-0.03,0.00,0.10
4617,-0.65,-1.27,9.23,-0.04,0.01,0.09
4621,-0.65,-1.27,9.23,-0.04,0.00,0.10
4626,-0.73,-1.65,9.27,-0.04,0.00,0.10
4631,-0.73,-1.65,9.27,-0.04,0.00,0.10
4637,-0.80,-1.76,9.27,-0.04,0.00,0.10
4642,-0.80,-1.76,9.27,-0.06,0.01,0.09
4646,-0.84,-1.95,9.20,-0.06,0.01,0.09
4651,-0.88,-2.07,9.27,-0.06,0.01,0.09
4656,-0.88,-2.07,9.27,-0.06,0.01,0.08
4661,-0.88,-2.07,9.27,-0.05,0.01,0.08
4666,-0.88,-2.07,9.27,-0.05,0.01,0.07
4671,-0.88,-2.07,9.27,-0.05,0.01,0.07
4676,-0.88,-2.07,9.27,-0.05,0.00,0.07
4681,-0.88,-2.07,9.27,-0.06,0.00,0.07
4687,-0.88,-2.07,9.27,-0.06,0.01,0.06
4692,-0.88,-2.07,9.27,-0.05,0.01,0.06
4696,-0.84,-2.22,9.46,-0.05,0.01,0.06
4701,-0.65,-2.11,9.46,-0.05,0.01,0.06
4707,-0.65,-2.11,9.46,-0.05,0.01,0.06
4711,-0.65,-2.11,9.46,-0.05,0.02,0.05
4716,-0.73,-1.57,9.42,-0.05,0.02,0.05
4721,-0.73,-1.57,9.42,-0.06,0.02,0.04
4726,-0.73,-1.57,9.42,-0.07,0.02,0.05
4731,-0.73,-1.57,9.42,-0.08,0.02,0.05
4737,-0.73,-1.57,9.42,-0.08,0.01,0.05
4742,-0.73,-1.57,9.42,-0.09,0.02,0.05
4746,-0.23,-0.92,8.84,-0.09,0.02,0.05
4751,-0.15,-0.96,8.70,-0.09,0.02,0.05
4757,-0.15,-0.96,8.70,-0.10,0.01,0.07
4761,-0.15,-1.04,8.58,-0.10,0.01,0.07
4766,-0.08,-1.27,8.66,-0.10,0.01,0.07
4772,-0.08,-1.27,8.66,-0.11,0.02,0.10
4776,-0.08,-1.27,8.66,-0.12,0.03,0.11
4781,-0.27,-0.54,8.92,-0.12,0.03,0.11
4786,-0.30,-1.00,9.20,-0.12,0.03,0.11
4792,-0.30,-1.00,9.20,-0.12,0.01,0.10
4796,-0.15,-0.42,9.69,-0.12,0.01,0.10
4801,-0.42,-0.46,9.50,-0.12,0.01,0.10
4807,-0.42,-0.46,9.50,-0.13,0.02,0.10
4812,-0.42,-0.46,9.50,-0.16,0.02,0.10
4816,-0.61,-1.84,8.85,-0.16,0.02,0.10
4821,-0.69,-2.26,8.77,-0.16,0.02,0.10
4827,-0.69,-2.26,8.77,-0.21,0.02,0.03
4832,-0.69,-2.26,8.77,-0.21,0.03,0.01
4836,-1.61,-3.71,9.23,-0.21,0.03,0.01
4841,-1.95,-3.71,8.78,-0.21,0.03,0.01
4846,-1.95,-3.71,8.78,-0.19,0.04,0.02
4851,-1.95,-3.71,8.78,-0.19,0.03,0.01
4856,-1.95,-3.71,8.78,-0.19,0.04,0.00
4862,-1.95,-3.71,8.78,-0.20,0.01,-0.01
4866,-0.61,-1.65,9.00,-0.20,0.01,-0.01
4871,-0.34,-1.99,8.16,-0.20,0.01,-0.01
4876,-0.27,-4.18,7.59,-0.20,0.01,-0.01
4882,-0.27,-4.18,7.59,-0.20,0.02,0.01
4886,-1.00,-4.75,9.16,-0.20,0.02,0.01
4891,-1.38,-3.60,9.04,-0.20,0.02,0.01
4896,-1.38,-3.60,9.04,-0.17,0.04,0.04
4901,-1.38,-3.60,9.04,-0.17,0.05,0.02
4906,-1.38,-3.60,9.04,-0.18,0.04,-0.00
4911,-1.38,-3.60,9.04,-0.18,0.03,-0.01
4916,-2.03,-4.75,9.65,-0.18,0.03,-0.01
4821,-0.69,-2.26,8.77,-0.16,0.02,0.10
4827,-0.69,-2.26,8.77,-0.21,0.02,0.03
4832,-0.69,-2.26,8.77,-0.21,0.03,0.01
4836,-1.61,-3.71,9.23,-0.21,0.03,0.01
4841,-1.95,-3.71,8.78,-0.21,0.03,0.01
4846,-1.95,-3.71,8.78,-0.19,0.04,0.02
4851,-1.95,-3.71,8.78,-0.19,0.03,0.01
4856,-1.95,-3.71,8.78,-0.19,0.04,0.00
4862,-1.95,-3.71,8.78,-0.20,0.01,-0.01
4866,-0.61,-1.65,9.00,-0.20,0.01,-0.01
4871,-0.34,-1.99,8.16,-0.20,0.01,-0.01
4876,-0.27,-4.18,7.59,-0.20,0.01,-0.01
4882,-0.27,-4.18,7.59,-0.20,0.02,0.01
4886,-1.00,-4.75,9.16,-0.20,0.02,0.01
4891,-1.38,-3.60,9.04,-0.20,0.02,0.01
4896,-1.38,-3.60,9.04,-0.17,0.04,0.04
4901,-1.38,-3.60,9.04,-0.17,0.05,0.02
