timestamp,accX,accY,accZ,gyroX,gyroY,gyroZ
Break
6,-1.76,-3.52,8.85,-0.13,0.04,-0.21
18,-1.76,-3.52,8.85,-0.14,0.04,-0.22
20,-1.76,-3.52,8.85,-0.06,-0.19,0.38
24,-1.76,-3.52,8.85,-0.07,0.23,0.38
25,4.41,-1.88,11.91,-0.07,0.23,0.38
30,4.41,-1.88,11.91,-0.06,0.21,0.36
35,-2.49,-0.30,12.41,-0.06,0.21,0.36
40,-2.49,-0.30,12.41,-0.01,0.20,0.34
46,-5.13,-0.11,15.05,-0.01,0.20,0.34
51,-5.13,-0.11,15.05,-0.02,0.21,0.40
56,-5.13,-0.11,15.05,-0.03,0.17,0.40
61,4.45,-1.38,9.93,-0.03,0.17,0.40
66,4.45,-1.38,9.93,-0.08,-0.20,0.29
70,4.45,-1.38,9.93,-0.11,-0.28,0.21
76,0.23,-1.65,14.64,-0.11,-0.28,0.21
81,0.23,-1.65,14.64,-0.10,-0.19,0.27
85,0.23,-1.65,14.64,-0.07,-0.05,0.30
91,0.23,-1.65,14.64,-0.08,0.02,0.28
96,7.05,0.80,9.46,-0.08,0.02,0.28
101,7.05,0.80,9.46,-0.11,-0.14,0.20
105,7.05,0.80,9.46,-0.12,-0.15,0.17
111,7.09,-3.33,7.01,-0.12,-0.15,0.17
116,7.09,-3.33,7.01,-0.16,-0.25,0.22
120,7.09,-3.33,7.01,-0.13,-0.06,0.17
126,7.09,-3.33,7.01,-0.16,0.22,0.14
131,-3.29,2.72,7.47,-0.16,0.22,0.14
136,-3.29,2.72,7.47,-0.17,0.20,0.11
141,-3.29,2.72,7.47,-0.20,0.12,0.07
146,-3.29,2.72,7.47,-0.20,0.03,0.03
151,-3.29,2.72,7.47,-0.23,-0.07,0.04
155,-3.29,2.72,7.47,-0.21,-0.25,0.11
161,-3.29,2.72,7.47,-0.21,-0.53,0.16
166,6.89,-1.46,14.02,-0.21,-0.53,0.16
171,6.89,-1.46,14.02,-0.08,-0.34,0.04
176,6.89,-1.46,14.02,-0.10,0.24,0.04
181,3.29,0.04,9.65,-0.10,0.24,0.04
186,3.29,0.04,9.65,-0.10,0.20,-0.13
190,3.29,0.04,9.65,-0.17,0.14,-0.13
196,-8.35,-4.48,10.73,-0.17,0.14,-0.13
201,-8.35,-4.48,10.73,-0.15,0.23,-0.02
206,-8.35,-4.48,10.73,-0.10,0.23,0.04
211,-8.35,-4.48,10.73,-0.11,0.15,0.09
216,2.68,0.00,8.08,-0.11,0.15,0.09
221,2.68,0.00,8.08,-0.22,-0.11,0.03
225,2.68,0.00,8.08,-0.19,-0.18,0.01
231,0.80,-3.29,8.81,-0.19,-0.18,0.01
235,0.80,-3.29,8.81,-0.07,0.43,0.08
240,0.80,-3.29,8.81,0.05,0.45,0.10
246,0.80,-3.29,8.81,0.05,0.39,0.15
251,-5.21,3.22,9.61,0.05,0.39,0.15
256,-5.21,3.22,9.61,-0.06,0.21,0.19
260,-5.21,3.22,9.61,-0.12,0.07,0.09
266,-5.21,3.22,9.61,-0.12,-0.08,0.02
271,-5.21,3.22,9.61,-0.10,-0.23,0.06
276,-5.21,3.22,9.61,-0.07,-0.29,0.16
281,-5.21,3.22,9.61,0.00,-0.05,0.16
286,-6.89,2.03,10.03,0.00,-0.05,0.16
291,-6.89,2.03,10.03,-0.02,0.55,0.05
296,-6.89,2.03,10.03,-0.08,0.51,0.05
301,-6.29,4.37,5.67,-0.08,0.51,0.05
306,-6.29,4.37,5.67,-0.18,0.16,0.06
310,-6.29,4.37,5.67,-0.25,-0.11,0.03
316,-6.29,4.37,5.67,-0.29,-0.34,0.02
321,2.03,0.92,4.83,-0.29,-0.34,0.02
326,2.03,0.92,4.83,-0.31,-0.57,0.12
331,2.03,0.92,4.83,-0.28,-0.53,0.17
336,3.22,0.11,11.34,-0.28,-0.53,0.17
341,3.22,0.11,11.34,-0.22,0.29,0.14
345,3.22,0.11,11.34,-0.17,0.25,0.17
351,3.22,0.11,11.34,-0.12,0.02,0.21
356,2.49,-0.19,13.87,-0.12,0.02,0.21
361,2.49,-0.19,13.87,-0.16,-0.08,0.26
366,2.49,-0.19,13.87,-0.17,0.22,0.27
371,-4.25,-1.99,6.44,-0.17,0.22,0.27
376,-4.25,-1.99,6.44,-0.15,0.38,0.19
380,-4.25,-1.99,6.44,-0.13,0.30,0.17
386,-4.25,-1.99,6.44,-0.13,0.21,0.18
391,-4.25,-1.99,6.44,-0.13,0.07,0.20
396,-4.25,-1.99,6.44,-0.14,-0.12,0.21
401,-4.25,-1.99,6.44,-0.16,-0.24,0.22
406,-4.25,-1.99,6.44,-0.19,-0.27,0.21
411,-4.25,-1.99,6.44,-0.19,-0.24,0.18
415,-4.25,-1.99,6.44,-0.16,-0.16,0.15
421,1.72,-1.53,9.34,-0.16,-0.16,0.15
426,2.80,-2.03,10.42,-0.16,-0.16,0.15
430,2.80,-2.03,10.42,-0.12,0.04,0.17
436,2.80,-2.03,10.42,-0.12,-0.03,0.16
441,-0.27,1.30,13.48,-0.12,-0.03,0.16
446,-0.27,1.30,13.48,-0.14,0.08,0.12
450,-0.27,1.30,13.48,-0.14,0.08,0.10
456,0.88,0.46,9.54,-0.14,0.08,0.10
461,0.88,0.46,9.54,-0.19,-0.03,0.07
465,0.88,0.46,9.54,-0.21,-0.08,0.06
471,0.88,0.46,9.54,-0.23,-0.14,0.05
476,3.10,-0.27,9.23,-0.23,-0.14,0.05
481,3.10,-0.27,9.23,-0.23,0.13,0.03
485,3.10,-0.27,9.23,-0.23,0.20,0.03
491,-2.14,0.50,8.58,-0.23,0.20,0.03
495,-2.14,0.50,8.58,-0.22,0.09,-0.00
500,-2.14,0.50,8.58,-0.21,0.06,0.00
506,-2.14,0.50,8.58,-0.22,0.01,0.01
511,0.34,-0.92,7.39,-0.22,0.01,0.01
516,0.34,-0.92,7.39,-0.22,-0.18,0.02
520,0.34,-0.92,7.39,-0.20,-0.23,0.03
526,0.34,-0.92,7.39,-0.18,-0.11,0.03
531,0.34,-0.92,7.39,-0.18,0.04,0.02
535,0.34,-0.92,7.39,-0.19,0.09,0.02
541,0.34,-0.92,7.39,-0.19,0.07,0.02
546,0.42,0.08,11.64,-0.19,0.07,0.02
551,0.42,0.08,11.64,-0.23,0.13,-0.03
555,0.42,0.08,11.64,-0.23,0.15,-0.05
561,-1.27,-0.08,9.38,-0.23,0.15,-0.05
566,-1.27,-0.08,9.38,-0.21,0.04,-0.07
570,-1.27,-0.08,9.38,-0.20,0.06,-0.07
576,-1.27,-0.08,9.38,-0.22,0.06,-0.09
580,-1.27,-0.08,9.38,-0.25,0.00,-0.12
585,-1.27,-0.08,9.38,-0.25,-0.06,-0.14
591,-1.27,-0.08,9.38,-0.26,-0.12,-0.12
596,0.11,0.11,6.67,-0.26,-0.12,-0.12
601,0.11,0.11,6.67,-0.20,0.01,-0.09
606,0.11,0.11,6.67,-0.21,0.14,-0.13
611,0.11,0.11,6.67,-0.24,0.12,-0.15
616,0.11,0.11,6.67,-0.23,0.02,-0.17
620,0.11,0.11,6.67,-0.25,-0.05,-0.19
626,0.11,0.11,6.67,-0.24,-0.07,-0.19
631,3.29,-1.65,10.49,-0.24,-0.07,-0.19
635,3.29,-1.65,10.49,-0.22,0.15,-0.20
641,3.29,-1.65,10.49,-0.24,0.28,-0.21
646,3.29,-1.65,10.49,-0.23,0.25,-0.25
650,3.29,-1.65,10.49,-0.26,0.14,-0.29
655,3.29,-1.65,10.49,-0.28,0.08,-0.32
661,3.29,-1.65,10.49,-0.28,0.00,-0.31
666,3.29,-1.65,10.49,-0.27,-0.06,-0.29
670,3.29,-1.65,10.49,-0.28,-0.11,-0.27
676,3.29,-1.65,10.49,-0.23,-0.06,-0.28
680,3.29,-1.65,10.49,-0.23,0.07,-0.28
686,-1.76,1.65,8.39,-0.23,0.07,-0.28
690,-1.76,1.65,8.39,-0.25,0.24,-0.30
696,-1.76,1.65,8.39,-0.24,0.15,-0.33
700,-1.76,1.65,8.39,-0.28,0.01,-0.34
705,-1.76,1.65,8.39,-0.27,-0.10,-0.34
711,-1.76,1.65,8.39,-0.23,-0.11,-0.29
716,1.11,0.61,8.70,-0.23,-0.11,-0.29
720,1.11,0.61,8.70,-0.21,0.15,-0.25
725,1.11,0.61,8.70,-0.22,0.12,-0.28
731,1.11,0.61,8.70,-0.22,0.01,-0.29
736,1.11,0.61,8.70,-0.21,0.01,-0.29
741,1.11,0.61,8.70,-0.20,0.10,-0.27
746,1.11,0.61,8.70,-0.19,0.18,-0.27
751,1.11,0.61,8.70,-0.19,0.14,-0.27
755,-1.80,-0.92,8.77,-0.19,0.14,-0.27
760,-1.80,-0.92,8.77,-0.21,-0.05,-0.25
766,-1.80,-0.92,8.77,-0.18,-0.07,-0.25
770,-1.80,-0.92,8.77,-0.16,-0.08,-0.22
776,-1.80,-0.92,8.77,-0.15,-0.01,-0.20
781,-1.80,-0.92,8.77,-0.13,0.07,-0.19
786,-1.80,-0.92,8.77,-0.12,0.12,-0.17
790,0.96,-1.42,9.46,-0.12,0.12,-0.17
796,0.96,-1.42,9.46,-0.10,0.10,-0.17
801,0.96,-1.42,9.46,-0.08,0.11,-0.16
806,0.96,-1.42,9.46,-0.08,0.12,-0.15
810,-1.07,0.50,8.93,-0.08,0.12,-0.15
815,-1.07,0.50,8.93,-0.13,0.03,-0.17
821,-1.07,0.50,8.93,-0.17,-0.03,-0.22
826,-1.07,0.50,8.93,-0.20,-0.04,-0.27
830,3.98,-0.80,11.15,-0.20,-0.04,-0.27
836,3.98,-0.80,11.15,-0.19,0.01,-0.25
841,3.98,-0.80,11.15,-0.16,0.08,-0.23
845,2.14,-2.11,9.20,-0.16,0.08,-0.23
850,2.14,-2.11,9.20,-0.10,0.12,-0.20
856,0.80,-1.95,9.23,-0.10,0.12,-0.20
860,-1.15,0.23,9.92,-0.10,0.12,-0.20
865,-1.15,0.23,9.92,-0.06,0.17,-0.18
871,-1.15,0.23,9.92,-0.08,0.17,-0.18
876,-1.15,0.23,9.92,-0.10,0.12,-0.19
880,-3.83,0.57,9.85,-0.10,0.12,-0.19
885,-3.83,0.57,9.85,-0.13,0.00,-0.16
891,4.06,-0.92,8.84,-0.13,0.00,-0.16
895,4.06,-0.92,8.84,-0.16,-0.28,-0.09
900,4.06,-0.92,8.84,-0.11,-0.26,-0.07
906,4.06,-0.92,8.84,-0.11,0.09,-0.07
910,4.06,-0.92,8.84,-0.10,0.31,-0.07
916,4.06,-0.92,8.84,-0.07,0.20,-0.06
920,4.06,-0.92,8.84,-0.05,0.06,-0.04
926,4.06,-0.92,8.84,-0.03,0.05,-0.01
930,4.06,-0.92,8.84,-0.02,0.15,0.00
935,4.06,-0.92,8.84,-0.00,0.18,0.01
941,4.06,-0.92,8.84,-0.01,0.13,0.01
945,4.06,-0.92,8.84,-0.02,0.04,0.00
951,4.06,-0.92,8.84,-0.07,-0.05,-0.02
956,4.06,-0.92,8.84,-0.10,-0.17,-0.06
960,4.06,-0.92,8.84,-0.10,-0.27,-0.06
965,4.06,-0.92,8.84,-0.08,-0.10,-0.03
971,4.06,-0.92,8.84,-0.10,0.16,-0.02
976,4.06,-0.92,8.84,-0.10,0.17,-0.02
980,0.30,-1.38,10.96,-0.10,0.17,-0.02
985,0.92,-1.46,10.91,-0.10,0.17,-0.02
991,0.92,-1.46,10.91,-0.05,-0.01,-0.04
996,0.92,-1.46,10.91,-0.04,0.07,-0.03
1000,1.27,-1.42,8.84,-0.04,0.07,-0.03
1005,1.27,-1.42,8.84,-0.02,0.05,-0.03
1012,-0.80,-0.15,7.16,-0.02,0.05,-0.03
1015,0.11,-0.15,8.96,-0.02,0.05,-0.03
1020,0.73,-0.23,8.46,-0.02,0.05,-0.03
1026,0.73,-0.23,8.46,-0.09,0.01,-0.13
1031,0.73,-0.23,8.46,-0.10,-0.06,-0.11
1036,3.18,0.19,9.58,-0.10,-0.06,-0.11
1040,3.48,0.34,9.54,-0.10,-0.06,-0.11
1046,3.48,0.34,9.54,-0.11,0.04,-0.13
1051,3.48,0.34,9.54,-0.10,0.06,-0.14
1055,2.14,0.30,9.61,-0.10,0.06,-0.14
1060,0.19,0.08,9.81,-0.10,0.06,-0.14
1066,-0.88,0.30,10.00,-0.10,0.06,-0.14
1071,-0.88,0.30,10.00,-0.10,0.15,-0.21
1075,-2.53,0.27,10.69,-0.10,0.15,-0.21
1081,-2.53,0.27,10.69,-0.12,0.04,-0.25
1086,-2.53,0.27,10.69,-0.13,-0.03,-0.27
1090,-2.53,0.27,10.69,-0.15,-0.14,-0.27
1096,-2.53,0.27,10.69,-0.15,-0.16,-0.29
1101,-2.53,0.27,10.69,-0.16,-0.03,-0.34
1106,2.95,-0.11,8.42,-0.16,-0.03,-0.34
1110,1.38,-0.04,8.24,-0.16,-0.03,-0.34
1116,1.38,-0.04,8.24,-0.14,0.12,-0.40
1121,1.38,-0.04,8.24,-0.14,0.10,-0.41
1126,1.38,-0.04,8.24,-0.13,0.14,-0.42
1131,-1.34,0.77,11.19,-0.13,0.14,-0.42
1135,0.11,0.96,9.61,-0.13,0.14,-0.42
1140,0.65,0.38,9.04,-0.13,0.14,-0.42
1146,0.65,0.38,9.04,-0.18,-0.03,-0.48
1151,0.65,0.38,9.04,-0.21,-0.05,-0.50
1156,2.38,0.80,8.42,-0.21,-0.05,-0.50
1160,1.99,0.19,8.66,-0.21,-0.05,-0.50
1166,1.99,0.19,8.66,-0.14,0.07,-0.47
1171,1.99,0.19,8.66,-0.12,0.10,-0.46
1175,1.27,-0.34,9.81,-0.12,0.10,-0.46
1180,1.30,0.00,10.19,-0.12,0.10,-0.46
1186,1.30,0.00,10.19,-0.13,0.04,-0.48
1191,1.30,0.00,10.19,-0.13,0.06,-0.47
1196,1.04,-0.88,9.04,-0.13,0.06,-0.47
1200,0.88,-1.38,9.54,-0.13,0.06,-0.47
1206,0.88,-1.38,9.54,-0.12,0.01,-0.46
1211,0.88,-1.38,9.54,-0.12,0.05,-0.48
1216,-1.46,-0.65,9.61,-0.12,0.05,-0.48
1220,1.00,-0.73,10.49,-0.12,0.05,-0.48
1225,1.07,-0.38,10.73,-0.12,0.05,-0.48
1232,1.07,-0.38,10.73,-0.08,-0.00,-0.45
1236,1.07,-0.38,10.73,-0.07,-0.01,-0.42
1241,1.00,0.38,8.31,-0.07,-0.01,-0.42
1245,0.96,0.04,8.28,-0.07,-0.01,-0.42
1251,0.96,0.04,8.28,-0.05,0.01,-0.39
1256,0.96,0.04,8.28,-0.04,-0.02,-0.37
1261,2.14,-1.11,9.42,-0.04,-0.02,-0.37
1265,2.95,0.00,9.50,-0.04,-0.02,-0.37
1271,2.95,0.00,9.50,-0.02,0.03,-0.33
1275,1.30,0.30,9.73,-0.02,0.03,-0.33
1280,0.65,-0.65,9.92,-0.02,0.03,-0.33
1286,0.65,-0.65,9.92,-0.02,0.07,-0.32
1291,0.65,-0.65,9.92,-0.03,0.08,-0.34
1295,-1.04,-1.00,10.27,-0.03,0.08,-0.34
1300,0.73,-0.61,10.07,-0.03,0.08,-0.34
1306,0.73,-0.61,10.07,-0.05,-0.06,-0.39
1311,2.38,-1.68,9.12,-0.05,-0.06,-0.39
1315,3.56,-2.14,9.92,-0.05,-0.06,-0.39
1320,3.56,-2.14,9.92,-0.01,-0.13,-0.30
1326,4.64,-1.57,10.11,-0.01,-0.13,-0.30
1331,2.95,-1.80,9.93,-0.01,-0.13,-0.30
1335,-0.27,-1.76,10.53,-0.01,-0.13,-0.30
1340,-1.72,-1.23,10.99,-0.01,-0.13,-0.30
1345,-2.41,-1.23,10.27,-0.01,-0.13,-0.30
1350,-2.41,-1.23,10.27,0.06,0.13,-0.28
1356,-2.41,-1.23,10.27,0.09,0.11,-0.28
1360,3.83,-1.11,13.91,0.09,0.11,-0.28
1365,4.79,-1.49,10.31,0.09,0.11,-0.28
1370,5.44,-2.18,9.96,0.09,0.11,-0.28
1376,5.44,-2.18,9.96,0.05,-0.27,-0.18
1380,2.45,-1.53,5.98,0.05,-0.27,-0.18
1385,0.34,-2.26,6.55,0.05,-0.27,-0.18
1391,-0.92,-1.72,5.56,0.05,-0.27,-0.18
1395,-0.54,0.57,11.34,0.05,-0.27,-0.18
1400,-0.54,1.04,12.68,0.05,-0.27,-0.18
1406,-0.54,1.04,12.68,0.13,-0.05,-0.19
1411,-0.54,1.04,12.68,0.09,-0.01,-0.19
1415,-1.34,-0.19,6.89,0.09,-0.01,-0.19
1420,-0.57,-2.07,5.98,0.09,-0.01,-0.19
1426,-0.57,-2.07,5.98,0.03,-0.06,-0.23
1431,-0.57,-2.07,5.98,0.03,-0.14,-0.23
1435,0.42,-3.14,8.54,0.03,-0.14,-0.23
1440,0.00,-2.87,9.43,0.03,-0.14,-0.23
1445,-1.19,-0.84,9.39,0.03,-0.14,-0.23
1450,-1.19,-0.84,9.39,0.18,0.06,-0.12
1456,-1.19,-0.84,9.39,0.18,-0.04,-0.09
1461,-1.19,-0.84,9.39,0.16,-0.07,-0.07
1465,2.41,-1.34,11.11,0.16,-0.07,-0.07
1470,3.48,-2.61,10.73,0.16,-0.07,-0.07
1475,3.33,-2.57,10.11,0.16,-0.07,-0.07
1481,3.33,-2.57,10.11,0.18,-0.07,0.02
1485,1.30,-1.99,9.42,0.18,-0.07,0.02
1490,1.23,-1.84,10.00,0.18,-0.07,0.02
1496,1.23,-1.84,10.00,0.22,0.04,0.06
1500,-0.04,-1.23,10.03,0.22,0.04,0.06
1505,0.54,-0.73,10.00,0.22,0.04,0.06
1511,0.54,-0.73,10.00,0.21,-0.00,0.11
1516,0.54,-0.73,10.00,0.21,-0.02,0.11
1520,3.03,-1.49,8.70,0.21,-0.02,0.11
1525,2.68,-1.27,8.82,0.21,-0.02,0.11
1531,2.68,-1.27,8.82,0.18,-0.06,0.11
1535,-0.15,-1.04,9.08,0.18,-0.06,0.11
1540,-0.77,-0.42,9.92,0.18,-0.06,0.11
1546,0.57,0.04,10.46,0.18,-0.06,0.11
1550,0.08,-0.34,10.27,0.18,-0.06,0.11
1555,1.11,-0.30,10.61,0.18,-0.06,0.11
1560,1.19,-0.57,10.19,0.18,-0.06,0.11
1566,1.61,-0.42,9.35,0.18,-0.06,0.11
1570,4.21,-1.30,8.42,0.18,-0.06,0.11
1575,4.79,-1.57,9.16,0.18,-0.06,0.11
1580,4.02,-1.27,9.43,0.18,-0.06,0.11
1586,4.02,-1.27,9.43,0.17,0.10,0.18
1590,-0.92,-0.08,9.65,0.17,0.10,0.18
1595,-4.79,-0.27,7.93,0.17,0.10,0.18
1601,-4.79,-0.27,7.93,0.16,0.14,0.14
1605,-3.14,-0.08,9.20,0.16,0.14,0.14
1610,-1.99,0.04,9.38,0.16,0.14,0.14
1616,-0.38,-0.54,8.39,0.16,0.14,0.14
1620,0.73,-1.49,7.74,0.16,0.14,0.14
1625,3.71,-1.27,8.66,0.16,0.14,0.14
1630,4.56,-1.65,9.61,0.16,0.14,0.14
1636,4.56,-1.65,9.61,0.06,0.01,0.03
1640,4.29,-2.30,8.50,0.06,0.01,0.03
1645,4.29,-1.57,9.16,0.06,0.01,0.03
1651,0.77,-0.92,10.11,0.06,0.01,0.03
1655,-5.55,0.38,10.61,0.06,0.01,0.03
1660,-6.44,1.27,12.02,0.06,0.01,0.03
1665,-5.17,1.42,10.23,0.06,0.01,0.03
1671,-5.17,1.42,10.23,0.07,0.10,-0.06
1675,-3.14,-0.27,8.96,0.07,0.10,-0.06
1680,3.03,-1.95,9.30,0.07,0.10,-0.06
1686,6.51,-3.91,7.43,0.07,0.10,-0.06
1691,9.96,-4.06,8.58,0.07,0.10,-0.06
1695,9.96,-4.06,8.58,0.12,0.07,-0.01
1700,9.96,-4.06,8.58,0.11,0.52,-0.04
1705,-1.84,0.27,7.73,0.11,0.52,-0.04
1710,-3.75,1.42,10.23,0.11,0.52,-0.04
1715,-6.66,1.30,11.80,0.11,0.52,-0.04
1721,-6.66,1.30,11.80,0.08,0.03,-0.10
1726,-5.17,0.50,11.34,0.08,0.03,-0.10
1730,-5.17,0.50,11.34,-0.01,-0.11,-0.09
1735,2.72,-0.92,6.70,-0.01,-0.11,-0.09
1740,4.64,-1.46,5.78,-0.01,-0.11,-0.09
1745,6.36,-2.18,8.96,-0.01,-0.11,-0.09
1752,7.24,-2.41,8.62,-0.01,-0.11,-0.09
1755,0.77,-0.96,11.11,-0.01,-0.11,-0.09
1760,1.53,-0.73,14.29,-0.01,-0.11,-0.09
1765,-1.00,0.65,13.49,-0.01,-0.11,-0.09
1771,-1.65,1.04,14.68,-0.01,-0.11,-0.09
1776,-2.57,1.80,12.57,-0.01,-0.11,-0.09
1780,-2.57,1.80,12.57,0.06,0.11,-0.02
1785,-0.80,-0.65,7.43,0.06,0.11,-0.02
1791,-0.80,-0.65,7.43,0.06,0.09,-0.03
1796,0.61,-1.65,4.60,0.06,0.09,-0.03
1800,0.61,-1.65,4.60,0.08,-0.24,0.02
1805,-2.03,1.38,4.37,0.08,-0.24,0.02
1810,1.76,1.46,10.53,0.08,-0.24,0.02
1815,3.83,2.22,13.21,0.08,-0.24,0.02
1820,2.99,1.30,12.95,0.08,-0.24,0.02
1826,1.23,1.07,12.72,0.08,-0.24,0.02
1831,-1.84,1.72,8.16,0.08,-0.24,0.02
1835,-1.84,1.72,8.16,-0.06,-0.01,-0.17
1840,-1.27,-2.38,7.82,-0.06,-0.01,-0.17
1846,-1.27,-2.38,7.82,-0.07,-0.02,-0.21
1851,3.83,-4.48,10.45,-0.07,-0.02,-0.21
1855,2.45,-1.72,11.26,-0.07,-0.02,-0.21
1860,1.19,-0.69,10.23,-0.07,-0.02,-0.21
1865,0.15,-0.11,9.69,-0.07,-0.02,-0.21
1870,-1.07,0.46,8.39,-0.07,-0.02,-0.21
1876,-0.80,0.27,8.46,-0.07,-0.02,-0.21
1881,0.80,-0.27,8.32,-0.07,-0.02,-0.21
1885,0.80,-0.27,8.32,0.05,-0.13,-0.11
1890,2.64,-1.57,9.61,0.05,-0.13,-0.11
1895,2.99,-1.07,10.11,0.05,-0.13,-0.11
1900,2.38,-1.30,10.45,0.05,-0.13,-0.11
1905,2.38,-1.30,10.45,0.03,-0.02,-0.09
1910,2.53,-1.46,10.11,0.03,-0.02,-0.09
1915,2.53,-1.46,10.11,0.02,-0.03,-0.10
1922,2.53,-1.46,10.11,0.02,-0.02,-0.10
1926,1.46,-1.30,9.43,0.02,-0.02,-0.10
1930,1.46,-1.30,9.43,0.06,0.01,-0.05
1935,1.46,-1.30,9.43,0.07,-0.00,-0.03
1940,3.26,-0.69,11.45,0.07,-0.00,-0.03
1946,3.03,-1.34,10.84,0.07,-0.00,-0.03
1951,3.22,-1.07,10.84,0.07,-0.00,-0.03
1955,3.22,-1.07,10.84,0.07,0.04,0.02
1960,3.22,-1.07,10.84,0.08,0.07,0.04
1965,1.61,-0.77,10.41,0.08,0.07,0.04
1970,2.30,-1.15,10.50,0.08,0.07,0.04
1977,1.15,-0.80,9.58,0.08,0.07,0.04
1980,0.57,-1.04,9.31,0.08,0.07,0.04
1985,-0.15,-1.11,8.39,0.08,0.07,0.04
1990,0.34,-1.30,8.96,0.08,0.07,0.04
1996,0.77,-0.69,8.78,0.08,0.07,0.04
2001,1.38,-0.84,9.30,0.08,0.07,0.04
2005,1.38,-0.84,9.30,0.09,-0.04,0.15
2010,1.27,-0.50,7.89,0.09,-0.04,0.15
2015,0.38,-0.23,7.74,0.09,-0.04,0.15
2020,0.04,-0.80,7.85,0.09,-0.04,0.15
2027,-1.07,-0.15,7.74,0.09,-0.04,0.15
2030,1.38,-1.34,9.39,0.09,-0.04,0.15
2035,0.46,-0.57,9.77,0.09,-0.04,0.15
2042,0.34,-0.42,9.93,0.09,-0.04,0.15
2045,0.50,-0.57,10.54,0.09,-0.04,0.15
2051,0.69,-0.54,10.57,0.09,-0.04,0.15
2055,1.15,-0.96,10.46,0.09,-0.04,0.15
2060,0.38,-1.46,10.00,0.09,-0.04,0.15
2066,1.23,-1.80,11.15,0.09,-0.04,0.15
2071,0.34,-1.95,10.11,0.09,-0.04,0.15
2075,0.34,-1.95,10.11,0.06,0.01,0.08
2080,0.34,-1.95,10.11,0.05,0.02,0.07
2086,-1.49,-1.30,9.61,0.05,0.02,0.07
2092,-2.03,-0.15,10.19,0.05,0.02,0.07
2095,-2.03,-0.15,10.19,0.05,-0.10,0.05
2100,-2.03,-0.15,10.19,0.04,-0.14,0.04
2105,2.11,0.08,9.00,0.04,-0.14,0.04
2112,2.68,0.15,9.46,0.04,-0.14,0.04
2115,1.61,-0.19,8.85,0.04,-0.14,0.04
2120,2.34,-0.46,8.12,0.04,-0.14,0.04
2125,5.09,-1.46,9.46,0.04,-0.14,0.04
2132,5.29,-1.34,10.15,0.04,-0.14,0.04
2135,3.71,-1.11,9.42,0.04,-0.14,0.04
2140,2.84,-0.54,8.70,0.04,-0.14,0.04
2147,0.73,-0.30,8.66,0.04,-0.14,0.04
2150,-4.83,1.49,9.20,0.04,-0.14,0.04
2155,-5.71,1.46,9.50,0.04,-0.14,0.04
2160,-2.68,1.91,10.42,0.04,-0.14,0.04
2167,-0.92,1.11,10.92,0.04,-0.14,0.04
2170,-0.08,-0.34,8.66,0.04,-0.14,0.04
2175,-1.42,0.27,9.77,0.04,-0.14,0.04
2182,-2.57,0.04,9.27,0.04,-0.14,0.04
2185,2.45,-1.76,8.88,0.04,-0.14,0.04
2190,3.29,-1.84,8.54,0.04,-0.14,0.04
2196,5.55,-1.57,8.54,0.04,-0.14,0.04
2200,5.55,-1.57,8.54,-0.01,-0.03,-0.11
2205,3.91,0.50,10.11,-0.01,-0.03,-0.11
2212,2.22,0.34,9.73,-0.01,-0.03,-0.11
2215,2.22,0.34,9.73,-0.00,0.12,-0.15
2220,2.22,0.34,9.73,-0.02,0.09,-0.17
2225,0.73,-0.34,12.18,-0.02,0.09,-0.17
2232,-1.42,0.11,11.22,-0.02,0.09,-0.17
2235,-0.54,0.11,9.61,-0.02,0.09,-0.17
2240,-1.07,0.96,8.43,-0.02,0.09,-0.17
2247,0.04,0.00,8.35,-0.02,0.09,-0.17
2250,0.04,0.00,8.35,-0.07,-0.04,-0.20
2255,1.91,-0.46,9.34,-0.07,-0.04,-0.20
2262,2.57,0.46,10.11,-0.07,-0.04,-0.20
2265,2.57,0.46,10.11,-0.06,0.02,-0.19
2271,-1.88,0.96,6.09,-0.06,0.02,-0.19
2276,-2.03,1.42,6.55,-0.06,0.02,-0.19
2280,-2.03,1.42,6.55,-0.05,-0.07,-0.22
2285,-2.03,1.42,6.55,-0.07,-0.11,-0.20
2290,4.06,0.23,13.98,-0.07,-0.11,-0.20
2297,2.34,-0.08,11.88,-0.07,-0.11,-0.20
2300,2.34,-0.08,11.88,-0.13,0.15,-0.26
2306,-2.87,-1.42,5.86,-0.13,0.15,-0.26
2312,-2.03,-2.26,7.59,-0.13,0.15,-0.26
2315,-2.03,-2.26,7.59,-0.09,-0.10,-0.30
2320,-2.03,-2.26,7.59,-0.10,-0.16,-0.29
2325,7.24,-0.92,14.40,-0.10,-0.16,-0.29
2332,5.25,0.57,12.26,-0.10,-0.16,-0.29
2335,5.25,0.57,12.26,-0.08,0.18,-0.30
2341,5.25,0.57,12.26,-0.05,0.16,-0.29
2347,-2.03,0.96,6.93,-0.05,0.16,-0.29
2350,-2.03,0.96,6.93,-0.04,0.01,-0.30
2355,-2.03,0.96,6.93,-0.04,-0.05,-0.29
2360,1.68,-0.23,10.57,-0.04,-0.05,-0.29
2367,1.91,-1.15,10.73,-0.04,-0.05,-0.29
2370,1.91,-1.15,10.73,-0.08,0.00,-0.29
2375,0.88,-0.50,7.63,-0.08,0.00,-0.29
2380,0.57,-0.80,7.36,-0.08,0.00,-0.29
2387,0.69,-1.57,8.54,-0.08,0.00,-0.29
2391,0.69,-1.57,8.54,-0.07,-0.01,-0.34
2396,3.45,-2.26,11.88,-0.07,-0.01,-0.34
2400,2.99,-2.64,11.19,-0.07,-0.01,-0.34
2407,-0.11,-1.68,7.31,-0.07,-0.01,-0.34
2411,0.69,-1.15,8.35,-0.07,-0.01,-0.34
2416,0.61,-1.49,8.66,-0.07,-0.01,-0.34
2420,0.61,-1.49,8.66,0.03,-0.05,-0.25
2426,0.61,-1.49,8.66,0.04,-0.04,-0.22
2432,1.11,-0.96,10.84,0.04,-0.04,-0.22
2435,1.11,-0.96,10.84,0.03,0.01,-0.21
2440,1.11,-0.96,10.84,0.02,0.00,-0.19
2445,1.88,-1.19,9.96,0.02,0.00,-0.19
2452,-0.04,-0.15,8.39,0.02,0.00,-0.19
2455,-0.04,-0.15,8.39,0.05,0.07,-0.17
2461,-0.04,-0.15,8.39,0.06,0.05,-0.17
2467,0.61,-0.80,9.34,0.06,0.05,-0.17
2470,0.61,-0.80,9.34,0.06,-0.06,-0.10
2475,0.61,-0.80,9.34,0.05,-0.06,-0.10
2480,0.61,-0.80,9.34,0.04,0.00,-0.11
2487,0.65,0.11,9.35,0.04,0.00,-0.11
2490,0.65,0.11,9.35,0.01,0.02,-0.13
2495,0.38,-0.73,8.35,0.01,0.02,-0.13
2500,1.11,-1.04,9.16,0.01,0.02,-0.13
2507,1.30,-1.30,9.20,0.01,0.02,-0.13
2511,1.30,-1.30,9.20,0.03,0.02,-0.10
2515,1.27,-1.07,9.96,0.03,0.02,-0.10
2520,0.88,-1.19,9.00,0.03,0.02,-0.10
2527,1.38,-1.23,9.58,0.03,0.02,-0.10
2531,1.34,-1.65,10.54,0.03,0.02,-0.10
2537,0.19,-1.30,9.89,0.03,0.02,-0.10
2540,0.19,-1.30,9.89,0.06,0.04,-0.04
2546,0.19,-1.30,9.89,0.06,-0.00,-0.03
2552,3.52,-2.72,10.88,0.06,-0.00,-0.03
2555,3.52,-2.72,10.88,0.09,-0.05,0.02
2560,3.52,-2.72,10.88,0.09,0.01,0.07
2566,0.23,-1.72,9.38,0.09,0.01,0.07
2572,-0.80,-2.11,8.08,0.09,0.01,0.07
2575,-0.80,-2.11,8.08,0.12,0.01,0.12
2581,-0.80,-2.11,8.08,0.13,-0.05,0.15
2587,0.11,-1.80,9.23,0.13,-0.05,0.15
2590,0.11,-1.80,9.23,0.13,-0.06,0.21
2595,0.11,-1.80,9.23,0.14,-0.05,0.23
2601,0.11,-1.80,9.23,0.14,-0.02,0.26
2607,1.99,-1.61,9.58,0.14,-0.02,0.26
2610,1.99,-1.61,9.58,0.14,0.00,0.26
2615,1.99,-1.61,9.58,0.15,0.01,0.27
2620,0.84,-1.91,10.15,0.15,0.01,0.27
2627,-0.08,-1.65,9.43,0.15,0.01,0.27
2630,-0.08,-1.65,9.43,0.16,-0.00,0.28
2635,1.00,-1.68,10.23,0.16,-0.00,0.28
2642,0.34,-1.07,9.31,0.16,-0.00,0.28
2645,0.34,-1.07,9.31,0.14,-0.06,0.29
2651,2.41,-0.96,9.43,0.14,-0.06,0.29
2657,1.38,-1.19,9.35,0.14,-0.06,0.29
2660,1.38,-1.19,9.35,0.16,0.00,0.29
2665,1.38,-1.19,9.35,0.15,0.03,0.29
2671,5.52,-1.68,11.49,0.15,0.03,0.29
2677,2.38,-1.42,10.54,0.15,0.03,0.29
2680,2.38,-1.42,10.54,0.15,0.12,0.28
2686,-3.10,0.42,8.62,0.15,0.12,0.28
2692,-1.38,0.23,9.31,0.15,0.12,0.28
2695,-1.38,0.23,9.31,0.12,-0.06,0.23
2700,-1.38,0.23,9.31,0.10,-0.20,0.25
2706,1.23,0.42,11.30,0.10,-0.20,0.25
2712,-0.80,-0.30,10.19,0.10,-0.20,0.25
2715,-0.80,-0.30,10.19,0.07,0.13,0.23
2721,-0.80,-0.30,10.19,0.08,-0.01,0.23
2727,0.69,-2.34,6.17,0.08,-0.01,0.23
2730,0.69,-2.34,6.17,0.11,-0.25,0.24
2735,0.69,-2.34,6.17,0.12,-0.08,0.22
2741,0.69,-2.34,6.17,0.12,0.07,0.19
2747,3.83,0.57,11.45,0.12,0.07,0.19
2751,3.83,0.57,11.45,0.10,-0.04,0.21
2756,3.83,0.57,11.45,0.08,-0.02,0.20
2762,-1.11,-0.08,9.77,0.08,-0.02,0.20
2766,-1.11,-0.08,9.77,0.08,0.14,0.18
2771,-1.11,-0.08,9.77,0.10,0.06,0.17
2777,-1.38,-1.88,6.75,0.10,0.06,0.17
2780,-1.38,-1.88,6.75,0.10,-0.16,0.24
2785,-1.38,-1.88,6.75,0.08,-0.21,0.25
2791,1.80,0.08,10.88,0.08,-0.21,0.25
2797,2.91,-0.23,10.00,0.08,-0.21,0.25
2801,2.91,-0.23,10.00,0.01,-0.02,0.14
2806,2.91,-0.23,10.00,0.02,-0.04,0.14
2812,2.80,-0.27,10.80,0.02,-0.04,0.14
2815,2.80,-0.27,10.80,0.06,0.04,0.18
2820,2.80,-0.27,10.80,0.07,0.08,0.18
2826,-0.08,-0.84,10.00,0.07,0.08,0.18
2832,0.46,-0.96,10.49,0.07,0.08,0.18
2835,0.46,-0.96,10.49,0.08,-0.05,0.18
2841,0.46,-0.96,10.49,0.07,-0.04,0.18
2847,1.15,-0.46,9.00,0.07,-0.04,0.18
2851,1.15,-0.46,9.00,0.04,0.02,0.14
2855,1.15,-0.46,9.00,0.03,0.01,0.12
2861,1.15,-0.46,9.00,0.02,-0.01,0.09
2867,0.88,-0.73,9.27,0.02,-0.01,0.09
2871,0.88,-0.73,9.27,0.01,0.04,0.07
2876,0.88,-0.73,9.27,0.01,0.05,0.05
2882,0.04,0.34,9.04,0.01,0.05,0.05
2886,0.04,0.34,9.04,0.00,-0.04,0.04
2891,0.04,0.34,9.04,-0.00,-0.05,0.03
2896,0.96,0.42,9.43,-0.00,-0.05,0.03
2902,1.00,-0.15,8.89,-0.00,-0.05,0.03
2906,1.00,-0.15,8.89,-0.02,0.02,0.00
2911,1.00,-0.15,8.89,-0.03,-0.00,-0.01
2917,0.92,-0.08,10.35,-0.03,-0.00,-0.01
2921,0.92,-0.08,10.35,-0.02,-0.00,-0.01
2926,0.92,-0.08,10.35,-0.02,0.01,-0.03
2932,-0.15,0.30,10.27,-0.02,0.01,-0.03
2935,-0.15,0.30,10.27,-0.04,0.01,-0.06
2940,-0.15,0.30,10.27,-0.04,-0.05,-0.07
2946,-0.15,0.30,10.27,-0.05,-0.07,-0.09
2952,2.64,-0.73,10.38,-0.05,-0.07,-0.09
2955,2.64,-0.73,10.38,-0.04,0.03,-0.11
2961,2.64,-0.73,10.38,-0.04,0.07,-0.13
2967,0.46,-0.15,9.65,-0.04,0.07,-0.13
2971,0.46,-0.15,9.65,-0.04,0.03,-0.15
2976,0.46,-0.15,9.65,-0.04,-0.01,-0.17
2981,0.46,-0.15,9.65,-0.05,-0.02,-0.19
2987,1.49,-0.30,9.27,-0.05,-0.02,-0.19
2991,1.49,-0.30,9.27,-0.06,0.00,-0.22
2995,1.49,-0.30,9.27,-0.06,-0.01,-0.24
3001,1.49,-0.30,9.27,-0.07,0.00,-0.26
3007,2.95,-0.27,10.03,-0.07,0.00,-0.26
3011,2.95,-0.27,10.03,-0.08,0.04,-0.31
3016,2.95,-0.27,10.03,-0.08,0.08,-0.34
3022,0.61,0.50,9.46,-0.08,0.08,-0.34
3026,0.61,0.50,9.46,-0.11,0.06,-0.40
3031,0.61,0.50,9.46,-0.11,0.05,-0.43
3037,1.46,-0.23,9.50,-0.11,0.05,-0.43
3041,1.46,-0.23,9.50,-0.13,0.04,-0.48
3046,1.46,-0.23,9.50,-0.14,0.05,-0.49
3051,0.69,-0.11,9.54,-0.14,0.05,-0.49
3057,0.69,-0.27,9.00,-0.14,0.05,-0.49
3061,0.69,-0.27,9.00,-0.12,0.04,-0.52
3066,0.69,-0.27,9.00,-0.12,0.03,-0.51
3072,1.42,-0.34,10.03,-0.12,0.03,-0.51
3075,1.42,-0.34,10.03,-0.10,0.03,-0.51
3081,1.42,-0.34,10.03,-0.10,0.04,-0.51
3086,0.54,-0.08,9.89,-0.10,0.04,-0.51
3092,1.00,-0.19,8.77,-0.10,0.04,-0.51
3095,1.00,-0.19,8.77,-0.10,0.01,-0.52
3101,1.00,-0.19,8.77,-0.09,-0.01,-0.52
3107,2.45,-0.23,10.39,-0.09,-0.01,-0.52
3111,2.45,-0.23,10.39,-0.09,0.07,-0.50
3115,2.45,-0.23,10.39,-0.09,0.10,-0.50
3121,2.45,-0.23,10.39,-0.09,0.07,-0.50
3127,0.00,-0.04,8.66,-0.09,0.07,-0.50
3131,0.00,-0.04,8.66,-0.10,0.02,-0.49
3136,0.00,-0.04,8.66,-0.09,0.02,-0.49
3142,1.95,-0.96,9.96,-0.09,0.02,-0.49
3146,1.95,-0.96,9.96,-0.07,0.01,-0.44
3151,1.95,-0.96,9.96,-0.06,0.01,-0.42
3156,0.77,-0.77,9.65,-0.06,0.01,-0.42
3162,1.80,-0.57,9.39,-0.06,0.01,-0.42
3165,1.80,-0.57,9.39,-0.03,0.01,-0.35
3171,1.34,-1.65,9.73,-0.03,0.01,-0.35
3176,0.50,-0.73,10.30,-0.03,0.01,-0.35
3181,0.50,-0.73,10.30,-0.01,0.04,-0.29
3186,0.50,-0.73,10.30,0.01,0.01,-0.26
3191,1.00,-1.68,9.54,0.01,0.01,-0.26
3196,1.00,-1.68,9.54,0.02,-0.04,-0.22
3201,1.00,-1.68,9.54,0.02,-0.02,-0.20
3206,2.26,-1.72,9.80,0.02,-0.02,-0.20
3212,1.30,-2.07,10.04,0.02,-0.02,-0.20
3216,1.30,-2.07,10.04,0.04,0.03,-0.14
3221,1.30,-2.07,10.04,0.04,0.01,-0.12
3227,0.84,-1.95,9.96,0.04,0.01,-0.12
3231,0.84,-1.95,9.96,0.06,-0.00,-0.07
3236,0.84,-1.95,9.96,0.07,0.00,-0.04
3241,0.84,-1.95,9.96,0.08,0.01,-0.01
3247,1.23,-2.07,9.73,0.08,0.01,-0.01
3250,1.23,-2.07,9.73,0.11,0.00,0.04
3256,1.23,-2.07,9.73,0.12,-0.01,0.07
3262,1.23,-2.07,9.73,0.12,-0.00,0.09
3266,1.23,-2.07,9.73,0.14,-0.02,0.12
3271,1.23,-2.07,9.73,0.15,-0.05,0.15
3276,0.61,-1.88,7.47,0.15,-0.05,0.15
3282,0.38,-1.95,6.82,0.15,-0.05,0.15
3286,0.38,-1.95,6.82,0.19,-0.01,0.24
3291,0.38,-1.95,6.82,0.20,-0.02,0.26
3297,1.04,-2.38,10.11,0.20,-0.02,0.26
3301,1.04,-2.38,10.11,0.19,-0.04,0.29
3306,1.04,-2.38,10.11,0.19,-0.01,0.31
3312,-0.30,-1.65,9.46,0.19,-0.01,0.31
3315,-0.30,-1.65,9.46,0.18,-0.03,0.32
3321,-0.30,-1.65,9.46,0.19,-0.07,0.34
3326,-0.30,-1.65,9.46,0.20,-0.06,0.36
3332,1.91,-2.07,9.23,0.20,-0.06,0.36
3336,1.91,-2.07,9.23,0.21,-0.03,0.40
3341,1.91,-2.07,9.23,0.22,-0.02,0.42
3347,1.27,-1.19,8.36,0.22,-0.02,0.42
3351,1.27,-1.19,8.36,0.22,-0.01,0.45
3356,1.27,-1.19,8.36,0.22,-0.01,0.46
3361,1.27,-1.19,8.36,0.22,-0.00,0.47
3367,-1.11,0.34,10.31,0.22,-0.00,0.47
3371,-1.11,0.34,10.31,0.22,-0.02,0.52
3375,-1.11,0.34,10.31,0.21,-0.07,0.55
3380,-1.11,0.34,10.31,0.20,-0.12,0.57
3387,2.26,-0.84,8.96,0.20,-0.12,0.57
3391,2.26,-0.84,8.96,0.18,-0.13,0.61
3396,1.80,-1.07,8.28,0.18,-0.13,0.61
3401,1.27,-0.08,7.70,0.18,-0.13,0.61
3406,1.27,-0.08,7.70,0.20,-0.03,0.66
3411,1.27,-0.08,7.70,0.20,-0.03,0.67
3417,-2.26,0.23,9.58,0.20,-0.03,0.67
3421,-2.26,0.23,9.58,0.19,-0.07,0.68
3426,-2.26,0.23,9.58,0.19,-0.13,0.69
3431,2.22,-1.11,12.48,0.19,-0.13,0.69
3437,2.87,-0.77,11.22,0.19,-0.13,0.69
3441,2.87,-0.77,11.22,0.18,-0.08,0.78
3446,2.87,-0.77,11.22,0.19,-0.05,0.80
3451,2.07,-1.80,8.36,0.19,-0.05,0.80
3455,2.07,-1.80,8.36,0.24,-0.04,0.85
3460,2.07,-1.80,8.36,0.25,-0.02,0.87
3465,2.07,-1.80,8.36,0.25,-0.01,0.88
3472,-1.15,-0.69,10.39,0.25,-0.01,0.88
3476,-1.15,-0.69,10.39,0.22,-0.05,0.88
3481,-1.15,-0.69,10.39,0.18,-0.13,0.87
3487,2.87,-0.08,10.65,0.18,-0.13,0.87
3491,2.87,-0.08,10.65,0.15,-0.14,0.85
3496,2.87,-0.08,10.65,0.15,-0.06,0.83
3502,2.87,-0.08,10.65,0.15,0.00,0.83
3506,2.87,-0.08,10.65,0.14,0.01,0.82
3511,2.87,-0.08,10.65,0.16,0.00,0.79
3516,2.87,-0.08,10.65,0.16,0.01,0.79
3522,0.19,-0.30,10.80,0.16,0.01,0.79
3526,0.19,-0.30,10.80,0.16,0.02,0.76
3531,0.19,-0.30,10.80,0.15,-0.03,0.74
3535,0.96,-0.80,9.50,0.15,-0.03,0.74
3541,1.76,-1.11,9.27,0.15,-0.03,0.74
3546,1.76,-1.11,9.27,0.15,-0.06,0.69
3551,1.76,-1.11,9.27,0.14,-0.02,0.67
3557,2.11,-0.34,9.20,0.14,-0.02,0.67
3561,2.11,-0.34,9.20,0.13,0.02,0.64
3566,2.11,-0.34,9.20,0.12,0.01,0.62
3571,2.11,-0.34,9.20,0.11,0.02,0.61
3576,2.11,-0.34,9.20,0.10,0.01,0.58
3581,2.11,-0.34,9.20,0.09,-0.01,0.58
3586,2.11,-0.34,9.20,0.08,-0.03,0.57
3592,1.11,-0.50,9.23,0.08,-0.03,0.57
3596,1.11,-0.50,9.23,0.07,-0.01,0.54
3601,1.11,-0.50,9.23,0.07,0.00,0.51
3607,1.04,0.30,9.43,0.07,0.00,0.51
3611,1.04,0.30,9.43,0.07,0.00,0.50
3616,1.04,0.30,9.43,0.07,0.01,0.51
3621,1.04,0.30,9.43,0.06,0.01,0.50
3627,0.61,0.19,9.50,0.06,0.01,0.50
3631,0.61,0.19,9.50,0.05,-0.03,0.48
3636,0.61,0.19,9.50,0.05,-0.04,0.48
3642,1.65,-0.11,9.31,0.05,-0.04,0.48
3646,1.65,-0.11,9.31,0.05,-0.00,0.47
3651,1.65,-0.11,9.31,0.04,0.01,0.47
3656,1.65,-0.11,9.31,0.04,0.03,0.47
3661,0.42,0.23,10.11,0.04,0.03,0.47
3666,0.42,0.23,10.11,0.03,0.05,0.45
3671,0.42,0.23,10.11,0.02,0.02,0.45
3677,0.08,0.57,9.61,0.02,0.02,0.45
3681,0.08,0.57,9.61,0.01,-0.01,0.46
3686,0.08,0.57,9.61,0.01,-0.01,0.47
3691,0.08,0.57,9.61,0.01,0.00,0.48
3697,0.08,0.57,9.61,0.01,0.01,0.48
3701,0.08,0.57,9.61,0.01,0.02,0.49
3706,0.08,0.57,9.61,0.00,0.04,0.49
3711,0.46,0.65,9.85,0.00,0.04,0.49
3716,0.46,0.65,9.85,0.00,0.04,0.50
3721,0.46,0.65,9.85,-0.01,0.03,0.51
3727,0.46,0.65,9.85,-0.01,0.02,0.51
3731,0.46,0.65,9.85,-0.01,0.00,0.52
3736,0.46,0.65,9.85,-0.02,-0.03,0.51
3741,0.46,0.65,9.85,-0.02,-0.05,0.52
3747,1.61,-0.65,9.88,-0.02,-0.05,0.52
3751,1.61,-0.65,9.88,-0.01,0.01,0.53
3755,1.61,-0.65,9.88,-0.01,0.04,0.52
3760,1.61,-0.65,9.88,-0.01,0.04,0.52
3765,0.27,-0.15,9.50,-0.01,0.04,0.52
3772,0.27,-0.15,9.50,-0.01,0.03,0.53
3776,0.27,-0.15,9.50,-0.01,0.02,0.51
3782,0.00,-0.50,9.73,-0.01,0.02,0.51
3786,0.00,-0.50,9.73,-0.03,0.02,0.50
3791,0.00,-0.50,9.73,-0.03,0.01,0.48
3797,0.00,-0.50,9.73,-0.03,0.02,0.47
3801,0.00,-0.50,9.73,-0.03,0.02,0.46
3806,0.00,-0.50,9.73,-0.03,0.02,0.45
3811,0.00,-0.50,9.73,-0.02,0.02,0.44
3816,0.38,-0.30,9.50,-0.02,0.02,0.44
3821,0.38,-0.30,9.50,-0.03,0.03,0.39
3826,0.38,-0.30,9.50,-0.04,0.02,0.37
3831,0.38,-0.30,9.50,-0.04,0.02,0.35
3836,0.38,-0.30,9.50,-0.04,0.01,0.33
3841,0.38,-0.30,9.50,-0.04,0.00,0.32
3847,0.38,-0.30,9.50,-0.04,0.01,0.29
3851,0.38,-0.30,9.50,-0.04,0.02,0.28
3856,0.38,-0.30,9.50,-0.04,0.02,0.25
3861,0.38,-0.30,9.50,-0.06,0.01,0.22
3867,1.38,-1.19,10.11,-0.06,0.01,0.22
3871,1.38,-1.19,10.11,-0.06,0.02,0.18
3876,1.38,-1.19,10.11,-0.06,0.03,0.16
3882,1.38,-1.19,10.11,-0.06,0.04,0.15
3886,1.38,-1.19,10.11,-0.05,0.03,0.13
3891,1.38,-1.19,10.11,-0.05,0.02,0.13
3896,1.38,-1.19,10.11,-0.04,0.02,0.12
3901,1.38,-1.19,10.11,-0.05,0.03,0.10
3906,1.38,-1.19,10.11,-0.05,0.03,0.10
3911,1.38,-1.19,10.11,-0.05,0.02,0.10
3916,1.38,-1.19,10.11,-0.05,0.02,0.09
3921,1.38,-1.19,10.11,-0.06,0.03,0.10
3926,1.38,-1.19,10.11,-0.04,0.03,0.10
3931,1.38,-1.19,10.11,-0.04,0.03,0.10
3936,0.42,-0.88,9.61,-0.04,0.03,0.10
3941,0.42,-0.88,9.61,-0.03,0.00,0.11
3946,0.42,-0.88,9.61,-0.03,-0.00,0.11
3951,0.42,-0.88,9.61,-0.01,-0.00,0.11
3956,0.42,-0.88,9.61,-0.01,-0.01,0.12
3961,0.42,-0.88,9.61,0.01,0.00,0.13
3966,0.42,-0.88,9.61,0.02,0.02,0.13
3971,0.54,0.08,9.69,0.02,0.02,0.13
3976,0.54,0.08,9.69,0.01,0.01,0.13
3981,0.54,0.08,9.69,0.01,-0.01,0.13
3986,0.54,0.08,9.69,0.01,-0.02,0.13
3991,0.54,0.08,9.69,0.01,-0.00,0.13
3996,0.54,0.08,9.69,0.01,0.00,0.14
4001,0.54,0.08,9.69,0.01,-0.01,0.14
4006,1.34,-0.19,9.34,0.01,-0.01,0.14
4011,1.34,-0.19,9.34,0.01,-0.01,0.14
4016,1.34,-0.19,9.34,0.01,0.02,0.14
4021,1.34,-0.19,9.34,0.01,0.02,0.14
4026,1.34,-0.19,9.34,0.00,0.01,0.15
4031,1.34,-0.19,9.34,0.00,-0.00,0.16
4035,1.34,-0.19,9.34,0.00,-0.01,0.17
4041,0.92,-0.15,9.35,0.00,-0.01,0.17
4046,0.92,-0.15,9.35,-0.00,0.00,0.20
4051,0.92,-0.15,9.35,0.00,-0.00,0.21
4056,0.92,-0.15,9.35,0.01,0.01,0.22
4061,0.92,-0.15,9.35,0.01,0.02,0.25
4066,0.92,-0.15,9.35,0.01,0.01,0.26
4071,0.92,-0.15,9.35,0.02,-0.01,0.29
4076,0.92,-0.15,9.35,0.03,-0.01,0.33
4081,0.92,-0.15,9.35,0.03,0.00,0.37
4086,0.92,-0.15,9.35,0.04,0.00,0.40
4092,1.65,-0.84,8.77,0.04,0.00,0.40
4096,1.65,-0.84,8.77,0.05,0.00,0.46
4101,1.65,-0.84,8.77,0.06,0.02,0.50
4106,1.65,-0.84,8.77,0.06,0.03,0.52
4111,1.65,-0.84,8.77,0.06,0.03,0.55
4116,1.65,-0.84,8.77,0.06,-0.00,0.59
4121,1.65,-0.84,8.77,0.06,-0.03,0.62
4127,0.88,-0.88,9.39,0.06,-0.03,0.62
4131,0.88,-0.88,9.39,0.07,-0.04,0.69
4136,0.88,-0.88,9.39,0.08,-0.04,0.72
4141,0.88,-0.88,9.39,0.08,-0.03,0.75
4146,0.88,-0.88,9.39,0.08,-0.01,0.78
4151,0.88,-0.88,9.39,0.09,-0.00,0.80
4156,0.88,-0.88,9.39,0.09,0.00,0.82
4162,0.50,-0.69,10.15,0.09,0.00,0.82
4166,0.50,-0.69,10.15,0.11,-0.01,0.88
4171,0.50,-0.69,10.15,0.12,-0.02,0.90
4176,0.50,-0.69,10.15,0.12,-0.03,0.90
4181,0.50,-0.69,10.15,0.12,-0.03,0.91
4186,0.50,-0.69,10.15,0.12,-0.04,0.91
4190,0.50,-0.69,10.15,0.14,-0.04,0.91
4197,0.80,-0.27,9.38,0.14,-0.04,0.91
4201,0.80,-0.27,9.38,0.13,-0.03,0.91
4206,0.80,-0.27,9.38,0.12,-0.01,0.90
4211,0.80,-0.27,9.38,0.12,-0.01,0.89
4216,0.80,-0.27,9.38,0.13,-0.01,0.90
4221,0.80,-0.27,9.38,0.13,-0.03,0.91
4225,0.80,-0.27,9.38,0.14,-0.03,0.91
4231,1.04,-1.68,9.73,0.14,-0.03,0.91
4235,1.04,-1.68,9.73,0.15,-0.03,0.93
4240,1.04,-1.68,9.73,0.16,-0.03,0.95
4245,1.04,-1.68,9.73,0.19,-0.03,0.96
4251,-0.30,-1.30,10.27,0.19,-0.03,0.96
4256,-0.30,-1.30,10.27,0.24,-0.03,1.03
4260,-0.30,-1.30,10.27,0.28,-0.04,1.06
4266,-1.49,0.00,10.31,0.28,-0.04,1.06
4271,-1.49,0.00,10.31,0.30,-0.05,1.11
4276,-1.49,0.00,10.31,0.31,-0.06,1.12
4282,-1.49,0.00,10.31,0.30,-0.06,1.12
4286,-1.49,0.00,10.31,0.30,-0.06,1.12
4291,-1.49,0.00,10.31,0.29,-0.07,1.12
4295,-1.49,0.00,10.31,0.30,-0.07,1.11
4302,-2.61,-0.57,8.46,0.30,-0.07,1.11
4306,-2.61,-0.57,8.46,0.32,-0.08,1.11
4311,-2.61,-0.57,8.46,0.30,-0.07,1.11
4316,-2.95,0.34,8.85,0.30,-0.07,1.11
4321,-2.95,0.34,8.85,0.27,-0.07,1.10
4326,-2.95,0.34,8.85,0.25,-0.09,1.10
4330,-2.95,0.34,8.85,0.24,-0.11,1.13
4336,-3.71,0.30,8.35,0.24,-0.11,1.13
4341,-3.71,0.30,8.35,0.22,-0.07,1.13
4346,-3.71,0.30,8.35,0.22,-0.04,1.15
4351,-1.42,-1.38,9.42,0.22,-0.04,1.15
4356,-1.42,-1.38,9.42,0.23,-0.07,1.18
4361,-1.42,-1.38,9.42,0.26,-0.08,1.21
4365,-1.42,-1.38,9.42,0.27,-0.08,1.25
4371,-1.30,-1.61,10.11,0.27,-0.08,1.25
4376,-1.30,-1.61,10.11,0.32,-0.07,1.31
4380,-1.30,-1.61,10.11,0.34,-0.08,1.34
4386,-0.65,-1.91,11.26,0.34,-0.08,1.34
4391,-0.65,-1.91,11.26,0.39,-0.12,1.43
4395,-0.65,-1.91,11.26,0.40,-0.12,1.46
4400,-0.65,-1.91,11.26,0.42,-0.11,1.47
4406,-0.19,0.08,8.82,0.42,-0.11,1.47
4412,-0.19,0.08,8.82,0.43,-0.10,1.47
4415,-0.19,0.08,8.82,0.41,-0.12,1.48
4421,-0.42,1.42,8.04,0.41,-0.12,1.48
4426,-0.42,1.42,8.04,0.37,-0.12,1.47
4431,-0.42,1.42,8.04,0.33,-0.12,1.44
4435,-0.42,1.42,8.04,0.27,-0.12,1.41
4441,0.30,1.91,8.39,0.27,-0.12,1.41
4446,0.30,1.91,8.39,0.14,-0.10,1.33
4450,0.30,1.91,8.39,0.07,-0.06,1.26
4456,1.61,2.95,9.34,0.07,-0.06,1.26
4461,1.61,2.95,9.34,-0.03,0.04,1.18
4466,1.61,2.95,9.34,-0.06,0.05,1.14
4471,1.61,2.95,9.34,-0.07,0.08,1.12
4476,0.04,2.95,10.19,-0.07,0.08,1.12
4481,0.04,2.95,10.19,-0.08,0.13,1.07
4486,0.04,2.95,10.19,-0.05,0.15,1.05
4491,-0.19,1.95,10.15,-0.05,0.15,1.05
4496,-0.19,1.95,10.15,0.04,0.15,1.09
4501,-0.19,1.95,10.15,0.10,0.13,1.17
4506,-0.19,1.95,10.15,0.15,0.10,1.26
4511,-0.19,1.95,10.15,0.20,0.06,1.37
4516,-0.19,1.95,10.15,0.25,0.02,1.46
4520,-0.19,1.95,10.15,0.27,-0.01,1.55
4526,3.45,4.41,9.00,0.27,-0.01,1.55
4531,3.45,4.41,9.00,0.21,0.03,1.59
4535,3.45,4.41,9.00,0.15,0.10,1.54
4541,3.45,4.41,9.00,0.09,0.18,1.48
4546,3.45,4.41,9.00,0.06,0.24,1.44
4551,3.45,4.41,9.00,0.03,0.28,1.41
4555,3.45,4.41,9.00,-0.00,0.27,1.38
4560,-2.72,-0.50,8.08,-0.00,0.27,1.38
4566,-2.72,-0.50,8.08,-0.04,0.21,1.35
4571,-2.72,-0.50,8.08,-0.04,-0.00,1.29
4576,-0.23,-3.29,11.88,-0.04,-0.00,1.29
4581,-0.23,-3.29,11.88,-0.01,-0.19,1.33
4586,-0.23,-3.29,11.88,0.04,-0.20,1.38
4591,-0.23,-3.29,11.88,0.12,-0.10,1.40
4596,0.80,-0.46,12.91,0.12,-0.10,1.40
4601,0.80,-0.46,12.91,0.16,0.30,1.40
4605,0.80,-0.46,12.91,0.20,0.30,1.40
4611,-1.15,0.11,10.23,0.20,0.30,1.40
4616,-1.15,0.11,10.23,0.19,0.15,1.41
4621,-1.15,0.11,10.23,0.17,0.09,1.37
4626,-1.15,0.11,10.23,0.12,0.04,1.31
4631,-1.34,1.57,8.89,0.12,0.04,1.31
4636,-1.34,1.57,8.89,0.09,0.02,1.22
4640,-1.34,1.57,8.89,0.07,0.04,1.17
4646,-0.42,0.69,8.70,0.07,0.04,1.17
4651,-0.42,0.69,8.70,0.03,0.07,1.02
4656,-0.42,0.69,8.70,0.02,0.07,0.96
4661,-0.42,0.69,8.70,0.02,0.08,0.91
4666,-0.42,0.84,9.58,0.02,0.08,0.91
4671,-0.42,0.84,9.58,-0.01,0.09,0.80
4675,-0.42,0.84,9.58,-0.02,0.09,0.75
4681,1.80,1.88,11.42,-0.02,0.09,0.75
4686,1.80,1.88,11.42,-0.02,0.11,0.70
4691,1.80,1.88,11.42,-0.02,0.13,0.69
4696,1.80,1.88,11.42,-0.02,0.18,0.67
4701,1.53,1.72,10.00,-0.02,0.18,0.67
4706,1.53,1.72,10.00,0.02,0.25,0.64
4710,1.53,1.72,10.00,0.03,0.26,0.62
4716,1.68,3.60,8.89,0.03,0.26,0.62
4721,1.68,3.60,8.89,-0.01,0.27,0.52
4725,1.68,3.60,8.89,-0.04,0.27,0.47
4731,1.68,3.60,8.89,-0.09,0.26,0.41
4736,1.68,3.60,8.89,-0.13,0.24,0.35
4741,1.68,3.60,8.89,-0.16,0.21,0.29
4745,1.68,3.60,8.89,-0.18,0.19,0.24
4751,2.61,2.34,9.34,-0.18,0.19,0.24
4756,2.61,2.34,9.34,-0.21,0.21,0.15
4760,2.61,2.34,9.34,-0.21,0.23,0.10
4766,2.61,2.34,9.34,-0.21,0.23,0.06
4771,2.61,2.34,9.34,-0.21,0.22,0.04
4776,2.61,2.34,9.34,-0.20,0.22,0.02
4781,2.61,2.34,9.34,-0.18,0.22,0.02
4786,2.22,1.11,9.77,-0.18,0.22,0.02
4791,2.22,1.11,9.77,-0.17,0.24,0.01
4795,2.22,1.11,9.77,-0.17,0.25,-0.01
4801,2.22,1.11,9.77,-0.18,0.25,-0.04
4806,2.22,1.11,9.77,-0.18,0.25,-0.06
4811,2.22,1.11,9.77,-0.20,0.25,-0.08
4816,2.22,1.11,9.77,-0.21,0.25,-0.12
4821,1.61,1.42,8.82,-0.21,0.25,-0.12
4826,1.61,1.42,8.82,-0.23,0.24,-0.18
4830,1.61,1.42,8.82,-0.24,0.23,-0.21
4836,0.15,1.42,9.23,-0.24,0.23,-0.21
4841,0.15,1.42,9.23,-0.27,0.23,-0.31
4846,0.15,1.42,9.23,-0.29,0.23,-0.38
4851,0.15,1.42,9.23,-0.30,0.22,-0.43
4856,0.46,1.42,9.08,-0.30,0.22,-0.43
4861,0.46,1.42,9.08,-0.31,0.18,-0.46
4865,0.46,1.42,9.08,-0.33,0.16,-0.50
4871,0.34,1.27,9.50,-0.33,0.16,-0.50
4876,0.34,1.27,9.50,-0.34,0.16,-0.57
4880,0.34,1.27,9.50,-0.33,0.19,-0.61
4886,0.34,1.27,9.50,-0.33,0.24,-0.63
4891,-0.27,1.68,9.38,-0.33,0.24,-0.63
4896,-0.27,1.68,9.38,-0.33,0.28,-0.71
4900,-0.27,1.68,9.38,-0.34,0.26,-0.75
4906,-1.38,0.88,9.42,-0.34,0.26,-0.75
4910,-1.38,0.88,9.42,-0.35,0.20,-0.80
4915,-1.38,0.88,9.42,-0.37,0.17,-0.84
4921,-1.38,0.88,9.42,-0.38,0.16,-0.89
4926,0.73,1.76,9.35,-0.38,0.16,-0.89
4830,1.61,1.42,8.82,-0.24,0.23,-0.21
4836,0.15,1.42,9.23,-0.24,0.23,-0.21
4841,0.15,1.42,9.23,-0.27,0.23,-0.31
4846,0.15,1.42,9.23,-0.29,0.23,-0.38
4851,0.15,1.42,9.23,-0.30,0.22,-0.43
4856,0.46,1.42,9.08,-0.30,0.22,-0.43
4861,0.46,1.42,9.08,-0.31,0.18,-0.46
4865,0.46,1.42,9.08,-0.33,0.16,-0.50
4871,0.34,1.27,9.50,-0.33,0.16,-0.50
4876,0.34,1.27,9.50,-0.34,0.16,-0.57
4880,0.34,1.27,9.50,-0.33,0.19,-0.61
4886,0.34,1.27,9.50,-0.33,0.24,-0.63
4891,-0.27,1.68,9.38,-0.33,0.24,-0.63
4896,-0.27,1.68,9.38,-0.33,0.28,-0.71
4900,-0.27,1.68,9.38,-0.34,0.26,-0.75
