timestamp,accX,accY,accZ,gyroX,gyroY,gyroZ
Break
6,-0.19,-2.30,9.16,-0.03,0.01,-0.02
19,-0.27,-2.26,9.16,-0.03,0.01,-0.02
20,1.80,-0.69,10.95,-0.03,0.01,-0.02
22,-0.11,-0.30,10.38,-0.03,0.01,-0.02
26,-0.11,-0.30,10.38,0.04,0.01,0.03
32,-0.38,-0.42,10.19,0.04,0.01,0.03
36,-0.38,-0.42,10.19,0.01,0.01,0.01
41,0.88,-0.84,9.96,0.01,0.01,0.01
47,0.42,0.30,9.39,0.01,0.01,0.01
51,0.42,0.30,9.39,0.02,-0.02,0.07
57,1.00,0.50,9.61,0.02,-0.02,0.07
62,0.50,0.08,9.96,0.02,-0.02,0.07
66,0.50,0.08,9.96,0.02,-0.00,0.07
71,0.50,0.08,9.96,0.01,0.00,0.08
76,-0.80,-1.07,9.35,0.01,0.00,0.08
82,-0.42,-1.23,8.96,0.01,0.00,0.08
86,-0.42,-1.23,8.96,0.02,-0.03,0.11
92,0.15,-0.92,8.74,0.02,-0.03,0.11
97,0.77,-1.11,8.85,0.02,-0.03,0.11
101,0.77,-1.11,8.85,0.05,-0.02,0.17
107,0.77,-1.11,8.85,0.05,-0.00,0.17
112,0.42,-1.04,9.81,0.05,-0.00,0.17
116,0.42,-1.04,9.81,0.08,0.01,0.18
121,0.42,-1.04,9.81,0.08,0.04,0.19
127,0.42,-1.04,9.81,0.08,0.04,0.18
132,-1.91,-0.54,10.61,0.08,0.04,0.18
136,-1.91,-0.54,10.61,0.05,-0.04,0.17
141,-1.91,-0.54,10.61,0.06,-0.07,0.17
146,0.00,-1.19,9.85,0.06,-0.07,0.17
152,-0.08,-0.27,10.00,0.06,-0.07,0.17
156,-0.08,-0.27,10.00,0.08,-0.01,0.22
161,0.30,-0.88,9.23,0.08,-0.01,0.22
167,0.34,-0.65,9.30,0.08,-0.01,0.22
171,0.34,-0.65,9.30,0.06,0.03,0.24
177,-2.26,0.27,7.82,0.06,0.03,0.24
182,-2.34,-0.61,7.97,0.06,0.03,0.24
186,-2.34,-0.61,7.97,0.05,-0.00,0.28
191,-2.34,-0.61,7.97,0.04,-0.04,0.28
197,0.00,0.11,10.11,0.04,-0.04,0.28
202,0.30,0.08,10.57,0.04,-0.04,0.28
206,0.30,0.08,10.57,0.04,-0.02,0.32
212,0.30,0.08,10.57,0.07,-0.01,0.33
217,0.23,-1.68,11.22,0.07,-0.01,0.33
221,0.23,-1.68,11.22,0.10,0.00,0.35
226,0.23,-1.68,11.22,0.10,0.00,0.37
232,-1.38,0.11,9.89,0.10,0.00,0.37
237,-1.19,0.11,9.61,0.10,0.00,0.37
241,-1.19,0.11,9.61,0.03,0.03,0.36
247,-1.19,0.11,9.61,0.01,0.01,0.35
252,-0.77,-0.15,10.42,0.01,0.01,0.35
256,-0.77,-0.15,10.42,-0.03,0.05,0.33
261,-0.77,-0.15,10.42,-0.03,0.03,0.33
267,-0.77,-0.15,10.42,-0.03,0.01,0.34
272,-1.65,0.61,9.27,-0.03,0.01,0.34
276,-1.65,0.61,9.27,-0.04,0.02,0.35
281,-0.38,0.65,8.66,-0.04,0.02,0.35
286,0.57,0.80,8.89,-0.04,0.02,0.35
292,0.42,1.11,8.54,-0.04,0.02,0.35
297,0.42,1.11,8.54,-0.06,0.03,0.35
301,-1.23,0.65,9.50,-0.06,0.03,0.35
307,-0.11,0.65,10.15,-0.06,0.03,0.35
312,-0.11,0.65,10.15,-0.08,0.02,0.32
316,-0.11,0.65,10.15,-0.10,0.07,0.30
322,-1.91,-0.19,11.19,-0.10,0.07,0.30
327,-1.91,-0.19,11.19,-0.11,0.02,0.27
332,-1.91,-0.19,11.19,-0.12,-0.02,0.25
338,0.50,0.23,11.22,-0.12,-0.02,0.25
341,0.50,0.23,11.22,-0.14,0.13,0.21
346,0.50,0.23,11.22,-0.13,0.11,0.21
352,0.30,-0.04,10.31,-0.13,0.11,0.21
357,1.88,0.19,10.00,-0.13,0.11,0.21
361,1.88,0.19,10.00,-0.18,0.16,0.16
367,1.88,0.19,10.00,-0.20,0.21,0.14
373,-4.37,1.88,9.04,-0.20,0.21,0.14
376,-4.37,1.88,9.04,-0.19,0.07,0.13
381,-4.37,1.88,9.04,-0.19,0.00,0.14
387,-4.37,1.88,9.04,-0.22,0.04,0.12
392,0.08,0.08,8.58,-0.22,0.04,0.12
397,0.08,0.08,8.58,-0.24,0.07,0.06
401,0.08,0.08,8.58,-0.26,0.04,0.05
407,0.08,0.08,8.58,-0.26,0.03,0.06
412,-0.23,1.61,7.70,-0.26,0.03,0.06
417,-0.23,1.61,7.70,-0.29,0.06,0.04
422,-0.23,1.61,7.70,-0.27,0.05,0.03
427,0.27,-0.08,10.49,-0.27,0.05,0.03
432,0.27,-0.08,10.49,-0.25,0.07,0.02
437,0.27,-0.08,10.49,-0.24,0.06,0.01
442,1.61,0.23,10.91,-0.24,0.06,0.01
447,1.61,0.23,10.91,-0.22,0.08,-0.01
451,1.61,0.23,10.91,-0.22,0.11,-0.01
457,-0.50,0.65,9.96,-0.22,0.11,-0.01
462,-0.54,0.23,9.58,-0.22,0.11,-0.01
467,-0.54,0.23,9.58,-0.27,0.05,-0.07
472,-0.54,0.23,9.58,-0.29,0.05,-0.09
477,2.18,0.38,10.04,-0.29,0.05,-0.09
481,2.18,0.38,10.04,-0.31,0.06,-0.14
487,2.18,0.38,10.04,-0.31,0.09,-0.17
493,0.69,-0.11,9.69,-0.31,0.09,-0.17
496,0.69,-0.11,9.69,-0.30,0.08,-0.21
501,0.69,-0.11,9.69,-0.31,0.08,-0.22
507,0.69,-0.11,9.69,-0.30,0.07,-0.24
512,1.15,0.19,10.41,-0.30,0.07,-0.24
517,1.15,0.19,10.41,-0.28,0.08,-0.27
521,1.15,0.19,10.41,-0.27,0.08,-0.28
526,1.15,0.19,10.41,-0.26,0.07,-0.29
532,0.50,0.38,8.78,-0.26,0.07,-0.29
537,0.50,0.38,8.78,-0.27,0.11,-0.33
542,0.50,0.38,8.78,-0.26,0.09,-0.34
547,-0.96,1.00,8.54,-0.26,0.09,-0.34
552,-0.96,1.00,8.54,-0.27,0.09,-0.36
557,-0.96,1.00,8.54,-0.27,0.08,-0.36
563,0.80,0.92,10.15,-0.27,0.08,-0.36
567,0.80,0.92,10.15,-0.26,0.03,-0.39
572,0.80,0.92,10.15,-0.26,0.02,-0.39
577,1.46,0.57,9.73,-0.26,0.02,-0.39
582,0.92,0.80,9.34,-0.26,0.02,-0.39
587,0.92,0.80,9.34,-0.28,0.03,-0.40
592,0.92,0.80,9.34,-0.28,0.05,-0.41
598,1.27,0.50,7.59,-0.28,0.05,-0.41
601,1.27,0.50,7.59,-0.27,0.08,-0.37
607,1.27,0.50,7.59,-0.29,0.11,-0.37
612,-1.27,0.42,7.36,-0.29,0.11,-0.37
618,-1.38,0.42,7.43,-0.29,0.11,-0.37
621,-1.38,0.42,7.43,-0.25,0.02,-0.30
627,-1.38,0.42,7.43,-0.21,-0.04,-0.26
633,1.00,-0.23,12.91,-0.21,-0.04,-0.26
637,1.00,-0.23,12.91,-0.18,-0.04,-0.18
641,1.00,-0.23,12.91,-0.18,0.04,-0.15
646,1.00,-0.23,12.91,-0.14,0.09,-0.09
651,-4.60,1.11,8.89,-0.14,0.09,-0.09
657,-4.60,1.11,8.89,-0.08,0.12,-0.07
663,-0.80,1.15,6.97,-0.08,0.12,-0.07
667,-3.45,0.27,6.86,-0.08,0.12,-0.07
672,-3.45,0.27,6.86,-0.21,0.03,-0.14
677,-3.45,0.27,6.86,-0.21,-0.04,-0.14
682,-1.65,-2.87,9.39,-0.21,-0.04,-0.14
688,-3.14,-2.38,9.58,-0.21,-0.04,-0.14
691,-3.14,-2.38,9.58,-0.12,-0.11,-0.17
697,-3.14,-2.38,9.58,-0.08,0.01,-0.16
702,-2.22,0.11,9.92,-0.08,0.01,-0.16
707,-2.22,0.11,9.92,-0.10,0.00,-0.19
712,-2.22,0.11,9.92,-0.09,-0.07,-0.20
718,0.04,-0.80,10.19,-0.09,-0.07,-0.20
721,0.04,-0.80,10.19,-0.09,0.09,-0.26
727,0.04,-0.80,10.19,-0.07,0.09,-0.26
732,0.04,-0.80,10.19,-0.08,0.06,-0.23
738,-1.99,-0.57,9.65,-0.08,0.06,-0.23
742,-1.99,-0.57,9.65,-0.10,0.02,-0.24
747,-1.99,-0.57,9.65,-0.11,0.01,-0.28
753,1.34,-0.96,10.15,-0.11,0.01,-0.28
757,1.34,-0.96,10.15,-0.13,-0.10,-0.28
762,1.34,-0.96,10.15,-0.14,-0.10,-0.28
767,1.34,-0.96,10.15,-0.08,-0.02,-0.28
772,0.38,-0.38,9.23,-0.08,-0.02,-0.28
777,0.38,-0.38,9.23,-0.07,0.10,-0.27
781,0.38,-0.38,9.23,-0.06,0.05,-0.24
786,0.38,-0.38,9.23,-0.08,0.03,-0.21
793,-0.27,1.88,9.20,-0.08,0.03,-0.21
796,-0.27,1.88,9.20,-0.17,0.10,-0.27
802,-2.07,0.65,8.08,-0.17,0.10,-0.27
807,-2.07,0.65,8.08,-0.13,0.09,-0.22
812,-2.07,0.65,8.08,-0.09,-0.00,-0.17
817,-2.07,0.65,8.08,-0.06,-0.08,-0.13
822,1.57,-1.65,10.00,-0.06,-0.08,-0.13
827,1.57,-1.65,10.00,-0.01,-0.12,-0.09
831,1.57,-1.65,10.00,-0.01,0.02,-0.09
837,-1.00,0.23,8.88,-0.01,0.02,-0.09
842,-1.04,0.11,8.35,-0.01,0.02,-0.09
847,-1.04,0.11,8.35,0.02,-0.01,-0.05
852,-1.04,0.11,8.35,0.00,-0.04,-0.04
857,0.84,-0.88,9.16,0.00,-0.04,-0.04
861,0.84,-0.88,9.16,-0.01,-0.07,-0.09
867,0.84,-0.88,9.16,-0.01,0.05,-0.12
871,0.84,0.00,9.85,-0.01,0.05,-0.12
877,-1.00,-0.04,10.03,-0.01,0.05,-0.12
882,-1.00,-0.04,10.03,-0.06,0.01,-0.22
887,-1.00,-0.04,10.03,-0.06,0.03,-0.25
893,-1.07,-0.80,8.58,-0.06,0.03,-0.25
897,-1.07,-0.80,8.58,-0.06,0.01,-0.26
902,-1.07,-0.80,8.58,-0.05,-0.02,-0.25
908,-1.07,-0.80,8.58,-0.06,-0.02,-0.23
912,-1.07,-0.80,8.58,-0.06,-0.02,-0.23
917,-1.07,-0.80,8.58,-0.06,0.00,-0.24
922,-1.07,-0.80,8.58,-0.07,0.03,-0.24
928,0.27,-1.07,10.27,-0.07,0.03,-0.24
932,0.27,-1.07,10.27,-0.05,0.03,-0.21
937,0.27,-1.07,10.27,-0.03,0.02,-0.19
941,0.04,-0.88,9.65,-0.03,0.02,-0.19
948,1.04,-1.46,9.46,-0.03,0.02,-0.19
952,1.04,-1.46,9.46,-0.00,-0.05,-0.11
957,1.04,-1.46,9.46,-0.01,-0.07,-0.11
962,1.30,-1.72,8.70,-0.01,-0.07,-0.11
967,1.30,-1.72,8.70,0.01,0.05,-0.08
972,1.30,-1.72,8.70,0.04,0.04,-0.06
977,-0.23,-1.11,9.69,0.04,0.04,-0.06
981,-0.23,-1.11,9.69,0.07,-0.03,-0.02
987,-0.23,-1.11,9.69,0.06,-0.03,-0.02
992,-0.23,-1.11,9.69,0.04,-0.03,-0.02
997,1.19,-1.38,11.95,0.04,-0.03,-0.02
1002,1.19,-1.38,11.95,0.03,-0.05,-0.01
1007,1.19,-1.38,11.95,0.03,-0.03,0.02
1013,0.57,-1.04,10.88,0.03,-0.03,0.02
1017,0.57,-1.04,10.88,0.04,0.01,0.03
1022,0.57,-1.04,10.88,0.06,-0.03,0.05
1027,0.57,-1.04,10.88,0.08,-0.01,0.08
1032,-0.77,-1.38,7.20,0.08,-0.01,0.08
1037,-0.77,-1.38,7.20,0.11,0.05,0.12
1042,-0.77,-1.38,7.20,0.12,0.02,0.12
1047,-0.80,-0.42,7.70,0.12,0.02,0.12
1052,-0.80,-0.42,7.70,0.09,-0.09,0.10
1057,-0.80,-0.42,7.70,0.07,-0.14,0.11
1061,2.61,-1.30,12.45,0.07,-0.14,0.11
1067,2.34,-1.27,12.18,0.07,-0.14,0.11
1072,2.34,-1.27,12.18,0.07,0.04,0.14
1077,2.34,-1.27,12.18,0.08,-0.01,0.15
1082,-0.46,-1.42,9.08,0.08,-0.01,0.15
1087,-0.46,-1.42,9.08,0.12,0.03,0.14
1092,-0.46,-1.42,9.08,0.13,0.04,0.14
1098,-1.65,-1.04,7.43,0.13,0.04,0.14
1101,-1.65,-1.04,7.43,0.14,0.01,0.12
1107,-1.65,-1.04,7.43,0.11,-0.03,0.10
1112,-1.65,-1.04,7.43,0.08,-0.08,0.08
1117,-0.38,-0.73,8.42,0.08,-0.08,0.08
1122,-0.38,-0.73,8.42,0.05,-0.09,0.01
1127,-0.38,-0.73,8.42,0.03,0.01,-0.02
1132,-0.38,-0.73,8.42,0.03,-0.01,-0.03
1137,-0.38,-0.73,8.42,0.03,-0.08,-0.04
1142,-0.38,-0.73,8.42,0.02,-0.09,-0.04
1147,-0.38,-0.73,8.42,0.02,-0.00,-0.04
1152,1.15,-0.27,10.34,0.02,-0.00,-0.04
1157,1.15,-0.27,10.34,0.04,0.01,-0.04
1162,1.15,-0.27,10.34,0.06,-0.01,-0.03
1167,1.15,-0.27,10.34,0.06,0.02,-0.03
1172,1.15,-0.27,10.34,0.06,0.04,-0.04
1177,1.15,-0.27,10.34,0.05,0.02,-0.07
1182,1.15,-0.27,10.34,0.06,-0.01,-0.06
1188,-0.61,-0.57,10.15,0.06,-0.01,-0.06
1192,-0.61,-0.57,10.15,0.03,-0.09,-0.07
1197,-0.61,-0.57,10.15,0.02,-0.08,-0.09
1202,-0.61,-0.57,10.15,0.03,-0.02,-0.10
1207,-0.61,-0.57,10.15,0.03,0.05,-0.10
1212,-0.61,-0.57,10.15,0.05,0.05,-0.08
1217,-0.61,-0.57,10.15,0.06,0.05,-0.07
1222,0.96,-0.65,10.19,0.06,0.05,-0.07
1227,0.96,-0.65,10.19,0.07,0.11,-0.06
1232,0.96,-0.65,10.19,0.07,0.12,-0.06
1237,0.96,-0.65,10.19,0.09,0.09,-0.07
1242,0.96,-0.65,10.19,0.10,0.05,-0.05
1247,0.96,-0.65,10.19,0.10,0.00,-0.03
1251,0.96,-0.65,10.19,0.08,-0.05,0.00
1257,0.92,0.54,8.12,0.08,-0.05,0.00
1262,0.92,0.54,8.12,0.02,-0.09,0.00
1267,0.92,0.54,8.12,0.00,0.03,0.00
1272,1.46,0.84,8.70,0.00,0.03,0.00
1277,1.46,0.84,8.70,0.01,-0.02,0.03
1282,1.46,0.84,8.70,0.02,-0.03,0.05
1288,1.46,0.84,8.70,0.02,0.04,0.06
1292,1.46,0.84,8.70,0.01,0.05,0.06
1297,1.46,0.84,8.70,0.01,0.01,0.05
1302,1.46,0.84,8.70,0.01,-0.05,0.05
1307,1.46,-0.54,11.68,0.01,-0.05,0.05
1312,1.46,-0.54,11.68,0.01,-0.01,0.08
1317,1.46,-0.54,11.68,0.03,0.03,0.09
1322,1.46,-0.54,11.68,0.04,0.03,0.09
1327,1.46,-0.54,11.68,0.03,0.02,0.09
1332,1.46,-0.54,11.68,0.03,-0.01,0.08
1337,1.46,-0.54,11.68,0.02,-0.02,0.07
1342,1.84,-1.30,8.93,0.02,-0.02,0.07
1347,1.84,-1.30,8.93,0.02,-0.03,0.07
1352,1.84,-1.30,8.93,0.01,0.00,0.06
1357,1.84,-1.30,8.93,0.00,0.02,0.06
1362,1.84,-1.30,8.93,0.00,0.02,0.03
1367,1.84,-1.30,8.93,-0.02,0.05,0.01
1372,1.84,-1.30,8.93,-0.03,0.06,-0.00
1378,-1.00,-1.38,9.27,-0.03,0.06,-0.00
1382,-1.00,-1.38,9.27,-0.03,-0.03,-0.03
1387,-1.00,-1.38,9.27,-0.01,-0.05,-0.03
1392,-1.00,-1.38,9.27,-0.01,-0.06,-0.01
1397,-1.00,-1.38,9.27,0.00,-0.06,-0.00
1402,-1.00,-1.38,9.27,0.00,-0.04,0.00
1407,-1.00,-1.38,9.27,0.00,-0.02,-0.00
1412,1.07,-0.23,8.24,0.00,-0.02,-0.00
1417,1.07,-0.23,8.24,0.00,0.02,-0.03
1422,1.07,-0.23,8.24,0.00,0.00,-0.05
1427,1.07,-0.23,8.24,0.00,0.02,-0.06
1432,1.07,-0.23,8.24,-0.01,0.02,-0.07
1437,1.07,-0.23,8.24,-0.02,-0.03,-0.08
1441,1.07,-0.23,8.24,-0.03,-0.09,-0.09
1447,2.64,-0.30,11.15,-0.03,-0.09,-0.09
1452,2.64,-0.30,11.15,-0.04,0.00,-0.10
1457,2.64,-0.30,11.15,-0.04,0.03,-0.10
1462,2.64,-0.30,11.15,-0.03,0.02,-0.11
1467,2.64,-0.30,11.15,-0.04,0.00,-0.12
1472,2.64,-0.30,11.15,-0.04,-0.01,-0.14
1476,2.64,-0.30,11.15,-0.03,-0.00,-0.13
1482,1.76,-0.73,7.82,-0.03,-0.00,-0.13
1487,1.76,-0.73,7.82,-0.01,-0.03,-0.09
1492,1.76,-0.73,7.82,-0.01,-0.01,-0.08
1497,1.76,-0.73,7.82,-0.01,-0.01,-0.09
1502,1.76,-0.73,7.82,-0.04,0.00,-0.10
1507,1.76,-0.73,7.82,-0.04,-0.02,-0.11
1511,1.76,-0.73,7.82,-0.05,-0.00,-0.11
1517,1.27,-0.84,12.14,-0.05,-0.00,-0.11
1522,1.27,-0.84,12.14,-0.05,0.01,-0.09
1527,1.27,-0.84,12.14,-0.03,0.01,-0.08
1532,0.34,-1.84,9.96,-0.03,0.01,-0.08
1537,0.34,-1.84,9.96,0.01,0.01,-0.04
1542,0.34,-1.84,9.96,0.03,-0.00,-0.03
1547,0.34,-1.84,9.96,0.03,-0.01,-0.02
1552,0.34,-1.84,9.96,0.03,0.01,-0.01
1557,0.34,-1.84,9.96,0.02,0.04,-0.01
1562,0.34,-1.84,9.96,0.02,0.06,-0.02
1567,-0.38,-1.11,9.58,0.02,0.06,-0.02
1572,-0.38,-1.11,9.58,0.01,0.01,-0.03
1577,-0.38,-1.11,9.58,0.00,-0.02,-0.03
1582,-0.38,-1.11,9.58,0.02,0.00,-0.03
1587,-0.38,-1.11,9.58,0.03,0.02,-0.03
1592,-0.38,-1.11,9.58,0.04,0.01,-0.03
1596,-0.38,-1.11,9.58,0.04,-0.02,-0.03
1602,0.69,-0.50,10.34,0.04,-0.02,-0.03
1607,0.69,-0.50,10.34,0.03,-0.02,-0.04
1612,0.69,-0.50,10.34,0.03,-0.02,-0.04
1617,0.69,-0.50,10.34,0.03,-0.03,-0.05
1622,0.69,-0.50,10.34,0.04,-0.03,-0.04
1627,0.69,-0.50,10.34,0.04,-0.01,-0.04
1631,0.69,-0.50,10.34,0.04,0.01,-0.05
1637,1.15,-0.73,9.20,0.04,0.01,-0.05
1642,1.15,-0.73,9.20,0.03,0.04,-0.07
1647,1.15,-0.73,9.20,0.01,0.05,-0.09
1652,1.15,-0.73,9.20,0.00,0.02,-0.11
1657,1.15,-0.73,9.20,-0.01,-0.00,-0.12
1662,1.15,-0.73,9.20,-0.01,-0.01,-0.12
1666,1.15,-0.73,9.20,-0.02,-0.01,-0.13
1672,2.57,-0.38,9.77,-0.02,-0.01,-0.13
1677,2.57,-0.38,9.77,-0.02,-0.04,-0.14
1682,2.57,-0.38,9.77,-0.01,-0.00,-0.14
1687,2.57,-0.38,9.77,-0.02,0.05,-0.13
1692,2.57,-0.38,9.77,-0.01,0.06,-0.12
1697,2.57,-0.38,9.77,-0.01,0.05,-0.13
1701,2.57,-0.38,9.77,-0.01,0.05,-0.14
1707,-0.88,0.00,9.80,-0.01,0.05,-0.14
1712,-0.88,0.00,9.80,-0.02,0.05,-0.15
1717,-0.88,0.00,9.80,-0.02,0.02,-0.15
1722,-0.88,0.00,9.80,-0.02,-0.03,-0.14
1727,-0.88,0.00,9.80,-0.03,-0.06,-0.12
1732,-0.88,0.00,9.80,-0.05,-0.11,-0.12
1737,-0.88,0.00,9.80,-0.06,-0.10,-0.13
1742,-0.88,0.00,9.80,-0.06,0.01,-0.14
1747,-0.88,0.00,9.80,-0.06,0.04,-0.13
1752,-0.88,0.00,9.80,-0.04,0.01,-0.11
1757,-0.88,0.00,9.80,-0.04,0.02,-0.09
1762,-0.88,0.00,9.80,-0.05,0.04,-0.10
1767,-0.88,0.00,9.80,-0.05,-0.00,-0.11
1772,-0.88,0.00,9.80,-0.05,-0.07,-0.10
1777,-0.88,0.00,9.80,-0.04,-0.13,-0.08
1782,-0.88,0.00,9.80,-0.03,-0.09,-0.06
1786,-0.88,0.00,9.80,-0.02,0.01,-0.04
1792,2.38,-1.80,9.23,-0.02,0.01,-0.04
1797,2.38,-1.80,9.23,0.01,-0.03,-0.01
1802,2.38,-1.80,9.23,0.02,0.03,-0.02
1807,2.38,-1.80,9.23,0.02,0.08,-0.01
1812,2.38,-1.80,9.23,0.03,0.05,-0.00
1817,2.38,-1.80,9.23,0.02,-0.02,-0.00
1821,2.38,-1.80,9.23,0.02,-0.07,0.01
1827,0.92,-1.72,9.61,0.02,-0.07,0.01
1832,0.92,-1.72,9.61,0.02,-0.10,0.01
1837,0.92,-1.72,9.61,0.02,-0.06,0.01
1841,0.92,-1.72,9.61,0.02,-0.04,0.01
1847,1.68,-0.65,9.04,0.02,-0.04,0.01
1852,1.68,-0.65,9.04,0.00,-0.05,-0.01
1856,1.68,-0.65,9.04,0.00,-0.02,-0.02
1862,1.57,-1.23,10.15,0.00,-0.02,-0.02
1867,1.57,-1.23,10.15,0.02,-0.02,-0.01
1872,1.57,-1.23,10.15,0.03,-0.03,0.01
1877,1.57,-1.23,10.15,0.04,-0.03,0.02
1882,1.57,-1.23,10.15,0.03,-0.04,0.03
1887,1.57,-1.23,10.15,0.02,-0.05,0.02
1891,1.57,-1.23,10.15,0.02,-0.07,0.04
1897,2.14,-1.04,9.73,0.02,-0.07,0.04
1902,2.14,-1.04,9.73,0.03,-0.04,0.05
1907,2.14,-1.04,9.73,0.03,-0.05,0.06
1912,2.14,-1.04,9.73,0.03,-0.06,0.06
1917,3.07,-0.73,10.49,0.03,-0.06,0.06
1922,3.07,-0.73,10.49,0.04,-0.03,0.07
1926,3.07,-0.73,10.49,0.04,-0.02,0.06
1932,1.53,-0.61,9.69,0.04,-0.02,0.06
1937,1.53,-0.61,9.69,0.05,-0.03,0.06
1941,1.53,-0.61,9.69,0.04,-0.02,0.06
1947,1.53,-0.61,9.69,0.04,-0.02,0.05
1952,1.53,-0.61,9.69,0.03,-0.01,0.03
1957,1.53,-0.61,9.69,0.02,0.00,0.03
1961,1.53,-0.61,9.69,0.02,-0.01,0.02
1967,1.34,-0.08,9.92,0.02,-0.01,0.02
1972,1.34,-0.08,9.92,0.01,-0.00,0.00
1977,1.34,-0.08,9.92,-0.00,0.01,-0.01
1982,1.34,-0.08,9.92,-0.02,0.02,-0.03
1987,1.34,-0.08,9.92,-0.02,0.01,-0.03
1992,1.34,-0.08,9.92,-0.01,0.00,-0.03
1996,1.34,-0.08,9.92,-0.01,0.01,-0.03
2002,0.96,-0.11,8.28,-0.01,0.01,-0.03
2007,0.96,-0.11,8.28,-0.01,-0.02,-0.01
2011,0.96,-0.11,8.28,-0.01,-0.01,-0.02
2017,0.96,-0.11,8.28,-0.00,-0.01,-0.03
2022,0.96,-0.11,8.28,-0.02,-0.02,-0.04
2027,0.96,-0.11,8.28,-0.01,0.00,-0.04
2031,1.42,-0.50,10.61,-0.01,0.00,-0.04
2037,1.15,-0.80,10.39,-0.01,0.00,-0.04
2042,1.15,-0.80,10.39,-0.01,-0.02,-0.05
2046,1.15,-0.80,10.39,-0.01,-0.01,-0.06
2052,1.68,-1.61,10.84,-0.01,-0.01,-0.06
2057,1.68,-1.61,10.84,-0.01,-0.01,-0.08
2062,1.68,-1.61,10.84,-0.01,0.01,-0.08
2066,1.68,-1.61,10.84,0.00,0.04,-0.08
2072,1.84,-0.80,9.77,0.00,0.04,-0.08
2077,1.84,-0.80,9.77,0.01,0.04,-0.10
2081,1.84,-0.80,9.77,0.00,0.03,-0.11
2087,1.53,-0.42,10.19,0.00,0.03,-0.11
2092,1.53,-0.42,10.19,-0.02,0.06,-0.11
2097,1.53,-0.42,10.19,-0.02,0.05,-0.11
2101,1.53,-0.42,10.19,-0.03,0.03,-0.12
2107,0.57,-0.23,9.08,-0.03,0.03,-0.12
2112,0.57,-0.23,9.08,-0.04,0.04,-0.13
2116,0.57,-0.23,9.08,-0.03,0.03,-0.14
2122,1.38,-0.69,10.04,-0.03,0.03,-0.14
2127,1.38,-0.69,10.04,-0.03,0.02,-0.13
2131,1.38,-0.69,10.04,-0.03,0.04,-0.14
2137,1.38,-0.69,10.04,-0.02,0.03,-0.13
2142,1.49,0.04,9.65,-0.02,0.03,-0.13
2147,1.49,0.04,9.65,-0.02,0.03,-0.13
2151,1.49,0.04,9.65,-0.02,0.04,-0.14
2157,1.88,-0.42,10.19,-0.02,0.04,-0.14
2162,1.88,-0.42,10.19,-0.02,0.03,-0.15
2166,1.88,-0.42,10.19,-0.03,0.04,-0.17
2172,1.88,-0.42,10.19,-0.03,0.02,-0.17
2177,1.46,-0.96,9.89,-0.03,0.02,-0.17
2182,1.46,-0.96,9.89,-0.04,0.05,-0.20
2186,1.46,-0.96,9.89,-0.04,0.05,-0.21
2192,1.99,-0.46,9.46,-0.04,0.05,-0.21
2196,1.99,-0.46,9.46,-0.04,0.07,-0.22
2201,1.99,-0.46,9.46,-0.02,0.09,-0.23
2207,1.99,-0.46,9.46,-0.04,0.08,-0.24
2212,0.38,0.27,10.57,-0.04,0.08,-0.24
2217,0.38,0.27,10.57,-0.05,0.06,-0.26
2221,0.38,0.27,10.57,-0.06,0.04,-0.26
2227,0.34,0.04,9.04,-0.06,0.04,-0.26
2232,0.34,0.04,9.04,-0.07,0.03,-0.26
2236,0.34,0.04,9.04,-0.07,0.01,-0.27
2242,0.34,0.04,9.04,-0.07,-0.01,-0.28
2247,2.14,-0.57,10.07,-0.07,-0.01,-0.28
2252,2.14,-0.57,10.07,-0.04,0.02,-0.24
2256,2.14,-0.57,10.07,-0.03,0.03,-0.23
2262,1.76,0.04,10.11,-0.03,0.03,-0.23
2267,1.76,0.04,10.11,-0.03,0.04,-0.21
2271,1.76,0.04,10.11,-0.02,0.04,-0.22
2277,1.76,0.04,10.11,-0.03,0.04,-0.21
2282,1.76,0.04,10.11,-0.03,0.04,-0.20
2287,1.76,0.04,10.11,-0.03,0.06,-0.22
2292,1.76,0.04,10.11,-0.04,0.06,-0.22
2297,1.42,-0.50,8.81,-0.04,0.06,-0.22
2302,1.42,-0.50,8.81,-0.03,0.05,-0.22
2306,1.42,-0.50,8.81,-0.02,0.07,-0.22
2312,1.42,-0.50,8.81,-0.03,0.06,-0.21
2316,1.42,-0.50,8.81,-0.04,0.04,-0.21
2321,1.42,-0.50,8.81,-0.05,0.01,-0.22
2327,1.42,-0.50,8.81,-0.04,0.00,-0.21
2332,1.07,-0.77,9.27,-0.04,0.00,-0.21
2337,1.07,-0.77,9.27,-0.01,-0.00,-0.16
2341,1.07,-0.77,9.27,0.00,0.01,-0.14
2347,1.80,-1.68,9.04,0.00,0.01,-0.14
2352,1.80,-1.68,9.04,0.01,0.04,-0.13
2357,1.80,-1.68,9.04,0.01,0.04,-0.12
2362,1.80,-1.68,9.04,0.02,0.03,-0.11
2367,-0.38,-1.19,9.96,0.02,0.03,-0.11
2372,-0.38,-1.19,9.96,0.01,0.01,-0.08
2376,-0.38,-1.19,9.96,0.01,-0.03,-0.06
2382,1.34,-1.57,9.89,0.01,-0.03,-0.06
2387,1.34,-1.57,9.89,0.01,-0.05,-0.03
2391,1.34,-1.57,9.89,0.00,-0.01,-0.04
2397,1.34,-1.57,9.89,0.02,0.02,-0.02
2402,1.68,-0.84,10.07,0.02,0.02,-0.02
2407,1.68,-0.84,10.07,0.04,0.04,0.02
2411,1.68,-0.84,10.07,0.05,0.06,0.04
2417,-0.84,-0.34,9.65,0.05,0.06,0.04
2422,-0.84,-0.34,9.65,0.05,0.06,0.07
2426,-0.84,-0.34,9.65,0.05,0.01,0.09
2432,-0.84,-0.34,9.65,0.05,-0.05,0.10
2437,1.07,-1.30,9.50,0.05,-0.05,0.10
2442,1.07,-1.30,9.50,0.06,-0.05,0.13
2447,1.07,-1.30,9.50,0.06,0.00,0.14
2452,0.61,-1.04,8.35,0.06,0.00,0.14
2457,0.61,-1.04,8.35,0.07,-0.03,0.15
2461,0.61,-1.04,8.35,0.06,-0.01,0.15
2467,0.61,-1.04,8.35,0.06,0.01,0.16
2472,0.38,-1.19,10.77,0.06,0.01,0.16
2477,0.38,-1.19,10.77,0.05,-0.02,0.17
2481,0.38,-1.19,10.77,0.04,-0.04,0.16
2487,1.68,-1.07,10.35,0.04,-0.04,0.16
2492,1.68,-1.07,10.35,0.04,-0.01,0.16
2496,1.68,-1.07,10.35,0.04,0.00,0.17
2502,1.68,-1.07,10.35,0.04,0.01,0.17
2507,1.07,-1.38,9.77,0.04,0.01,0.17
2511,1.07,-1.38,9.77,0.06,0.02,0.18
2517,1.07,-1.38,9.77,0.05,0.03,0.18
2522,0.27,-1.65,9.31,0.05,0.03,0.18
2527,0.27,-1.65,9.31,0.06,-0.01,0.18
2531,0.27,-1.65,9.31,0.06,-0.03,0.18
2537,1.34,-1.42,9.23,0.06,-0.03,0.18
2542,1.34,-1.42,9.23,0.07,-0.04,0.18
2546,1.34,-1.42,9.23,0.06,-0.02,0.18
2552,1.34,-1.42,9.23,0.06,-0.02,0.17
2557,1.61,-1.07,9.35,0.06,-0.02,0.17
2562,1.61,-1.07,9.35,0.05,-0.01,0.14
2566,1.61,-1.07,9.35,0.04,-0.01,0.13
2572,1.68,-1.19,9.27,0.04,-0.01,0.13
2576,1.68,-1.19,9.27,0.04,-0.01,0.10
2581,1.68,-1.19,9.27,0.02,-0.00,0.08
2587,1.68,-1.19,9.27,0.02,-0.01,0.06
2592,2.14,0.08,9.81,0.02,-0.01,0.06
2597,2.14,0.08,9.81,-0.00,0.00,0.01
2601,2.14,0.08,9.81,-0.01,0.00,-0.02
2607,2.14,0.08,9.81,-0.03,-0.01,-0.05
2612,2.14,0.08,9.81,-0.03,-0.00,-0.07
2616,2.14,0.08,9.81,-0.02,0.01,-0.09
2622,2.14,0.08,9.81,-0.02,0.01,-0.10
2627,2.68,-0.15,10.07,-0.02,0.01,-0.10
2632,2.68,-0.15,10.07,-0.02,0.03,-0.13
2636,2.68,-0.15,10.07,-0.03,0.03,-0.16
2642,2.14,0.57,9.89,-0.03,0.03,-0.16
2647,2.14,0.57,9.89,-0.04,0.03,-0.20
2651,2.14,0.57,9.89,-0.05,0.04,-0.23
2657,2.14,0.57,9.89,-0.06,0.02,-0.25
2662,1.19,0.30,9.34,-0.06,0.02,-0.25
2667,1.19,0.30,9.34,-0.09,0.01,-0.30
2672,1.19,0.30,9.34,-0.10,0.01,-0.33
2677,2.34,0.50,9.20,-0.10,0.01,-0.33
2682,2.34,0.50,9.20,-0.11,0.02,-0.38
2686,2.34,0.50,9.20,-0.12,0.02,-0.39
2692,0.92,0.34,8.78,-0.12,0.02,-0.39
2697,1.23,0.04,9.00,-0.12,0.02,-0.39
2701,1.23,0.04,9.00,-0.12,-0.00,-0.48
2707,1.23,0.04,9.00,-0.12,-0.01,-0.49
2712,2.49,0.27,9.43,-0.12,-0.01,-0.49
2717,2.49,0.27,9.43,-0.11,0.00,-0.52
2721,2.49,0.27,9.43,-0.12,0.02,-0.54
2727,2.49,0.27,9.43,-0.12,0.03,-0.56
2732,2.49,0.27,9.43,-0.12,0.03,-0.60
2736,2.49,0.27,9.43,-0.13,0.04,-0.62
2742,2.49,0.27,9.43,-0.14,0.05,-0.66
2747,2.49,0.27,9.43,-0.15,0.04,-0.69
2752,2.49,0.27,9.43,-0.17,0.04,-0.70
2756,2.49,0.27,9.43,-0.17,0.03,-0.73
2762,2.30,0.54,10.41,-0.17,0.03,-0.73
2767,2.53,0.77,9.50,-0.17,0.03,-0.73
2771,2.53,0.77,9.50,-0.20,0.06,-0.78
2777,2.53,0.77,9.50,-0.20,0.07,-0.79
2782,1.61,0.23,9.23,-0.20,0.07,-0.79
2786,1.61,0.23,9.23,-0.19,0.08,-0.80
2791,1.61,0.23,9.23,-0.17,0.07,-0.80
2797,1.61,0.23,9.23,-0.16,0.06,-0.80
2802,1.61,0.23,9.23,-0.16,0.05,-0.80
2806,1.61,0.23,9.23,-0.16,0.05,-0.80
2811,1.61,0.23,9.23,-0.15,0.05,-0.80
2817,1.23,-0.08,8.92,-0.15,0.05,-0.80
2821,1.23,-0.08,8.92,-0.14,0.04,-0.79
2826,1.23,-0.08,8.92,-0.14,0.05,-0.79
2832,1.72,-0.80,9.81,-0.14,0.05,-0.79
2836,1.72,-0.80,9.81,-0.14,0.05,-0.79
2841,1.72,-0.80,9.81,-0.13,0.05,-0.79
2847,1.72,-0.80,9.81,-0.12,0.05,-0.78
2851,1.72,-0.80,9.81,-0.12,0.06,-0.78
2856,1.72,-0.80,9.81,-0.12,0.04,-0.77
2862,1.72,-0.80,9.81,-0.11,0.06,-0.76
2867,1.72,-0.80,9.81,-0.10,0.08,-0.74
2871,1.72,-0.80,9.81,-0.09,0.05,-0.72
2876,1.72,-0.80,9.81,-0.09,0.04,-0.69
2881,1.72,-0.80,9.81,-0.08,0.05,-0.66
2887,1.23,-1.80,9.77,-0.08,0.05,-0.66
2891,1.23,-1.80,9.77,-0.04,0.03,-0.57
2896,1.23,-1.80,9.77,-0.02,0.02,-0.52
2902,1.23,-1.72,9.35,-0.02,0.02,-0.52
2906,1.23,-1.72,9.35,0.01,0.03,-0.42
2911,1.23,-1.72,9.35,0.02,0.01,-0.38
2917,1.23,-1.72,9.35,0.04,0.01,-0.33
2921,1.23,-1.72,9.35,0.05,0.03,-0.29
2926,1.23,-1.72,9.35,0.07,0.02,-0.23
2932,1.23,-1.72,9.35,0.06,0.01,-0.19
2937,1.38,-2.61,9.58,0.06,0.01,-0.19
2941,1.38,-2.61,9.58,0.09,0.01,-0.11
2946,1.38,-2.61,9.58,0.09,0.00,-0.07
2952,1.46,-2.45,9.61,0.09,0.00,-0.07
2956,1.46,-2.45,9.61,0.11,-0.01,0.00
2961,1.46,-2.45,9.61,0.11,-0.01,0.03
2966,1.46,-2.45,9.61,0.12,-0.01,0.08
2972,1.34,-2.68,9.92,0.12,-0.01,0.08
2976,1.34,-2.68,9.92,0.16,-0.04,0.17
2982,1.34,-2.68,9.92,0.18,-0.03,0.22
2987,1.34,-2.68,9.92,0.19,-0.04,0.27
2991,1.34,-2.68,9.92,0.22,-0.06,0.31
2996,1.34,-2.68,9.92,0.23,-0.04,0.35
3002,1.34,-2.68,9.92,0.24,-0.03,0.39
3007,1.34,-2.68,9.92,0.25,-0.03,0.42
3011,1.34,-2.68,9.92,0.25,-0.04,0.45
3016,1.34,-2.68,9.92,0.25,-0.03,0.47
3021,1.34,-1.49,9.34,0.25,-0.03,0.47
3027,1.23,-2.11,9.61,0.25,-0.03,0.47
3031,1.23,-2.11,9.61,0.24,-0.05,0.54
3037,1.23,-2.11,9.61,0.23,-0.05,0.55
3041,1.23,-2.11,9.61,0.22,-0.05,0.56
3046,1.23,-2.11,9.61,0.21,-0.06,0.57
3051,1.23,-2.11,9.61,0.22,-0.06,0.58
3057,1.80,-1.95,9.96,0.22,-0.06,0.58
3061,1.80,-1.95,9.96,0.23,-0.06,0.61
3066,1.80,-1.95,9.96,0.22,-0.06,0.62
3072,1.80,-1.95,9.96,0.22,-0.05,0.63
3076,1.80,-1.95,9.96,0.22,-0.06,0.64
3081,1.80,-1.95,9.96,0.22,-0.05,0.64
3087,1.80,-1.95,9.96,0.22,-0.05,0.64
3092,0.80,-1.42,9.46,0.22,-0.05,0.64
3096,0.80,-1.42,9.46,0.22,-0.06,0.66
3101,0.80,-1.42,9.46,0.22,-0.08,0.67
3107,0.80,-1.42,9.46,0.22,-0.07,0.67
3111,0.80,-1.42,9.46,0.21,-0.07,0.67
3116,0.80,-1.42,9.46,0.21,-0.07,0.67
3121,0.80,-1.42,9.46,0.21,-0.07,0.66
3126,0.80,-1.42,9.46,0.20,-0.06,0.66
3131,1.76,-1.91,9.73,0.20,-0.06,0.66
3137,1.76,-1.91,9.73,0.20,-0.06,0.64
3142,1.76,-1.91,9.73,0.20,-0.05,0.64
3146,1.76,-1.91,9.73,0.19,-0.05,0.62
3151,1.76,-1.91,9.73,0.19,-0.05,0.61
3157,1.76,-1.91,9.73,0.18,-0.04,0.60
3161,1.76,-1.91,9.73,0.17,-0.04,0.58
3166,1.76,-1.91,9.73,0.16,-0.04,0.57
3171,1.76,-1.91,9.73,0.16,-0.05,0.56
3177,1.76,-1.91,9.73,0.16,-0.04,0.55
3181,1.76,-1.91,9.73,0.15,-0.04,0.54
3186,1.76,-1.91,9.73,0.14,-0.05,0.53
3191,1.76,-1.91,9.73,0.14,-0.05,0.52
3197,0.57,-1.53,9.04,0.14,-0.05,0.52
3201,0.57,-1.53,9.04,0.14,-0.04,0.51
3206,0.57,-1.53,9.04,0.15,-0.05,0.51
3212,0.57,-1.53,9.04,0.15,-0.05,0.51
3216,0.57,-1.53,9.04,0.16,-0.04,0.51
3221,0.57,-1.53,9.04,0.17,-0.05,0.52
3227,0.57,-1.53,9.04,0.17,-0.06,0.52
3231,0.57,-1.53,9.04,0.17,-0.04,0.52
3236,0.57,-1.53,9.04,0.18,-0.03,0.53
3241,0.57,-1.53,9.04,0.17,-0.04,0.52
3247,0.57,-1.53,9.04,0.17,-0.03,0.52
3251,0.57,-1.53,9.04,0.16,-0.02,0.53
3256,0.57,-1.53,9.04,0.15,-0.02,0.54
3261,0.57,-1.53,9.04,0.13,-0.03,0.54
3267,0.57,-1.53,9.04,0.12,-0.04,0.55
3271,0.57,-1.53,9.04,0.10,-0.03,0.55
3277,0.57,-1.53,9.04,0.10,-0.03,0.56
3281,0.57,-1.53,9.04,0.10,-0.05,0.58
3286,0.57,-1.53,9.04,0.09,-0.04,0.57
3291,0.57,-1.53,9.04,0.08,-0.04,0.59
3297,0.57,-1.53,9.04,0.07,-0.03,0.58
3301,0.57,-1.53,9.04,0.07,-0.03,0.59
3306,0.57,-1.53,9.04,0.06,-0.03,0.60
3311,0.57,-1.53,9.04,0.06,-0.03,0.59
3317,0.54,1.34,9.65,0.06,-0.03,0.59
3322,0.54,1.34,9.65,0.04,-0.01,0.59
3326,0.88,1.11,9.43,0.04,-0.01,0.59
3332,0.88,1.11,9.43,0.00,-0.03,0.56
3337,0.88,1.11,9.43,-0.00,-0.02,0.55
3341,0.84,1.04,10.27,-0.00,-0.02,0.55
3346,0.84,1.04,10.27,-0.03,0.01,0.53
3352,0.84,0.84,10.07,-0.03,0.01,0.53
3356,0.77,0.46,9.73,-0.03,0.01,0.53
3361,0.73,0.88,9.35,-0.03,0.01,0.53
3367,0.73,0.88,9.35,-0.03,-0.01,0.54
3371,0.73,0.88,9.35,-0.03,0.00,0.53
3377,0.73,0.88,9.35,-0.05,0.01,0.54
3381,0.73,0.88,9.35,-0.07,0.02,0.51
3387,0.73,0.88,9.35,-0.09,0.01,0.50
3391,0.88,0.96,8.85,-0.09,0.01,0.50
3396,0.80,0.54,9.23,-0.09,0.01,0.50
3401,0.80,0.54,9.23,-0.13,0.03,0.45
3407,0.46,0.46,9.80,-0.13,0.03,0.45
3412,0.46,0.46,9.80,-0.15,0.03,0.42
3416,0.42,-0.50,9.88,-0.15,0.03,0.42
3422,0.42,-0.50,9.88,-0.15,0.02,0.39
3427,0.42,-0.50,9.88,-0.15,0.01,0.38
3431,0.42,-0.50,9.88,-0.14,0.02,0.38
3437,0.42,-0.50,9.88,-0.13,0.04,0.37
3442,0.42,-0.50,9.88,-0.12,0.04,0.37
3446,0.19,-1.65,9.96,-0.12,0.04,0.37
3451,-0.15,-1.23,9.80,-0.12,0.04,0.37
3456,-0.15,-1.23,9.80,-0.12,0.06,0.36
3461,-0.15,-1.23,9.80,-0.15,0.06,0.34
3466,-0.15,-1.23,9.80,-0.16,0.06,0.33
3471,-0.15,-1.23,9.80,-0.18,0.04,0.33
3477,-0.30,-1.04,8.88,-0.18,0.04,0.33
3482,-0.30,-1.04,8.88,-0.17,0.03,0.35
3487,-0.11,-1.57,8.42,-0.17,0.03,0.35
3491,-0.19,-1.65,9.39,-0.17,0.03,0.35
3497,-0.19,-1.65,9.39,-0.15,0.04,0.38
3501,-0.19,-1.65,9.39,-0.13,0.04,0.39
3507,-0.19,-1.65,9.39,-0.12,0.03,0.40
3512,-0.19,-1.65,9.39,-0.12,0.03,0.42
3516,-0.96,-2.07,10.30,-0.12,0.03,0.42
3521,-0.88,-1.95,10.00,-0.12,0.03,0.42
3527,-0.88,-1.95,10.00,-0.12,0.03,0.47
3532,-0.88,-1.95,10.00,-0.12,0.03,0.48
3537,-0.80,-1.42,9.20,-0.12,0.03,0.48
3541,-1.19,-1.30,9.65,-0.12,0.03,0.48
3546,-1.15,-1.15,9.92,-0.12,0.03,0.48
3551,-1.15,-1.15,9.92,-0.14,0.05,0.50
3557,-1.15,-1.15,9.92,-0.14,0.04,0.51
3562,-1.15,-1.15,9.92,-0.14,0.04,0.52
3566,-1.15,-1.53,9.00,-0.14,0.04,0.52
3571,-0.54,-1.00,9.12,-0.14,0.04,0.52
3577,-0.54,-1.00,9.12,-0.09,0.02,0.55
3581,-0.65,-0.92,8.58,-0.09,0.02,0.55
3586,-1.04,-0.77,9.00,-0.09,0.02,0.55
3592,-1.04,-0.77,9.00,-0.05,0.04,0.58
3597,-1.04,-0.77,9.00,-0.05,0.03,0.59
3601,-1.04,-1.53,10.11,-0.05,0.03,0.59
3607,-1.04,-1.53,10.11,-0.03,0.02,0.59
3612,-1.04,-1.53,10.11,-0.03,0.02,0.58
3616,-0.19,-1.07,10.03,-0.03,0.02,0.58
3621,0.50,-1.68,10.27,-0.03,0.02,0.58
3627,0.50,-1.68,10.27,-0.05,0.03,0.51
3632,0.50,-1.68,10.27,-0.07,0.05,0.49
3636,-0.08,-0.92,9.46,-0.07,0.05,0.49
3641,-0.77,-1.11,8.92,-0.07,0.05,0.49
3647,-0.77,-1.11,8.92,-0.13,0.06,0.35
3652,-0.77,-1.11,8.92,-0.13,0.05,0.30
3656,0.15,-2.18,9.93,-0.13,0.05,0.30
3661,0.00,-2.49,9.38,-0.13,0.05,0.30
3666,0.00,-2.49,9.38,-0.11,0.04,0.19
3671,0.00,-2.49,9.38,-0.11,0.04,0.15
3677,0.00,-2.49,9.38,-0.10,0.04,0.12
3682,0.00,-2.49,9.38,-0.09,0.04,0.08
3686,0.96,-2.64,9.96,-0.09,0.04,0.08
3691,1.07,-2.68,10.31,-0.09,0.04,0.08
3697,1.11,-2.80,10.50,-0.09,0.04,0.08
3701,1.53,-2.91,11.15,-0.09,0.04,0.08
3706,1.57,-2.68,10.91,-0.09,0.04,0.08
3712,1.57,-2.68,10.91,-0.01,0.01,0.05
3717,1.57,-2.68,10.91,-0.01,0.00,0.03
3721,2.84,-2.41,10.27,-0.01,0.00,0.03
3726,2.91,-2.26,10.23,-0.01,0.00,0.03
3732,2.91,-2.26,10.23,0.00,0.02,0.00
3737,2.91,-2.26,10.23,-0.00,0.02,-0.01
3741,2.87,-0.96,9.73,-0.00,0.02,-0.01
3746,2.61,-0.73,9.61,-0.00,0.02,-0.01
3752,2.61,-0.73,9.61,-0.03,0.02,-0.05
3756,2.87,-0.46,9.61,-0.03,0.02,-0.05
3761,3.18,-0.34,9.77,-0.03,0.02,-0.05
3767,3.18,-0.34,9.77,-0.02,0.02,-0.04
3772,3.18,-0.34,9.77,-0.01,0.00,-0.03
3776,3.22,0.08,9.88,-0.01,0.00,-0.03
3781,3.10,0.27,9.73,-0.01,0.00,-0.03
3786,3.29,0.38,9.73,-0.01,0.00,-0.03
3791,3.29,0.38,9.73,0.07,-0.00,0.04
3797,3.29,0.38,9.73,0.06,0.01,0.06
3802,3.29,0.38,9.73,0.06,0.01,0.06
3806,3.33,1.23,9.16,0.06,0.01,0.06
3811,3.22,1.11,9.20,0.06,0.01,0.06
3816,2.87,1.42,8.93,0.06,0.01,0.06
3821,2.87,1.42,8.93,-0.04,0.04,0.05
3826,2.87,1.42,8.93,-0.08,0.04,0.03
3832,2.87,1.42,8.93,-0.10,0.04,0.02
3837,2.87,1.42,8.93,-0.14,0.05,0.01
3841,2.03,0.42,9.16,-0.14,0.05,0.01
3846,1.91,0.15,8.93,-0.14,0.05,0.01
3852,1.91,0.15,8.93,-0.20,0.05,-0.04
3857,1.91,0.15,8.93,-0.21,0.05,-0.06
3861,1.99,-0.84,9.08,-0.21,0.05,-0.06
3866,1.91,-0.73,9.23,-0.21,0.05,-0.06
3872,1.91,-0.73,9.23,-0.20,0.05,-0.09
3876,1.88,-0.88,9.46,-0.20,0.05,-0.09
3881,1.76,-0.96,9.61,-0.20,0.05,-0.09
3887,1.65,-1.11,9.46,-0.20,0.05,-0.09
3891,1.80,-1.57,9.73,-0.20,0.05,-0.09
3896,1.88,-1.68,9.77,-0.20,0.05,-0.09
3901,1.88,-1.68,9.77,-0.19,0.04,-0.19
3907,1.88,-1.68,9.77,-0.19,0.05,-0.21
3911,1.34,-2.07,9.89,-0.19,0.05,-0.21
3916,1.27,-1.91,9.89,-0.19,0.05,-0.21
3922,1.27,-1.91,9.89,-0.21,0.06,-0.27
3927,1.27,-1.91,9.89,-0.22,0.05,-0.29
3931,1.27,-2.34,10.03,-0.22,0.05,-0.29
3936,1.07,-2.49,9.85,-0.22,0.05,-0.29
3942,1.07,-2.49,9.85,-0.22,0.06,-0.35
3946,1.07,-2.26,9.69,-0.22,0.06,-0.35
3951,1.07,-2.18,9.65,-0.22,0.06,-0.35
3957,1.07,-2.18,9.65,-0.22,0.05,-0.37
3962,1.07,-2.18,9.65,-0.21,0.04,-0.38
3966,1.42,-2.45,9.34,-0.21,0.04,-0.38
3971,1.27,-2.61,9.16,-0.21,0.04,-0.38
3977,1.27,-2.61,9.16,-0.19,0.04,-0.36
3981,1.49,-2.64,9.12,-0.19,0.04,-0.36
3986,1.27,-2.49,9.16,-0.19,0.04,-0.36
3992,1.46,-2.38,9.58,-0.19,0.04,-0.36
3996,1.27,-1.91,9.35,-0.19,0.04,-0.36
4001,1.42,-1.72,10.27,-0.19,0.04,-0.36
4006,1.04,-1.72,10.15,-0.19,0.04,-0.36
4012,1.04,-1.72,10.15,-0.14,0.03,-0.21
4016,1.38,-1.68,9.81,-0.14,0.03,-0.21
4021,1.57,-1.88,9.65,-0.14,0.03,-0.21
4027,1.57,-1.88,9.65,-0.14,0.03,-0.13
4032,1.57,-1.72,9.39,-0.14,0.03,-0.13
4036,1.57,-1.72,9.39,-0.13,0.04,-0.04
4041,1.49,-1.46,9.34,-0.13,0.04,-0.04
4047,1.23,-1.42,9.42,-0.13,0.04,-0.04
4051,1.00,-1.38,9.54,-0.13,0.04,-0.04
4056,1.11,-1.42,9.61,-0.13,0.04,-0.04
4061,1.11,-1.42,9.61,-0.11,0.03,0.08
4067,1.11,-1.42,9.61,-0.09,0.02,0.11
4071,0.92,-1.19,9.42,-0.09,0.02,0.11
4077,1.11,-1.11,9.35,-0.09,0.02,0.11
4081,1.27,-1.46,9.04,-0.09,0.02,0.11
4086,1.00,-0.96,9.16,-0.09,0.02,0.11
4091,1.46,-1.38,10.39,-0.09,0.02,0.11
4097,1.46,-1.38,10.39,-0.07,0.02,0.24
4101,1.27,-1.42,9.61,-0.07,0.02,0.24
4106,1.19,-1.00,9.73,-0.07,0.02,0.24
4112,0.96,-1.07,9.88,-0.07,0.02,0.24
4116,1.07,-1.00,10.15,-0.07,0.02,0.24
4121,0.34,-0.77,9.31,-0.07,0.02,0.24
4126,0.57,-0.69,9.69,-0.07,0.02,0.24
4132,0.57,-0.69,9.69,-0.05,0.02,0.30
4136,0.69,-1.23,9.58,-0.05,0.02,0.30
4141,0.11,-0.80,8.58,-0.05,0.02,0.30
4147,0.15,-0.42,9.34,-0.05,0.02,0.30
4152,0.65,-1.57,10.84,-0.05,0.02,0.30
4156,0.65,-1.57,10.84,-0.04,0.04,0.26
4161,-0.08,-1.11,8.04,-0.04,0.04,0.26
4167,-0.46,-1.27,8.43,-0.04,0.04,0.26
4172,-0.34,-1.07,10.80,-0.04,0.04,0.26
4176,-0.34,-1.07,10.80,-0.05,0.03,0.19
4181,-0.77,-1.11,8.74,-0.05,0.03,0.19
4187,-0.77,-1.11,8.74,-0.05,0.01,0.17
4192,-0.77,-1.42,9.81,-0.05,0.01,0.17
4196,-0.96,-1.76,9.89,-0.05,0.01,0.17
4201,-0.73,-1.88,9.89,-0.05,0.01,0.17
4206,-1.27,-1.68,9.30,-0.05,0.01,0.17
4211,-1.23,-1.76,8.89,-0.05,0.01,0.17
4217,-1.07,-1.76,8.73,-0.05,0.01,0.17
4221,-1.42,-1.65,9.50,-0.05,0.01,0.17
4226,-1.34,-1.65,9.81,-0.05,0.01,0.17
4232,-1.30,-1.68,9.85,-0.05,0.01,0.17
4236,-1.38,-1.84,9.58,-0.05,0.01,0.17
4241,-1.27,-1.68,9.39,-0.05,0.01,0.17
4246,-1.46,-1.65,9.34,-0.05,0.01,0.17
4252,-1.30,-1.68,9.42,-0.05,0.01,0.17
4257,-1.38,-1.72,9.46,-0.05,0.01,0.17
4261,-1.38,-1.72,9.46,-0.06,0.02,-0.09
4266,-1.46,-1.53,9.08,-0.06,0.02,-0.09
4271,-1.07,-1.99,9.46,-0.06,0.02,-0.09
4276,-1.84,-1.99,9.54,-0.06,0.02,-0.09
4281,-1.34,-2.30,9.69,-0.06,0.02,-0.09
4287,-1.27,-2.34,9.61,-0.06,0.02,-0.09
4292,-1.19,-1.57,9.35,-0.06,0.02,-0.09
4296,-1.19,-1.57,9.35,-0.03,0.01,-0.04
4301,-1.19,-1.57,9.35,-0.02,0.00,-0.02
4306,-1.07,-1.61,9.30,-0.02,0.00,-0.02
4311,-1.04,-1.49,9.31,-0.02,0.00,-0.02
4317,-1.19,-1.65,9.20,-0.02,0.00,-0.02
4321,-1.04,-1.46,9.30,-0.02,0.00,-0.02
4326,-2.07,-1.38,9.23,-0.02,0.00,-0.02
4331,0.08,-1.68,9.77,-0.02,0.00,-0.02
4337,-1.68,-1.23,9.34,-0.02,0.00,-0.02
4342,-1.15,-1.46,9.27,-0.02,0.00,-0.02
4346,-1.15,-1.46,9.27,0.01,-0.00,0.13
4351,-1.11,-1.42,9.38,0.01,-0.00,0.13
4356,-1.00,-1.38,9.39,0.01,-0.00,0.13
4361,-1.00,-1.34,9.50,0.01,-0.00,0.13
4366,-0.96,-1.46,9.58,0.01,-0.00,0.13
4372,-0.92,-1.46,9.54,0.01,-0.00,0.13
4377,-0.84,-1.46,9.42,0.01,-0.00,0.13
4381,-0.84,-1.46,9.42,0.03,-0.01,0.21
4386,-0.84,-1.49,9.38,0.03,-0.01,0.21
4391,-0.77,-1.72,9.38,0.03,-0.01,0.21
4396,-0.80,-1.68,9.39,0.03,-0.01,0.21
4402,-0.77,-1.72,9.38,0.03,-0.01,0.21
4406,-0.77,-1.57,9.38,0.03,-0.01,0.21
4411,-0.73,-1.80,9.46,0.03,-0.01,0.21
4416,-0.73,-1.49,9.46,0.03,-0.01,0.21
4421,-0.80,-1.53,9.35,0.03,-0.01,0.21
4427,-0.65,-1.38,9.30,0.03,-0.01,0.21
4432,-0.65,-1.49,9.38,0.03,-0.01,0.21
4436,-0.65,-1.49,9.38,0.06,-0.01,0.27
4441,-0.65,-1.49,9.38,0.06,-0.01,0.27
4446,-0.50,-1.49,9.46,0.06,-0.01,0.27
4451,-0.50,-1.49,9.50,0.06,-0.01,0.27
4457,-0.61,-1.53,9.50,0.06,-0.01,0.27
4461,-0.61,-1.53,9.58,0.06,-0.01,0.27
4466,-0.50,-1.53,9.54,0.06,-0.01,0.27
4471,-0.57,-1.38,9.46,0.06,-0.01,0.27
4477,-0.50,-1.34,9.42,0.06,-0.01,0.27
4482,-0.30,-1.19,9.43,0.06,-0.01,0.27
4486,-0.30,-1.19,9.43,0.05,-0.01,0.18
4491,-0.46,-1.34,9.42,0.05,-0.01,0.18
4496,-0.42,-1.34,9.58,0.05,-0.01,0.18
4501,-0.42,-1.27,9.58,0.05,-0.01,0.18
4507,-0.61,-1.42,9.58,0.05,-0.01,0.18
4511,-0.34,-1.61,9.65,0.05,-0.01,0.18
4516,-0.38,-1.72,9.69,0.05,-0.01,0.18
4522,-0.46,-1.76,9.58,0.05,-0.01,0.18
4526,-0.38,-1.80,9.46,0.05,-0.01,0.18
4531,-0.46,-1.72,9.50,0.05,-0.01,0.18
4536,-0.61,-1.80,9.43,0.05,-0.01,0.18
4541,-0.34,-1.57,9.46,0.05,-0.01,0.18
4547,-0.57,-1.46,9.46,0.05,-0.01,0.18
4552,-0.54,-1.49,9.50,0.05,-0.01,0.18
4556,-0.54,-1.49,9.50,0.06,-0.03,0.13
4561,-0.54,-1.49,9.50,0.07,-0.03,0.14
4566,-0.15,-1.53,9.50,0.07,-0.03,0.14
4571,-0.23,-1.49,9.58,0.07,-0.03,0.14
4577,-0.54,-1.04,9.50,0.07,-0.03,0.14
4581,-0.30,-1.30,9.39,0.07,-0.03,0.14
4587,-0.30,-1.07,9.42,0.07,-0.03,0.14
4591,-0.30,-1.07,9.42,0.08,-0.02,0.16
4596,-0.50,-1.19,9.42,0.08,-0.02,0.16
4601,-0.42,-1.19,9.43,0.08,-0.02,0.16
4606,-0.50,-1.34,9.46,0.08,-0.02,0.16
4612,-0.38,-1.19,9.46,0.08,-0.02,0.16
4616,-0.30,-1.15,9.54,0.08,-0.02,0.16
4622,-0.19,-1.19,9.65,0.08,-0.02,0.16
4626,-0.19,-1.19,9.65,0.10,-0.03,0.17
4631,-0.30,-1.46,9.50,0.10,-0.03,0.17
4637,-0.23,-1.46,9.50,0.10,-0.03,0.17
4641,-0.23,-1.46,9.50,0.11,-0.03,0.17
4648,-0.38,-1.27,9.31,0.11,-0.03,0.17
4652,-0.30,-1.00,9.43,0.11,-0.03,0.17
4656,-0.30,-1.00,9.43,0.11,-0.03,0.18
4661,-0.30,-1.00,9.43,0.10,-0.03,0.17
4666,-1.07,-1.27,9.20,0.10,-0.03,0.17
4672,-0.11,-1.68,9.34,0.10,-0.03,0.17
4676,-0.11,-1.68,9.34,0.09,-0.05,0.18
4682,-0.11,-1.68,9.34,0.09,-0.01,0.18
4687,-0.04,-0.42,9.43,0.09,-0.01,0.18
4691,-0.04,-0.42,9.43,0.07,-0.05,0.14
4696,-0.04,-0.42,9.43,0.04,-0.01,0.13
4701,-0.04,-0.42,9.43,0.04,-0.01,0.12
4706,0.08,0.04,9.27,0.04,-0.01,0.12
4712,0.08,0.23,9.27,0.04,-0.01,0.12
4716,-0.11,0.50,9.12,0.04,-0.01,0.12
4721,-0.11,0.69,9.31,0.04,-0.01,0.12
4727,-0.04,0.77,9.43,0.04,-0.01,0.12
4732,-0.04,0.77,9.43,-0.02,0.00,0.02
4736,-0.19,0.50,9.69,-0.02,0.00,0.02
4741,0.04,0.34,9.80,-0.02,0.00,0.02
4747,0.11,0.34,9.85,-0.02,0.00,0.02
4751,0.08,0.38,9.80,-0.02,0.00,0.02
4756,0.23,0.73,9.77,-0.02,0.00,0.02
4761,0.15,0.84,9.77,-0.02,0.00,0.02
4767,-0.30,0.61,9.61,-0.02,0.00,0.02
4771,-0.23,0.42,9.58,-0.02,0.00,0.02
4777,-0.38,0.34,9.61,-0.02,0.00,0.02
4781,-0.38,0.34,9.61,-0.07,0.03,-0.27
4787,-0.50,0.46,9.42,-0.07,0.03,-0.27
4792,-0.34,0.54,9.50,-0.07,0.03,-0.27
4796,-0.34,0.54,9.50,-0.10,0.03,-0.37
4801,-0.34,0.54,9.50,-0.11,0.03,-0.39
4806,-0.27,0.15,9.54,-0.11,0.03,-0.39
4812,-0.34,-0.08,9.54,-0.11,0.03,-0.39
4816,-0.34,-0.08,9.54,-0.12,0.03,-0.43
4822,-0.34,-0.08,9.54,-0.12,0.03,-0.43
4827,-0.73,-0.38,9.46,-0.12,0.03,-0.43
4831,-0.73,-0.38,9.46,-0.13,0.04,-0.43
4836,-0.92,-0.57,9.43,-0.13,0.04,-0.43
4841,-0.92,-0.77,9.43,-0.13,0.04,-0.43
4847,-0.96,-0.96,9.46,-0.13,0.04,-0.43
4851,-0.96,-0.96,9.46,-0.13,0.03,-0.42
4856,-1.00,-1.38,9.50,-0.13,0.03,-0.42
4862,-1.04,-1.46,9.50,-0.13,0.03,-0.42
4866,-1.04,-1.46,9.50,-0.12,0.04,-0.38
4872,-1.19,-1.49,9.54,-0.12,0.04,-0.38
4877,-1.19,-1.49,9.46,-0.12,0.04,-0.38
4881,-1.19,-1.49,9.46,-0.10,0.03,-0.33
4886,-1.19,-1.49,9.46,-0.11,0.03,-0.32
4891,-1.23,-1.49,9.43,-0.11,0.03,-0.32
4897,-1.23,-1.49,9.38,-0.11,0.03,-0.32
4901,-1.23,-1.49,9.38,-0.09,0.03,-0.26
4907,-1.11,-1.38,9.38,-0.09,0.03,-0.26
4912,-1.23,-1.38,9.30,-0.09,0.03,-0.26
4916,-1.23,-1.38,9.30,-0.08,0.02,-0.20
4921,-1.23,-1.38,9.30,-0.07,0.02,-0.18
4827,-0.73,-0.38,9.46,-0.12,0.03,-0.43
4831,-0.73,-0.38,9.46,-0.13,0.04,-0.43
4836,-0.92,-0.57,9.43,-0.13,0.04,-0.43
4841,-0.92,-0.77,9.43,-0.13,0.04,-0.43
4847,-0.96,-0.96,9.46,-0.13,0.04,-0.43
4851,-0.96,-0.96,9.46,-0.13,0.03,-0.42
4856,-1.00,-1.38,9.50,-0.13,0.03,-0.42
4862,-1.04,-1.46,9.50,-0.13,0.03,-0.42
4866,-1.04,-1.46,9.50,-0.12,0.04,-0.38
4872,-1.19,-1.49,9.54,-0.12,0.04,-0.38
4877,-1.19,-1.49,9.46,-0.12,0.04,-0.38
4881,-1.19,-1.49,9.46,-0.10,0.03,-0.33
4886,-1.19,-1.49,9.46,-0.11,0.03,-0.32
4891,-1.23,-1.49,9.43,-0.11,0.03,-0.32
4897,-1.23,-1.49,9.38,-0.11,0.03,-0.32
