timestamp,accX,accY,accZ,gyroX,gyroY,gyroZ
Left
6,-4.21,0.23,11.15,-0.24,0.02,-0.26
18,-1.46,-2.68,12.64,-0.24,0.02,-0.26
21,-1.46,-2.68,12.64,0.38,0.28,0.26
22,-1.46,-2.68,12.64,0.47,0.05,0.36
25,0.27,-0.88,6.82,0.47,0.05,0.36
30,0.27,-0.88,6.82,0.47,-0.08,0.41
36,0.04,-1.72,8.35,0.47,-0.08,0.41
41,0.46,-1.38,9.30,0.47,-0.08,0.41
46,-1.04,-1.65,9.73,0.47,-0.08,0.41
51,-1.04,-1.65,9.73,0.51,0.09,0.45
56,-1.04,-1.65,9.73,0.49,0.05,0.46
61,-1.38,-0.42,9.27,0.49,0.05,0.46
66,-5.63,1.19,8.74,0.49,0.05,0.46
71,-7.47,1.72,8.08,0.49,0.05,0.46
76,-2.07,-0.73,6.97,0.49,0.05,0.46
81,-0.54,-2.30,7.27,0.49,0.05,0.46
86,-1.84,-2.41,8.20,0.49,0.05,0.46
91,-2.14,-2.61,8.27,0.49,0.05,0.46
96,5.94,-2.49,8.70,0.49,0.05,0.46
101,5.94,-2.49,8.70,0.48,-0.65,0.57
106,6.66,-1.88,8.62,0.48,-0.65,0.57
111,4.75,-2.91,8.01,0.48,-0.65,0.57
116,2.91,-2.80,5.86,0.48,-0.65,0.57
122,0.34,-2.76,6.47,0.48,-0.65,0.57
126,-1.46,-2.61,8.96,0.48,-0.65,0.57
131,0.04,-3.48,10.23,0.48,-0.65,0.57
137,1.15,-4.37,11.50,0.48,-0.65,0.57
141,1.57,-4.14,10.96,0.48,-0.65,0.57
146,2.68,-4.75,10.41,0.48,-0.65,0.57
151,2.76,-3.98,10.27,0.48,-0.65,0.57
156,2.45,-3.41,10.11,0.48,-0.65,0.57
161,1.72,-2.30,9.35,0.48,-0.65,0.57
167,-2.07,-0.77,7.97,0.48,-0.65,0.57
171,-2.07,-0.77,7.97,0.69,0.05,0.90
176,-2.07,-0.77,7.97,0.70,0.01,0.90
181,-4.02,-1.61,9.93,0.70,0.01,0.90
186,-4.48,-1.65,10.30,0.70,0.01,0.90
191,-3.56,-1.49,10.45,0.70,0.01,0.90
196,-2.45,-0.77,9.80,0.70,0.01,0.90
200,-2.76,-0.50,9.34,0.70,0.01,0.90
206,-2.76,-0.50,9.34,0.68,-0.20,1.16
212,0.00,6.51,6.47,0.68,-0.20,1.16
217,-1.91,10.15,9.54,0.68,-0.20,1.16
221,-1.91,10.15,9.54,0.54,-0.09,1.26
226,4.56,2.07,7.36,0.54,-0.09,1.26
231,5.29,0.19,8.58,0.54,-0.09,1.26
237,0.84,-3.07,9.65,0.54,-0.09,1.26
241,0.84,-3.07,9.65,0.52,-0.04,1.47
246,-0.30,0.08,7.97,0.52,-0.04,1.47
251,-3.56,0.34,10.07,0.52,-0.04,1.47
256,-3.56,0.34,10.07,0.58,-0.00,1.58
262,-3.60,2.45,11.26,0.58,-0.00,1.58
267,-3.41,1.30,12.34,0.58,-0.00,1.58
271,-3.41,1.30,12.34,0.43,-0.25,1.30
276,-3.41,1.30,12.34,0.38,-0.32,1.32
281,2.07,-4.94,16.21,0.38,-0.32,1.32
287,1.11,-2.80,15.86,0.38,-0.32,1.32
291,1.11,-2.80,15.86,0.54,0.21,1.43
296,1.11,-2.80,15.86,0.57,0.14,1.44
302,-4.71,-2.87,10.80,0.57,0.14,1.44
306,-4.71,-2.87,10.80,0.58,-0.15,1.31
311,-4.71,-2.87,10.80,0.57,-0.22,1.23
316,1.72,-3.79,9.23,0.57,-0.22,1.23
322,4.02,-3.33,9.54,0.57,-0.22,1.23
326,4.02,-3.33,9.54,0.53,0.13,1.17
331,2.49,-1.68,7.43,0.53,0.13,1.17
336,1.46,-1.61,7.16,0.53,0.13,1.17
341,4.14,0.69,9.73,0.53,0.13,1.17
347,4.14,0.69,9.73,0.30,-0.02,1.14
351,0.77,6.55,7.93,0.30,-0.02,1.14
357,6.86,1.53,7.31,0.30,-0.02,1.14
361,6.86,1.53,7.31,0.50,-0.12,0.98
366,4.45,4.18,9.27,0.50,-0.12,0.98
371,10.30,-0.77,10.57,0.50,-0.12,0.98
376,10.96,2.95,12.38,0.50,-0.12,0.98
381,5.25,8.20,10.73,0.50,-0.12,0.98
386,8.04,6.40,10.57,0.50,-0.12,0.98
392,5.71,7.78,9.93,0.50,-0.12,0.98
396,5.71,7.78,9.93,0.28,0.28,1.69
401,1.95,6.09,8.93,0.28,0.28,1.69
407,0.73,6.09,7.39,0.28,0.28,1.69
411,0.73,6.09,7.39,0.20,0.41,1.55
416,0.73,6.09,7.39,0.17,0.37,1.53
422,0.84,2.30,9.16,0.17,0.37,1.53
427,0.88,2.64,9.23,0.17,0.37,1.53
431,0.88,2.64,9.23,0.02,0.04,1.37
436,0.88,2.64,9.23,-0.04,-0.04,1.29
442,-0.11,1.42,10.49,-0.04,-0.04,1.29
446,-0.11,1.42,10.49,-0.08,0.04,1.10
451,1.15,-0.30,11.03,-0.08,0.04,1.10
456,0.27,-0.61,10.45,-0.08,0.04,1.10
462,-0.19,-1.65,9.65,-0.08,0.04,1.10
466,-0.19,-1.65,9.65,-0.13,0.25,0.83
471,0.27,-1.27,10.92,-0.13,0.25,0.83
477,1.95,-0.92,11.88,-0.13,0.25,0.83
481,1.95,-0.92,11.88,-0.19,0.50,0.56
486,-1.23,-0.54,9.30,-0.19,0.50,0.56
491,-1.53,0.96,8.16,-0.19,0.50,0.56
496,-1.53,0.96,8.16,-0.26,0.30,0.30
501,-1.53,0.96,8.16,-0.26,0.39,0.24
506,-3.10,-0.88,8.58,-0.26,0.39,0.24
512,-2.61,-0.08,8.58,-0.26,0.39,0.24
516,-2.61,-0.08,8.58,-0.24,0.29,0.10
521,0.57,-0.57,10.84,-0.24,0.29,0.10
527,0.88,0.04,11.91,-0.24,0.29,0.10
531,0.88,0.04,11.91,-0.20,0.25,0.20
535,0.88,0.04,11.91,-0.19,0.29,0.24
541,3.10,0.61,13.18,-0.19,0.29,0.24
546,3.10,0.61,13.18,-0.17,0.34,0.30
552,3.10,0.61,13.18,-0.14,0.34,0.36
557,3.10,0.61,13.18,-0.07,0.38,0.48
561,3.10,0.61,13.18,-0.08,0.43,0.54
566,3.10,0.61,13.18,-0.07,0.46,0.57
571,3.10,0.61,13.18,-0.07,0.47,0.61
576,1.19,0.77,12.11,-0.07,0.47,0.61
582,1.68,1.07,11.99,-0.07,0.47,0.61
586,1.68,1.07,11.99,-0.06,0.43,0.74
591,-0.73,2.61,7.32,-0.06,0.43,0.74
597,-1.11,3.37,6.32,-0.06,0.43,0.74
601,-1.11,3.37,6.32,-0.11,0.27,0.65
606,-3.33,2.22,4.14,-0.11,0.27,0.65
612,-2.49,1.99,4.29,-0.11,0.27,0.65
616,-2.49,1.99,4.29,-0.16,0.17,0.55
621,-2.49,1.99,4.29,-0.19,0.12,0.53
626,0.15,1.42,8.46,-0.19,0.12,0.53
632,1.49,0.57,7.97,-0.19,0.12,0.53
636,1.49,0.57,7.97,-0.13,0.40,0.49
641,-3.48,2.57,8.28,-0.13,0.40,0.49
647,-3.03,2.68,7.24,-0.13,0.40,0.49
651,-3.03,2.68,7.24,-0.19,0.28,0.39
656,-3.03,2.68,7.24,-0.21,0.30,0.30
661,-3.22,-0.23,10.95,-0.21,0.30,0.30
667,-2.45,-0.88,11.54,-0.21,0.30,0.30
671,-2.45,-0.88,11.54,-0.20,0.24,0.27
676,-2.45,-0.88,11.54,-0.20,0.20,0.30
682,-0.46,-0.27,10.11,-0.20,0.20,0.30
686,-0.46,-0.27,10.11,-0.19,0.24,0.27
691,-0.46,-0.27,10.11,-0.18,0.32,0.26
696,-0.46,-0.27,10.11,-0.16,0.38,0.26
702,-2.87,2.07,7.66,-0.16,0.38,0.26
706,-2.87,2.07,7.66,-0.14,0.41,0.23
711,-3.48,2.72,10.07,-0.14,0.41,0.23
716,-2.34,2.07,10.46,-0.14,0.41,0.23
722,-2.03,1.68,9.92,-0.14,0.41,0.23
726,-2.03,1.68,9.92,-0.18,0.28,0.32
731,0.65,0.80,9.54,-0.18,0.28,0.32
737,-1.11,0.65,8.08,-0.18,0.28,0.32
741,-1.11,0.65,8.08,-0.22,-0.01,0.28
746,2.07,-0.19,7.70,-0.22,-0.01,0.28
751,1.49,0.30,7.73,-0.22,-0.01,0.28
756,1.49,0.30,7.73,-0.14,0.03,0.32
761,1.49,0.30,7.73,-0.14,0.27,0.30
767,-0.84,1.46,9.20,-0.14,0.27,0.30
771,-0.84,1.46,9.20,-0.12,0.35,0.29
776,-0.84,1.46,9.20,-0.12,0.28,0.28
781,0.50,0.61,9.80,-0.12,0.28,0.28
787,-0.77,0.15,9.08,-0.12,0.28,0.28
791,-0.77,0.15,9.08,-0.16,0.10,0.24
796,-0.77,0.15,9.08,-0.18,0.08,0.21
802,0.80,0.30,10.27,-0.18,0.08,0.21
806,0.80,0.30,10.27,-0.19,0.09,0.12
811,0.80,0.30,10.27,-0.19,0.15,0.08
816,0.80,0.30,10.27,-0.18,0.20,0.04
822,0.08,-1.15,9.88,-0.18,0.20,0.04
826,0.08,-1.15,9.88,-0.18,0.18,-0.03
831,0.73,-0.11,9.12,-0.18,0.18,-0.03
836,-1.61,0.30,10.23,-0.18,0.18,-0.03
842,-0.11,0.27,10.23,-0.18,0.18,-0.03
846,-0.11,0.27,10.23,-0.13,0.09,-0.05
851,-3.91,0.61,11.38,-0.13,0.09,-0.05
857,-5.82,2.38,10.39,-0.13,0.09,-0.05
861,-5.82,2.38,10.39,-0.12,0.18,-0.14
866,-5.82,2.38,10.39,-0.12,0.16,-0.16
872,-2.38,0.50,7.89,-0.12,0.16,-0.16
876,-2.38,0.50,7.89,-0.10,-0.04,-0.15
881,-2.38,0.50,7.89,-0.11,-0.17,-0.12
886,3.75,-0.92,8.20,-0.11,-0.17,-0.12
892,4.71,-0.61,8.81,-0.11,-0.17,-0.12
896,4.71,-0.61,8.81,-0.04,-0.18,-0.04
901,4.71,-0.61,8.81,-0.02,0.17,0.00
907,2.30,0.38,9.61,-0.02,0.17,0.00
911,2.30,0.38,9.61,0.01,0.21,0.05
916,2.30,0.38,9.61,0.03,0.17,0.11
923,-2.45,-1.04,7.59,0.03,0.17,0.11
926,-2.45,-1.04,7.59,0.10,0.08,0.18
931,-2.45,-1.04,7.59,0.12,0.06,0.19
936,-2.45,-1.04,7.59,0.13,0.01,0.21
942,0.00,-2.84,9.12,0.13,0.01,0.21
946,0.00,-2.84,9.12,0.17,-0.10,0.31
951,0.00,-2.84,9.12,0.20,-0.14,0.34
956,0.00,-2.84,9.12,0.24,-0.11,0.38
962,1.42,-2.26,10.77,0.24,-0.11,0.38
966,1.42,-2.26,10.77,0.27,0.20,0.42
971,1.42,-2.26,10.77,0.32,0.23,0.42
977,-2.61,-0.92,8.42,0.32,0.23,0.42
981,-2.61,-0.92,8.42,0.34,0.12,0.48
986,-2.61,-0.92,8.42,0.36,0.03,0.52
992,-0.69,-1.30,8.81,0.36,0.03,0.52
996,-0.69,-1.30,8.81,0.36,-0.13,0.57
1002,-0.69,-1.30,8.81,0.37,-0.15,0.60
1007,0.30,-0.57,11.30,0.37,-0.15,0.60
1011,0.30,-0.57,11.30,0.40,0.04,0.62
1016,0.30,-0.57,11.30,0.39,0.17,0.61
1021,0.30,-0.57,11.30,0.41,0.17,0.62
1027,-1.68,-1.91,9.23,0.41,0.17,0.62
1032,-1.68,-1.91,9.23,0.43,0.06,0.65
1036,-1.68,-1.91,9.23,0.44,0.02,0.67
1041,-0.57,-2.18,9.39,0.44,0.02,0.67
1047,0.80,-1.84,10.42,0.44,0.02,0.67
1051,0.80,-1.84,10.42,0.46,-0.08,0.75
1055,0.80,-1.84,10.42,0.48,0.00,0.78
1060,0.73,-0.61,9.20,0.48,0.00,0.78
1066,0.73,-0.61,9.20,0.48,0.11,0.79
1071,0.73,-0.61,9.20,0.48,0.07,0.83
1077,0.54,0.61,10.00,0.48,0.07,0.83
1082,0.54,0.61,10.00,0.44,0.03,0.86
1086,0.54,0.61,10.00,0.42,0.01,0.88
1091,1.57,0.38,11.11,0.42,0.01,0.88
1097,2.45,0.30,11.38,0.42,0.01,0.88
1101,2.45,0.30,11.38,0.45,0.11,0.96
1106,2.45,0.30,11.38,0.44,0.12,0.98
1112,0.77,0.77,10.35,0.44,0.12,0.98
1116,0.77,0.77,10.35,0.43,0.13,0.99
1121,0.77,0.77,10.35,0.42,0.14,1.01
1126,-0.27,1.11,9.50,0.42,0.14,1.01
1132,-0.42,0.34,8.23,0.42,0.14,1.01
1136,-0.42,0.34,8.23,0.40,0.14,1.04
1141,-0.42,0.34,8.23,0.39,0.12,1.04
1147,-1.04,-0.11,8.46,0.39,0.12,1.04
1151,-1.04,-0.11,8.46,0.36,0.04,1.04
1156,-1.04,-0.11,8.46,0.34,0.00,1.02
1163,0.65,-1.11,11.64,0.34,0.00,1.02
1167,1.38,-0.84,13.29,0.34,0.00,1.02
1171,1.38,-0.84,13.29,0.35,0.07,1.01
1176,1.38,-0.84,13.29,0.36,0.14,1.03
1182,1.61,-1.65,12.06,0.36,0.14,1.03
1186,1.61,-1.65,12.06,0.39,0.13,1.06
1191,1.61,-1.65,12.06,0.39,0.12,1.08
1196,1.61,-1.65,12.06,0.41,0.13,1.11
1202,0.65,-0.92,10.19,0.41,0.13,1.11
1206,0.65,-0.92,10.19,0.40,0.18,1.12
1211,0.65,-0.92,10.19,0.40,0.22,1.13
1217,0.65,-0.92,10.19,0.39,0.25,1.13
1221,0.65,-0.92,10.19,0.40,0.23,1.14
1226,0.65,-0.92,10.19,0.39,0.19,1.15
1231,-1.61,-0.50,9.27,0.39,0.19,1.15
1238,-1.49,0.04,8.77,0.39,0.19,1.15
1241,-1.49,0.04,8.77,0.34,0.06,1.15
1246,0.04,0.00,9.54,0.34,0.06,1.15
1252,-0.15,0.23,10.00,0.34,0.06,1.15
1256,-0.15,0.23,10.00,0.31,0.16,1.15
1261,-0.15,0.23,10.00,0.31,0.24,1.18
1267,0.42,-0.23,12.03,0.31,0.24,1.18
1271,0.42,-0.23,12.03,0.31,0.23,1.20
1275,0.42,-0.23,12.03,0.31,0.22,1.23
1281,0.42,-0.23,12.03,0.31,0.22,1.23
1285,1.19,-0.11,13.25,0.31,0.22,1.23
1293,1.19,-0.11,13.25,0.31,0.23,1.24
1298,0.73,0.23,11.30,0.31,0.23,1.24
1302,-0.11,1.34,11.49,0.31,0.23,1.24
1306,-0.11,1.34,11.49,0.29,0.31,1.24
1311,-0.11,1.34,11.49,0.27,0.31,1.22
1316,-0.11,1.34,11.49,0.24,0.33,1.22
1322,0.08,0.80,10.11,0.24,0.33,1.22
1326,0.08,0.80,10.11,0.21,0.38,1.20
1331,0.08,0.80,10.11,0.20,0.39,1.17
1336,0.08,0.80,10.11,0.16,0.39,1.14
1343,-2.49,1.07,10.23,0.16,0.39,1.14
1346,-2.49,1.07,10.23,0.12,0.37,1.05
1351,-1.04,2.34,9.61,0.12,0.37,1.05
1357,-0.61,2.14,10.23,0.12,0.37,1.05
1361,-0.61,2.14,10.23,0.04,0.30,0.99
1366,-0.61,2.14,10.23,0.03,0.30,0.97
1372,0.84,2.14,10.61,0.03,0.30,0.97
1376,0.84,2.14,10.61,-0.01,0.45,0.89
1381,0.84,2.14,10.61,-0.03,0.52,0.86
1386,-1.30,2.68,10.54,-0.03,0.52,0.86
1392,-0.84,1.53,10.42,-0.03,0.52,0.86
1396,-0.84,1.53,10.42,-0.12,0.45,0.75
1401,-0.84,1.53,10.42,-0.12,0.42,0.73
1407,0.38,2.38,11.30,-0.12,0.42,0.73
1411,0.38,2.38,11.30,-0.13,0.41,0.69
1416,0.38,2.38,11.30,-0.14,0.42,0.67
1422,0.34,3.91,9.80,-0.14,0.42,0.67
1427,0.34,3.91,9.80,-0.20,0.46,0.58
1431,0.34,3.91,9.80,-0.21,0.46,0.55
1436,0.34,3.91,9.80,-0.26,0.46,0.52
1442,1.57,2.34,9.69,-0.26,0.46,0.52
1446,1.57,2.34,9.69,-0.27,0.43,0.49
1451,1.57,2.34,9.69,-0.26,0.43,0.50
1456,1.57,2.34,9.69,-0.27,0.43,0.48
1462,0.84,1.91,10.84,-0.27,0.43,0.48
1466,0.84,1.91,10.84,-0.30,0.43,0.41
1471,0.84,1.91,10.84,-0.31,0.43,0.38
1475,-0.19,2.22,9.34,-0.31,0.43,0.38
1481,-0.19,2.22,9.34,-0.32,0.46,0.37
1486,-0.19,2.22,9.34,-0.33,0.45,0.37
1493,-0.19,2.22,9.34,-0.36,0.40,0.34
1496,-0.19,2.22,9.34,-0.35,0.39,0.34
1501,-0.19,2.22,9.34,-0.35,0.40,0.34
1506,-0.19,2.22,9.34,-0.35,0.42,0.33
1512,0.42,0.73,9.34,-0.35,0.42,0.33
1516,0.42,0.73,9.34,-0.32,0.42,0.35
1521,0.42,0.73,9.34,-0.32,0.40,0.35
1527,-0.11,0.88,9.27,-0.32,0.40,0.35
1531,-0.11,0.88,9.27,-0.32,0.36,0.35
1536,-0.11,0.88,9.27,-0.31,0.32,0.36
1541,-0.11,0.88,9.27,-0.29,0.28,0.38
1547,1.80,-1.34,9.61,-0.29,0.28,0.38
1551,1.80,-1.34,9.61,-0.25,0.28,0.42
1556,1.80,-1.34,9.61,-0.23,0.29,0.42
1562,0.42,-0.34,8.36,-0.23,0.29,0.42
1566,0.42,-0.34,8.36,-0.22,0.32,0.42
1571,0.42,-0.34,8.36,-0.21,0.33,0.42
1576,0.42,-0.34,8.36,-0.20,0.33,0.43
1582,-0.15,0.00,7.63,-0.20,0.33,0.43
1586,-0.15,0.00,7.63,-0.17,0.31,0.46
1591,-0.15,0.00,7.63,-0.18,0.30,0.48
1597,-0.30,0.77,9.23,-0.18,0.30,0.48
1601,-0.30,0.77,9.23,-0.19,0.29,0.48
1606,-0.30,0.77,9.23,-0.19,0.28,0.48
1611,1.30,1.38,13.07,-0.19,0.28,0.48
1617,1.49,0.80,12.99,-0.19,0.28,0.48
1621,1.49,0.80,12.99,-0.19,0.33,0.58
1626,1.49,0.80,12.99,-0.19,0.35,0.60
1632,1.34,1.23,9.80,-0.19,0.35,0.60
1636,1.34,1.23,9.80,-0.18,0.35,0.65
1641,1.34,1.23,9.80,-0.19,0.33,0.68
1647,1.95,0.38,8.50,-0.19,0.33,0.68
1651,1.95,0.38,8.50,-0.21,0.28,0.74
1656,1.95,0.38,8.50,-0.21,0.28,0.75
1661,1.95,0.38,8.50,-0.21,0.30,0.76
1666,-0.61,-0.38,9.58,-0.21,0.30,0.76
1671,-0.61,-0.38,9.58,-0.20,0.29,0.79
1676,-0.61,-0.38,9.58,-0.19,0.26,0.81
1682,-0.61,-0.38,9.58,-0.18,0.22,0.82
1686,-0.61,-0.38,9.58,-0.18,0.18,0.80
1692,-0.61,-0.38,9.58,-0.19,0.17,0.80
1696,-0.61,-0.38,9.58,-0.21,0.17,0.79
1702,-0.69,-1.11,8.42,-0.21,0.17,0.79
1706,-0.69,-1.11,8.42,-0.22,0.24,0.78
1711,-0.69,-1.11,8.42,-0.21,0.27,0.76
1717,-0.69,-1.11,8.42,-0.21,0.27,0.77
1721,-0.69,-1.11,8.42,-0.20,0.27,0.79
1726,-0.69,-1.11,8.42,-0.19,0.23,0.78
1731,-0.69,-1.11,8.42,-0.18,0.21,0.77
1737,1.27,-1.38,11.11,-0.18,0.21,0.77
1741,1.27,-1.38,11.11,-0.19,0.21,0.76
1746,1.27,-1.38,11.11,-0.18,0.27,0.75
1751,1.27,-1.38,11.11,-0.19,0.31,0.74
1755,1.27,-1.38,11.11,-0.20,0.36,0.73
1760,-2.61,-0.27,10.80,-0.20,0.36,0.73
1767,-2.61,-0.27,10.80,-0.20,0.38,0.72
1772,-0.96,-0.54,11.07,-0.20,0.38,0.72
1776,-0.96,-0.54,11.07,-0.20,0.29,0.74
1781,-0.96,-0.54,11.07,-0.20,0.25,0.75
1786,-1.30,0.38,8.73,-0.20,0.25,0.75
1791,-1.30,0.38,8.73,-0.21,0.22,0.74
1796,-1.30,0.38,8.73,-0.21,0.27,0.74
1802,-1.30,0.38,8.73,-0.24,0.32,0.74
1806,-1.30,0.38,8.73,-0.27,0.34,0.73
1811,-1.30,0.38,8.73,-0.28,0.34,0.72
1816,-1.30,0.38,8.73,-0.28,0.28,0.72
1822,-1.38,-0.57,9.81,-0.28,0.28,0.72
1826,-1.38,-0.57,9.81,-0.28,0.18,0.74
1831,-1.38,-0.57,9.81,-0.28,0.14,0.76
1837,-1.38,-0.57,9.81,-0.29,0.15,0.75
1841,-1.38,-0.57,9.81,-0.30,0.15,0.74
1846,-1.38,-0.57,9.81,-0.30,0.16,0.74
1851,-1.38,-0.57,9.81,-0.27,0.21,0.76
1857,-1.84,-1.76,11.57,-0.27,0.21,0.76
1861,-1.84,-1.76,11.57,-0.22,0.30,0.81
1866,-1.84,-1.76,11.57,-0.21,0.30,0.81
1872,-1.84,-1.76,11.57,-0.20,0.25,0.79
1876,-1.84,-1.76,11.57,-0.21,0.20,0.79
1881,-1.84,-1.76,11.57,-0.21,0.18,0.79
1886,-1.84,-1.76,11.57,-0.22,0.15,0.79
1892,0.30,-1.19,9.69,-0.22,0.15,0.79
1896,0.30,-1.19,9.69,-0.22,0.22,0.74
1901,0.30,-1.19,9.69,-0.23,0.29,0.71
1906,0.30,-1.19,9.69,-0.23,0.33,0.69
1911,0.30,-1.19,9.69,-0.25,0.34,0.65
1916,0.30,-1.19,9.69,-0.25,0.34,0.61
1921,0.30,-1.19,9.69,-0.26,0.32,0.57
1927,-0.30,-1.95,9.39,-0.26,0.32,0.57
1931,-0.30,-1.95,9.39,-0.27,0.27,0.50
1936,-0.30,-1.95,9.39,-0.29,0.25,0.45
1941,-0.30,-1.95,9.39,-0.28,0.24,0.42
1946,-0.30,-1.95,9.39,-0.29,0.24,0.39
1951,-0.30,-1.95,9.39,-0.30,0.25,0.36
1956,-0.30,-1.95,9.39,-0.33,0.28,0.31
1962,0.54,0.50,11.07,-0.33,0.28,0.31
1966,0.54,0.50,11.07,-0.34,0.34,0.23
1971,0.54,0.50,11.07,-0.34,0.34,0.21
1977,0.54,0.50,11.07,-0.35,0.33,0.19
1981,0.54,0.50,11.07,-0.37,0.30,0.18
1986,0.54,0.50,11.07,-0.38,0.29,0.15
1991,0.54,0.50,11.07,-0.42,0.29,0.12
1996,0.54,0.50,11.07,-0.43,0.32,0.09
2001,0.54,0.50,11.07,-0.45,0.36,0.06
2006,0.54,0.50,11.07,-0.46,0.38,0.06
2012,0.50,3.52,9.96,-0.46,0.38,0.06
2016,0.50,3.52,9.96,-0.49,0.34,0.04
2021,0.50,3.52,9.96,-0.53,0.30,0.03
2026,0.50,3.52,9.96,-0.53,0.25,-0.01
2031,0.50,3.52,9.96,-0.54,0.23,-0.04
2035,0.50,3.52,9.96,-0.55,0.24,-0.06
2041,0.11,3.29,6.40,-0.55,0.24,-0.06
2046,-0.92,3.95,6.74,-0.55,0.24,-0.06
2052,-0.92,3.95,6.74,-0.61,0.26,-0.08
2056,-0.92,3.95,6.74,-0.65,0.26,-0.18
2061,-0.92,3.95,6.74,-0.65,0.22,-0.21
2066,-0.92,3.95,6.74,-0.64,0.18,-0.23
2071,-0.92,3.95,6.74,-0.64,0.17,-0.29
2076,-0.92,3.95,6.74,-0.64,0.17,-0.34
2082,-0.11,1.15,9.77,-0.64,0.17,-0.34
2086,-0.11,1.15,9.77,-0.62,0.22,-0.43
2091,-0.11,1.15,9.77,-0.64,0.24,-0.48
2096,-0.11,1.15,9.77,-0.65,0.25,-0.52
2101,-0.11,1.15,9.77,-0.66,0.26,-0.57
2106,-0.11,1.15,9.77,-0.67,0.23,-0.62
2111,-0.11,1.15,9.77,-0.67,0.21,-0.67
2117,-1.42,1.07,8.04,-0.67,0.21,-0.67
2121,-1.42,1.07,8.04,-0.66,0.22,-0.75
2126,-1.42,1.07,8.04,-0.65,0.21,-0.76
2131,-1.42,1.07,8.04,-0.63,0.19,-0.78
2136,-1.42,1.07,8.04,-0.62,0.17,-0.81
2141,-1.42,1.07,8.04,-0.62,0.14,-0.82
2146,-1.42,1.07,8.04,-0.61,0.11,-0.81
2151,-1.42,1.07,8.04,-0.58,0.10,-0.82
2156,-1.42,1.07,8.04,-0.56,0.12,-0.81
2161,-1.42,1.07,8.04,-0.55,0.16,-0.78
2167,-1.42,1.07,8.04,-0.55,0.18,-0.77
2171,-1.42,1.07,8.04,-0.55,0.20,-0.77
2176,-1.42,1.07,8.04,-0.55,0.21,-0.78
2181,-1.42,1.07,8.04,-0.54,0.20,-0.77
2186,-1.42,1.07,8.04,-0.54,0.19,-0.75
2191,-1.42,1.07,8.04,-0.53,0.16,-0.72
2196,-1.42,1.07,8.04,-0.50,0.13,-0.68
2202,-1.42,1.07,8.04,-0.48,0.11,-0.64
2206,-1.42,1.07,8.04,-0.47,0.07,-0.62
2211,-1.42,1.07,8.04,-0.46,0.04,-0.59
2216,-1.42,1.07,8.04,-0.44,0.04,-0.56
2221,-1.42,1.07,8.04,-0.43,0.02,-0.51
2226,-1.42,1.07,8.04,-0.43,0.01,-0.46
2231,-1.42,1.07,8.04,-0.41,0.03,-0.43
2237,1.91,0.77,9.73,-0.41,0.03,-0.43
2241,1.91,0.77,9.73,-0.37,0.04,-0.36
2246,1.91,0.77,9.73,-0.35,0.09,-0.32
2251,1.91,0.77,9.73,-0.33,0.14,-0.27
2257,-2.61,0.46,7.89,-0.33,0.14,-0.27
2261,-2.61,0.46,7.89,-0.30,0.15,-0.20
2266,-2.61,0.46,7.89,-0.31,0.09,-0.20
2271,-0.19,-0.61,8.93,-0.31,0.09,-0.20
2275,-0.19,-0.61,8.93,-0.29,-0.13,-0.16
2280,0.34,-1.11,9.16,-0.29,-0.13,-0.16
2286,0.34,-1.11,9.16,-0.30,-0.22,-0.12
2292,-1.42,-1.04,8.12,-0.30,-0.22,-0.12
2296,-1.42,-1.04,8.12,-0.26,-0.10,-0.11
2301,-1.42,-1.04,8.12,-0.24,-0.02,-0.11
2307,-2.11,-2.26,8.89,-0.24,-0.02,-0.11
2311,-2.11,-2.26,8.89,-0.21,0.05,-0.09
2316,-2.11,-2.26,8.89,-0.19,0.03,-0.10
2321,-2.11,-2.26,8.89,-0.17,-0.02,-0.10
2327,-1.38,-0.46,13.17,-0.17,-0.02,-0.10
2331,-1.38,-0.46,13.17,-0.16,0.01,-0.09
2336,-1.38,-0.46,13.17,-0.15,0.07,-0.11
2342,-2.38,1.11,9.85,-0.15,0.07,-0.11
2346,-2.38,1.11,9.85,-0.19,0.16,-0.18
2351,-2.38,1.11,9.85,-0.20,0.17,-0.20
2356,-2.38,1.11,9.85,-0.21,0.14,-0.20
2361,-2.38,1.11,9.85,-0.22,0.09,-0.17
2366,-2.38,1.11,9.85,-0.25,0.02,-0.17
2371,-2.38,1.11,9.85,-0.25,-0.05,-0.18
2377,-1.15,1.38,10.46,-0.25,-0.05,-0.18
2381,-1.15,1.38,10.46,-0.26,-0.06,-0.20
2386,-1.15,1.38,10.46,-0.26,-0.02,-0.21
2392,-1.15,1.38,10.46,-0.24,0.02,-0.22
2396,-1.15,1.38,10.46,-0.24,0.04,-0.22
2401,-1.15,1.38,10.46,-0.23,0.05,-0.21
2406,-1.15,1.38,10.46,-0.23,0.01,-0.21
2412,1.49,1.91,9.08,-0.23,0.01,-0.21
2416,1.49,1.91,9.08,-0.25,-0.04,-0.28
2421,1.49,1.91,9.08,-0.27,-0.02,-0.31
2427,1.49,1.91,9.08,-0.29,0.03,-0.35
2431,1.49,1.91,9.08,-0.29,0.06,-0.39
2436,1.49,1.91,9.08,-0.29,0.07,-0.45
2441,1.49,1.91,9.08,-0.28,0.06,-0.50
2447,2.03,0.54,9.81,-0.28,0.06,-0.50
2451,2.03,0.54,9.81,-0.28,-0.04,-0.56
2456,2.03,0.54,9.81,-0.29,-0.06,-0.61
2462,1.95,-0.54,10.65,-0.29,-0.06,-0.61
2466,1.95,-0.54,10.65,-0.26,0.02,-0.67
2471,1.95,-0.54,10.65,-0.23,0.07,-0.64
2476,1.95,-0.54,10.65,-0.22,0.11,-0.63
2482,-0.46,0.65,9.61,-0.22,0.11,-0.63
2486,-0.46,0.65,9.61,-0.23,0.15,-0.74
2491,-0.46,0.65,9.61,-0.20,0.15,-0.71
2497,-1.53,-1.15,8.08,-0.20,0.15,-0.71
2501,-1.53,-1.15,8.08,-0.18,0.14,-0.49
2506,-1.53,-1.15,8.08,-0.17,0.08,-0.45
2511,-1.53,-1.15,8.08,-0.14,0.02,-0.41
2517,-0.57,-0.96,7.85,-0.14,0.02,-0.41
2521,-0.57,-0.96,7.85,-0.08,-0.11,-0.26
2526,-0.57,-0.96,7.85,-0.06,-0.14,-0.15
2532,2.68,-2.07,12.83,-0.06,-0.14,-0.15
2536,2.68,-2.07,12.83,0.02,-0.11,0.01
2541,2.68,-2.07,12.83,0.10,-0.03,0.09
2546,2.68,-2.07,12.83,0.19,0.08,0.17
2552,-2.53,-0.77,8.16,0.19,0.08,0.17
2556,-2.53,-0.77,8.16,0.23,0.22,0.23
2561,-2.53,-0.77,8.16,0.20,0.12,0.18
2567,0.96,-3.07,7.39,0.20,0.12,0.18
2571,0.96,-3.07,7.39,0.09,-0.20,0.17
2576,0.96,-3.07,7.39,0.07,-0.28,0.18
2581,0.96,-3.07,7.39,0.04,-0.28,0.12
2587,0.50,-1.76,10.27,0.04,-0.28,0.12
2591,0.50,-1.76,10.27,0.07,-0.11,0.10
2596,0.50,-1.76,10.27,0.11,0.04,0.17
2602,-1.46,2.14,9.61,0.11,0.04,0.17
2606,-1.46,2.14,9.61,0.09,0.16,0.14
2611,-1.46,2.14,9.61,0.08,0.15,0.12
2617,-1.46,2.14,9.61,0.08,0.08,0.18
2621,-1.46,2.14,9.61,0.13,0.01,0.30
2627,-1.46,2.14,9.61,0.14,-0.05,0.36
2631,-1.46,2.14,9.61,0.14,-0.10,0.35
2637,-0.69,-2.34,11.22,0.14,-0.10,0.35
2641,-0.69,-2.34,11.22,0.14,-0.06,0.36
2646,-0.69,-2.34,11.22,0.16,-0.05,0.39
2652,-0.69,-2.34,11.22,0.17,-0.02,0.39
2656,-0.69,-2.34,11.22,0.18,-0.01,0.41
2661,-0.69,-2.34,11.22,0.18,-0.01,0.44
2666,-0.69,-2.34,11.22,0.19,-0.03,0.46
2672,-2.34,-2.38,8.01,0.19,-0.03,0.46
2676,-2.34,-2.38,8.01,0.18,-0.05,0.46
2681,-2.34,-2.38,8.01,0.18,-0.07,0.48
2687,-0.88,-2.57,9.42,0.18,-0.07,0.48
2691,-0.88,-2.57,9.42,0.18,-0.13,0.53
2696,-0.88,-2.57,9.42,0.18,-0.14,0.54
2701,-0.88,-2.57,9.42,0.20,-0.12,0.54
2707,-2.07,-1.68,9.50,0.20,-0.12,0.54
2711,-2.07,-1.68,9.50,0.21,-0.03,0.54
2716,-2.07,-1.68,9.50,0.19,-0.01,0.54
2722,-3.41,-1.19,8.77,0.19,-0.01,0.54
2726,-3.41,-1.19,8.77,0.17,-0.02,0.51
2731,-3.41,-1.19,8.77,0.18,-0.10,0.50
2736,-3.41,-1.19,8.77,0.18,-0.17,0.49
2742,0.23,-2.22,9.93,0.18,-0.17,0.49
2746,0.23,-2.22,9.93,0.16,-0.15,0.49
2751,0.23,-2.22,9.93,0.16,-0.09,0.48
2757,-0.57,-1.34,10.31,0.16,-0.09,0.48
2761,-0.57,-1.34,10.31,0.15,0.02,0.45
2766,-0.57,-1.34,10.31,0.14,0.04,0.41
2771,-0.57,-1.34,10.31,0.14,0.04,0.39
2777,-2.95,-1.68,9.54,0.14,0.04,0.39
2781,-2.95,-1.68,9.54,0.16,0.00,0.41
2786,-2.95,-1.68,9.54,0.14,-0.04,0.42
2791,-1.15,-0.77,10.45,0.14,-0.04,0.42
2795,-1.15,-0.77,10.45,0.12,-0.10,0.37
2801,-1.49,-1.53,11.38,0.12,-0.10,0.37
2806,-1.49,-1.53,11.38,0.12,-0.02,0.34
2812,-1.00,0.30,11.46,0.12,-0.02,0.34
2816,-1.00,0.30,11.46,0.13,0.09,0.40
2821,-1.00,0.30,11.46,0.12,0.09,0.40
2827,-0.34,-1.15,9.04,0.12,0.09,0.40
2831,-0.34,-1.15,9.04,0.12,0.02,0.37
2836,-0.34,-1.15,9.04,0.14,-0.00,0.39
2842,-0.34,-1.15,9.04,0.15,0.01,0.43
2846,-0.34,-1.15,9.04,0.15,0.02,0.46
2851,-0.34,-1.15,9.04,0.16,0.00,0.47
2856,-0.34,-1.15,9.04,0.13,-0.02,0.44
2862,-1.65,-1.15,8.46,0.13,-0.02,0.44
2866,-1.65,-1.15,8.46,0.10,-0.09,0.44
2871,-1.65,-1.15,8.46,0.10,-0.15,0.45
2877,-1.65,-1.15,8.46,0.09,-0.19,0.42
2881,-1.65,-1.15,8.46,0.08,-0.20,0.38
2886,-1.65,-1.15,8.46,0.07,-0.19,0.34
2892,-1.65,-1.15,8.46,0.06,-0.16,0.29
2897,1.95,-0.08,10.46,0.06,-0.16,0.29
2901,1.95,-0.08,10.46,0.02,0.07,0.21
2906,1.95,-0.08,10.46,0.01,0.12,0.16
2912,-0.23,0.00,10.07,0.01,0.12,0.16
2916,-0.23,0.00,10.07,0.01,0.13,0.11
2921,-0.23,0.00,10.07,-0.02,0.11,0.09
2926,-0.23,0.00,10.07,-0.04,0.05,0.06
2932,0.77,0.54,10.61,-0.04,0.05,0.06
2936,0.77,0.54,10.61,-0.06,-0.02,-0.01
2941,0.77,0.54,10.61,-0.07,-0.01,-0.02
2947,-0.46,1.30,8.27,-0.07,-0.01,-0.02
2951,-0.46,1.30,8.27,-0.10,0.06,-0.08
2956,-0.46,1.30,8.27,-0.12,0.08,-0.11
2961,-0.46,1.30,8.27,-0.13,0.08,-0.14
2966,0.57,1.68,11.07,-0.13,0.08,-0.14
2971,0.57,1.68,11.07,-0.14,0.04,-0.17
2976,0.57,1.68,11.07,-0.13,0.00,-0.19
2982,1.34,1.84,11.68,-0.13,0.00,-0.19
2986,1.34,1.84,11.68,-0.14,0.06,-0.25
2991,1.34,1.84,11.68,-0.14,0.12,-0.28
2996,1.34,1.84,11.68,-0.16,0.14,-0.29
3002,0.69,2.30,7.59,-0.16,0.14,-0.29
3006,0.69,2.30,7.59,-0.22,0.11,-0.34
3011,0.69,2.30,7.59,-0.24,0.08,-0.38
3017,0.00,1.61,8.43,-0.24,0.08,-0.38
3021,0.00,1.61,8.43,-0.26,0.10,-0.43
3026,0.00,1.61,8.43,-0.26,0.09,-0.44
3031,0.00,1.61,8.43,-0.26,0.07,-0.46
3037,-1.61,1.30,8.58,-0.26,0.07,-0.46
3041,-1.61,1.30,8.58,-0.24,0.05,-0.46
3046,-1.61,1.30,8.58,-0.23,0.03,-0.45
3052,-0.15,0.96,8.58,-0.23,0.03,-0.45
3056,-0.15,0.96,8.58,-0.21,-0.01,-0.44
3061,-0.15,0.96,8.58,-0.20,-0.04,-0.44
3067,-0.15,0.96,8.58,-0.19,-0.05,-0.43
3071,-0.15,0.96,8.58,-0.19,-0.05,-0.41
3076,-0.15,0.96,8.58,-0.15,-0.03,-0.39
3081,-0.15,0.96,8.58,-0.14,0.02,-0.38
3086,0.50,-0.54,9.58,-0.14,0.02,-0.38
3091,0.50,-0.54,9.58,-0.14,0.06,-0.38
3096,0.50,-0.54,9.58,-0.11,0.06,-0.38
3102,-0.15,-2.03,8.93,-0.11,0.06,-0.38
3106,-0.15,-2.03,8.93,-0.07,0.06,-0.31
3111,-0.15,-2.03,8.93,-0.04,0.05,-0.26
3116,-0.15,-2.03,8.93,-0.03,0.06,-0.25
3122,0.00,-1.68,9.43,-0.03,0.06,-0.25
3126,0.00,-1.68,9.43,-0.01,0.01,-0.18
3131,0.00,-1.68,9.43,-0.00,-0.04,-0.15
3137,0.00,-1.68,9.43,0.01,-0.06,-0.14
3141,0.00,-1.68,9.43,0.03,-0.05,-0.10
3146,0.00,-1.68,9.43,0.07,-0.00,-0.06
3151,0.00,-1.68,9.43,0.09,0.07,-0.02
3157,-2.64,-0.54,8.16,0.09,0.07,-0.02
3161,-2.64,-0.54,8.16,0.09,0.11,0.03
3166,-2.64,-0.54,8.16,0.10,0.05,0.05
3172,-1.49,-2.26,9.00,0.10,0.05,0.05
3176,-1.49,-2.26,9.00,0.11,-0.12,0.07
3181,-1.49,-2.26,9.00,0.11,-0.18,0.11
3186,-1.49,-2.26,9.00,0.13,-0.20,0.13
3192,-0.27,-1.23,8.35,0.13,-0.20,0.13
3196,-0.27,-1.23,8.35,0.15,-0.06,0.16
3201,-0.27,-1.23,8.35,0.16,0.02,0.17
3207,-1.19,-1.84,9.39,0.16,0.02,0.17
3211,-1.19,-1.84,9.39,0.17,0.06,0.18
3216,-1.19,-1.84,9.39,0.19,0.05,0.19
3221,-1.19,-1.84,9.39,0.20,0.05,0.21
3226,-0.08,-0.46,11.26,0.20,0.05,0.21
3231,-0.08,-0.46,11.26,0.19,-0.03,0.22
3236,-0.08,-0.46,11.26,0.16,-0.04,0.20
3242,-2.26,0.11,8.89,0.16,-0.04,0.20
3246,-2.26,0.11,8.89,0.15,0.02,0.23
3251,-2.26,0.11,8.89,0.15,0.05,0.25
3257,-2.26,0.11,8.89,0.13,0.06,0.27
3261,-2.26,0.11,8.89,0.10,0.03,0.25
3266,-2.26,0.11,8.89,0.07,-0.00,0.21
3271,-2.26,0.11,8.89,0.06,-0.03,0.18
3277,-2.26,0.11,8.89,0.06,-0.02,0.19
3281,-2.26,0.11,8.89,0.07,0.01,0.21
3286,-2.26,0.11,8.89,0.08,0.04,0.23
3291,-2.76,0.15,9.12,0.08,0.04,0.23
3297,-1.72,-0.11,8.92,0.08,0.04,0.23
3301,-1.72,-0.11,8.92,0.07,0.00,0.25
3306,-1.72,-0.11,8.92,0.06,-0.04,0.26
3312,-1.88,0.77,9.31,0.06,-0.04,0.26
3316,-1.88,0.77,9.31,0.06,-0.04,0.27
3321,-1.88,0.77,9.31,0.05,-0.03,0.26
3327,0.04,-0.08,9.61,0.05,-0.03,0.26
3331,0.04,-0.08,9.61,0.04,-0.05,0.25
3336,0.04,-0.08,9.61,0.04,-0.07,0.25
3341,0.04,-0.08,9.61,0.02,-0.08,0.25
3346,0.11,-1.49,10.96,0.02,-0.08,0.25
3351,0.11,-1.49,10.96,0.04,-0.03,0.23
3356,0.11,-1.49,10.96,0.05,-0.00,0.23
3362,0.30,-1.23,10.31,0.05,-0.00,0.23
3366,0.30,-1.23,10.31,0.05,0.01,0.27
3371,0.30,-1.23,10.31,0.06,0.02,0.25
3376,0.30,-1.23,10.31,0.05,0.03,0.23
3382,-1.00,-0.54,8.31,0.05,0.03,0.23
3386,-1.00,-0.54,8.31,0.05,0.09,0.21
3391,-1.00,-0.54,8.31,0.06,0.09,0.22
3397,-1.00,-0.54,8.31,0.04,0.07,0.22
3401,-1.00,-0.54,8.31,0.02,0.02,0.21
3406,-1.00,-0.54,8.31,-0.01,-0.08,0.21
3411,-1.00,-0.54,8.31,-0.02,-0.17,0.21
3417,5.48,-2.14,16.89,-0.02,-0.17,0.21
3421,5.48,-2.14,16.89,0.02,-0.23,0.26
3426,5.48,-2.14,16.89,0.08,-0.17,0.31
3432,3.91,-0.50,15.74,0.08,-0.17,0.31
3436,3.91,-0.50,15.74,0.17,0.08,0.39
3441,3.91,-0.50,15.74,0.17,0.23,0.35
3446,3.91,-0.50,15.74,0.14,0.36,0.30
3451,3.91,-0.50,15.74,0.09,0.41,0.28
3456,3.91,-0.50,15.74,0.03,0.39,0.29
3461,3.91,-0.50,15.74,0.01,0.28,0.30
3466,-0.46,-0.57,4.90,0.01,0.28,0.30
3471,-0.46,-0.57,4.90,-0.01,-0.02,0.27
3476,-0.46,-0.57,4.90,-0.02,-0.14,0.25
3482,-0.11,0.30,8.16,-0.02,-0.14,0.25
3486,-0.11,0.30,8.16,-0.04,-0.20,0.23
3491,-0.11,0.30,8.16,-0.04,-0.21,0.22
3497,-0.11,0.30,8.16,-0.03,-0.19,0.25
3501,-0.11,0.30,8.16,-0.00,-0.13,0.31
3506,-0.11,0.30,8.16,0.03,-0.06,0.36
3511,-0.11,0.30,8.16,0.05,-0.01,0.38
3517,-0.11,0.30,8.16,0.05,0.05,0.38
3521,-0.11,0.30,8.16,0.06,0.09,0.38
3526,-0.11,0.30,8.16,0.05,0.13,0.37
3531,-0.11,0.30,8.16,0.05,0.16,0.36
3537,-0.11,0.30,8.16,0.04,0.18,0.36
3541,-0.11,0.30,8.16,0.04,0.17,0.36
3546,-0.11,0.30,8.16,0.02,0.13,0.35
3551,-1.49,-0.19,10.15,0.02,0.13,0.35
3556,-0.34,-0.77,10.54,0.02,0.13,0.35
3561,-0.34,-0.77,10.54,-0.02,-0.02,0.34
3566,-0.34,-0.77,10.54,-0.04,-0.05,0.34
3571,-0.34,-0.77,10.54,-0.06,-0.02,0.31
3576,-0.34,-0.77,10.54,-0.05,0.02,0.27
3581,-0.34,-0.77,10.54,-0.05,0.11,0.24
3586,-3.07,1.38,7.89,-0.05,0.11,0.24
3591,-3.07,1.38,7.89,-0.04,0.22,0.22
3596,-3.07,1.38,7.89,-0.05,0.21,0.22
3601,-3.07,1.38,7.89,-0.08,0.12,0.21
3606,-3.07,1.38,7.89,-0.11,0.01,0.20
3611,-3.07,1.38,7.89,-0.13,-0.10,0.21
3616,-3.07,1.38,7.89,-0.14,-0.17,0.21
3622,2.95,-0.46,9.65,-0.14,-0.17,0.21
3626,0.88,-0.15,10.27,-0.14,-0.17,0.21
3631,0.88,-0.15,10.27,-0.12,-0.03,0.23
3636,0.88,-0.15,10.27,-0.09,0.15,0.24
3641,0.88,-0.15,10.27,-0.05,0.37,0.21
3646,0.88,-0.15,10.27,-0.01,0.56,0.18
3651,0.88,-0.15,10.27,-0.02,0.64,0.16
3656,0.88,-0.15,10.27,-0.05,0.53,0.15
3661,0.88,-0.15,10.27,-0.13,0.25,0.17
3666,0.88,-0.15,10.27,-0.19,-0.13,0.20
3671,0.88,-0.15,10.27,-0.22,-0.49,0.20
3676,5.71,-1.34,6.71,-0.22,-0.49,0.20
3681,5.71,-1.34,6.71,-0.24,-0.68,0.15
3686,5.71,-1.34,6.71,-0.18,-0.48,0.18
3691,-2.22,0.00,13.60,-0.18,-0.48,0.18
3696,-2.22,0.00,13.60,-0.08,0.26,0.25
3701,-2.22,0.00,13.60,-0.05,0.46,0.23
3706,-2.22,0.00,13.60,-0.04,0.48,0.21
3711,-2.22,0.00,13.60,-0.05,0.40,0.19
3716,-2.22,0.00,13.60,-0.08,0.27,0.18
3721,-2.22,0.00,13.60,-0.10,0.09,0.18
3726,-2.22,0.00,13.60,-0.13,-0.06,0.13
3731,-2.22,0.00,13.60,-0.16,-0.16,0.06
3736,-2.22,0.00,13.60,-0.18,-0.19,0.02
3741,-2.18,-1.49,10.07,-0.18,-0.19,0.02
3746,-2.18,-1.49,10.07,-0.17,-0.10,0.00
3751,-2.18,-1.49,10.07,-0.14,-0.03,0.02
3756,-2.18,-1.49,10.07,-0.12,0.03,0.02
3761,-2.18,-1.49,10.07,-0.11,0.08,0.02
3766,-2.18,-1.49,10.07,-0.11,0.09,0.03
3771,-2.18,-1.49,10.07,-0.10,0.06,0.02
3776,-2.18,-1.49,10.07,-0.12,-0.00,-0.00
3781,-2.18,-1.49,10.07,-0.13,-0.05,-0.04
3786,-2.18,-1.49,10.07,-0.14,-0.06,-0.07
3791,-2.18,-1.49,10.07,-0.13,-0.03,-0.07
3796,-0.77,-0.38,9.81,-0.13,-0.03,-0.07
3801,-0.77,-0.38,9.81,-0.12,0.10,-0.11
3806,-0.77,-0.38,9.81,-0.12,0.11,-0.14
3811,0.27,-0.23,9.16,-0.12,0.11,-0.14
3816,0.27,-0.23,9.16,-0.14,0.02,-0.17
3821,0.27,-0.23,9.16,-0.16,-0.03,-0.20
3826,0.27,-0.23,9.16,-0.17,-0.08,-0.22
3831,0.27,-0.23,9.16,-0.18,-0.08,-0.24
3836,2.61,0.34,15.52,-0.18,-0.08,-0.24
3841,2.61,0.34,15.52,-0.12,0.01,-0.26
3846,1.23,-0.69,15.32,-0.12,0.01,-0.26
3851,1.23,-0.69,15.32,-0.06,0.20,-0.25
3856,1.23,-0.69,15.32,-0.04,0.29,-0.26
3861,1.23,-0.69,15.32,-0.06,0.33,-0.27
3866,1.23,-0.69,15.32,-0.09,0.29,-0.29
3871,2.07,2.14,6.85,-0.09,0.29,-0.29
3876,2.07,2.14,6.85,-0.17,0.08,-0.33
3881,1.53,0.73,7.89,-0.17,0.08,-0.33
3886,1.53,0.73,7.89,-0.21,-0.01,-0.36
3891,1.53,0.73,7.89,-0.21,0.03,-0.37
3896,1.53,0.73,7.89,-0.20,0.09,-0.38
3901,1.53,0.73,7.89,-0.18,0.17,-0.39
3906,1.53,0.73,7.89,-0.17,0.24,-0.41
3911,1.53,0.73,7.89,-0.17,0.25,-0.41
3917,1.53,0.73,7.89,-0.18,0.19,-0.41
3921,1.53,0.73,7.89,-0.20,0.10,-0.40
3926,0.42,2.68,4.79,-0.20,0.10,-0.40
3931,0.42,2.68,4.79,-0.21,-0.13,-0.40
3936,1.27,1.76,5.44,-0.21,-0.13,-0.40
3941,1.27,1.76,5.44,-0.23,-0.21,-0.37
3946,1.27,1.76,5.44,-0.21,-0.18,-0.38
3951,1.27,1.76,5.44,-0.20,-0.12,-0.40
3955,1.42,-1.46,13.14,-0.20,-0.12,-0.40
3961,1.42,-1.46,13.14,-0.14,0.01,-0.36
3967,0.84,-2.26,13.21,-0.14,0.01,-0.36
3972,0.84,-2.26,13.21,-0.08,0.05,-0.36
3976,3.03,-1.91,15.44,-0.08,0.05,-0.36
3981,3.56,-1.23,13.98,-0.08,0.05,-0.36
3986,3.56,-1.23,13.98,-0.05,0.07,-0.32
3991,3.56,-1.23,13.98,-0.03,0.11,-0.30
3996,3.56,-1.23,13.98,-0.02,0.14,-0.28
4002,3.56,-1.23,13.98,-0.01,0.18,-0.27
4006,-0.65,-0.65,8.70,-0.01,0.18,-0.27
4011,-1.76,0.54,7.82,-0.01,0.18,-0.27
4017,-1.76,0.54,7.82,0.05,0.40,-0.17
4022,-1.76,0.54,7.82,0.06,0.46,-0.13
4026,-4.21,2.34,2.53,0.06,0.46,-0.13
4030,-4.21,1.57,1.65,0.06,0.46,-0.13
4037,-4.21,1.57,1.65,0.01,0.19,-0.05
4042,-4.21,1.57,1.65,0.01,0.01,-0.02
4046,-3.87,0.00,2.30,0.01,0.01,-0.02
4050,-3.71,-0.08,4.03,0.01,0.01,-0.02
4057,-3.71,-0.08,4.03,0.01,-0.42,0.23
4061,-3.71,-0.08,4.03,0.01,-0.51,0.22
4066,0.27,-2.68,9.39,0.01,-0.51,0.22
4071,0.27,-2.68,9.39,0.05,-0.61,0.22
4076,0.27,-2.68,9.39,0.08,-0.61,0.28
4081,0.27,-2.68,9.39,0.15,-0.48,0.31
4086,3.87,-2.99,14.06,0.15,-0.48,0.31
4091,2.14,-3.07,12.76,0.15,-0.48,0.31
4096,0.46,-2.11,11.99,0.15,-0.48,0.31
4101,0.46,-2.11,11.99,0.17,-0.06,0.21
4106,0.46,-2.11,11.99,0.14,-0.03,0.17
4111,0.38,-1.80,13.71,0.14,-0.03,0.17
4116,0.00,-1.53,14.06,0.14,-0.03,0.17
4121,0.00,-1.53,14.06,0.09,0.00,0.13
4126,0.00,-1.53,14.06,0.09,-0.01,0.13
4131,-1.65,0.19,8.92,0.09,-0.01,0.13
4136,-3.45,0.46,6.79,0.09,-0.01,0.13
4141,-3.45,0.46,6.79,0.07,0.17,0.06
4146,-3.45,0.46,6.79,0.05,0.22,0.06
4151,-3.45,0.46,6.79,0.02,0.22,0.07
4157,-3.45,0.46,6.79,0.03,0.13,0.12
4161,-3.45,0.46,6.79,0.02,-0.03,0.18
4166,3.52,-0.96,14.02,0.02,-0.03,0.18
4171,0.92,-1.00,12.95,0.02,-0.03,0.18
4176,-2.38,-0.61,12.64,0.02,-0.03,0.18
4181,-2.38,-0.61,12.64,0.09,-0.18,0.17
4186,-2.38,-0.61,12.64,0.12,-0.02,0.17
4191,-2.38,-0.61,12.64,0.12,0.11,0.18
4197,-2.38,-0.61,12.64,0.08,0.19,0.16
4201,-3.52,2.26,9.08,0.08,0.19,0.16
4206,-3.71,2.18,9.08,0.08,0.19,0.16
4211,-3.71,2.18,9.08,-0.04,0.05,0.05
4216,-3.71,2.18,9.08,-0.07,-0.02,0.02
4221,-3.71,2.18,9.08,-0.08,-0.09,-0.01
4226,-3.71,2.18,9.08,-0.10,-0.14,-0.01
4231,2.49,-1.80,10.11,-0.10,-0.14,-0.01
4235,3.48,-1.72,10.69,-0.10,-0.14,-0.01
4241,3.48,-1.72,10.69,-0.07,-0.30,0.08
4246,3.48,-1.72,10.69,-0.03,-0.32,0.10
4251,2.41,-0.57,7.09,-0.03,-0.32,0.10
4256,2.84,-0.38,7.59,-0.03,-0.32,0.10
4261,2.84,-0.38,7.59,0.02,-0.07,0.17
4266,1.04,-0.15,8.74,0.02,-0.07,0.17
4270,1.42,0.19,10.34,0.02,-0.07,0.17
4276,1.42,0.19,10.34,-0.04,0.09,0.12
4281,1.42,0.19,10.34,-0.03,0.04,0.11
4286,0.80,-1.68,12.49,-0.03,0.04,0.11
4291,0.77,-1.15,12.06,-0.03,0.04,0.11
4297,0.77,-1.15,12.06,0.04,0.07,0.08
4301,0.92,-1.57,10.69,0.04,0.07,0.08
4305,1.15,-1.30,9.50,0.04,0.07,0.08
4311,1.15,-1.30,9.50,0.01,0.16,0.05
4316,-1.88,-2.07,8.66,0.01,0.16,0.05
4321,-1.88,-2.07,8.66,-0.01,0.24,0.03
4326,-2.03,-2.49,9.73,-0.01,0.24,0.03
4331,-5.94,-0.61,7.97,-0.01,0.24,0.03
4336,-4.71,0.30,8.23,-0.01,0.24,0.03
4341,-4.71,0.30,8.23,0.06,0.23,0.02
4347,-4.71,0.30,8.23,0.06,0.19,0.06
4351,5.48,-0.88,10.61,0.06,0.19,0.06
4356,5.94,0.04,9.69,0.06,0.19,0.06
4362,5.94,0.04,9.69,-0.00,-0.34,0.11
4366,5.94,0.04,9.69,-0.00,-0.43,0.11
4371,3.79,0.42,10.19,-0.00,-0.43,0.11
4375,-3.83,1.23,7.66,-0.00,-0.43,0.11
4381,-3.83,1.23,7.66,0.11,0.64,0.12
4386,-3.83,1.23,7.66,0.12,0.71,0.07
4391,-7.74,1.07,10.07,0.12,0.71,0.07
4396,-0.73,0.50,8.16,0.12,0.71,0.07
4401,3.10,-0.15,8.39,0.12,0.71,0.07
4406,6.44,-1.15,9.23,0.12,0.71,0.07
4411,6.44,-1.15,9.23,-0.16,-0.52,0.02
4417,6.44,-1.15,9.23,-0.18,-0.70,-0.04
4421,3.37,-1.80,7.82,-0.18,-0.70,-0.04
4426,3.37,-1.80,7.82,0.01,-0.21,0.05
4431,2.07,0.57,7.85,0.01,-0.21,0.05
4436,0.23,0.04,9.27,0.01,-0.21,0.05
4441,0.23,0.04,9.27,0.04,0.30,0.05
4446,0.23,0.04,9.27,0.05,0.28,0.06
4451,0.23,0.04,9.27,0.03,0.17,0.06
4456,-0.23,0.84,9.69,0.03,0.17,0.06
4461,1.11,0.77,9.50,0.03,0.17,0.06
4466,1.15,0.50,9.58,0.03,0.17,0.06
4471,1.15,0.50,9.58,-0.09,-0.29,-0.03
4476,2.49,-0.96,10.34,-0.09,-0.29,-0.03
4481,2.80,-1.19,11.11,-0.09,-0.29,-0.03
4486,2.80,-1.19,11.11,-0.13,-0.24,-0.13
4491,-0.61,-2.68,10.88,-0.13,-0.24,-0.13
4496,0.11,-2.61,10.69,-0.13,-0.24,-0.13
4501,0.77,-1.27,11.15,-0.13,-0.24,-0.13
4506,-4.79,1.57,7.66,-0.13,-0.24,-0.13
4510,-3.79,-0.19,11.19,-0.13,-0.24,-0.13
4517,-3.79,-0.19,11.19,-0.06,0.22,-0.08
4521,-3.79,-0.19,11.19,-0.03,0.14,-0.05
4526,3.26,-2.87,17.24,-0.03,0.14,-0.05
4531,5.86,-3.79,18.77,-0.03,0.14,-0.05
4536,1.46,0.50,14.90,-0.03,0.14,-0.05
4541,6.13,-1.30,17.47,-0.03,0.14,-0.05
4546,5.13,-1.76,14.21,-0.03,0.14,-0.05
4551,-3.26,1.76,8.77,-0.03,0.14,-0.05
4556,-5.09,2.57,5.79,-0.03,0.14,-0.05
4561,-10.35,1.88,-0.15,-0.03,0.14,-0.05
4566,-10.00,1.76,-0.34,-0.03,0.14,-0.05
4571,-7.89,2.26,-1.42,-0.03,0.14,-0.05
4576,-7.89,2.26,-1.42,-0.24,0.31,-0.10
4581,-6.85,0.69,2.26,-0.24,0.31,-0.10
4586,0.50,-1.72,5.52,-0.24,0.31,-0.10
4591,0.50,-1.72,5.52,-0.15,-0.38,-0.04
4596,3.79,-4.60,18.20,-0.15,-0.38,-0.04
4600,3.79,-4.60,18.20,0.02,-0.83,0.31
4606,11.61,-3.71,26.05,0.02,-0.83,0.31
4611,3.37,-4.45,18.58,0.02,-0.83,0.31
4616,-2.14,-3.83,15.59,0.02,-0.83,0.31
4621,-0.27,-3.45,10.07,0.02,-0.83,0.31
4626,-0.27,-3.45,10.07,0.27,0.45,-0.02
4631,-2.84,-0.27,2.87,0.27,0.45,-0.02
4636,0.34,-0.61,4.07,0.27,0.45,-0.02
4641,2.91,1.07,6.55,0.27,0.45,-0.02
4646,0.27,1.88,9.23,0.27,0.45,-0.02
4651,0.27,1.88,9.23,-0.24,-0.17,-0.43
4656,-4.60,-2.22,11.07,-0.24,-0.17,-0.43
4661,-4.25,-2.22,10.11,-0.24,-0.17,-0.43
4666,-2.80,-0.50,11.53,-0.24,-0.17,-0.43
4671,-3.79,-1.07,6.47,-0.24,-0.17,-0.43
4676,-2.41,-0.04,5.52,-0.24,-0.17,-0.43
4681,-1.11,-0.73,4.86,-0.24,-0.17,-0.43
4686,-1.84,-0.15,4.56,-0.24,-0.17,-0.43
4691,-1.68,-0.80,4.25,-0.24,-0.17,-0.43
4696,0.92,-2.07,10.88,-0.24,-0.17,-0.43
4701,1.99,-2.18,12.76,-0.24,-0.17,-0.43
4706,1.57,-1.80,14.44,-0.24,-0.17,-0.43
4711,1.57,-1.80,14.44,0.10,-0.47,0.12
4716,2.57,0.88,17.93,0.10,-0.47,0.12
4721,2.57,0.88,17.93,0.12,0.46,-0.24
4726,-1.72,0.80,8.96,0.12,0.46,-0.24
4731,0.96,0.69,6.24,0.12,0.46,-0.24
4736,-1.72,0.84,5.59,0.12,0.46,-0.24
4742,-0.57,1.27,4.21,0.12,0.46,-0.24
4746,-0.08,3.41,3.99,0.12,0.46,-0.24
4751,-7.35,3.48,7.09,0.12,0.46,-0.24
4756,-8.43,3.48,9.84,0.12,0.46,-0.24
4761,1.27,0.77,12.22,0.12,0.46,-0.24
4766,-1.49,0.88,12.45,0.12,0.46,-0.24
4771,-1.49,0.88,12.45,-0.01,-0.17,-0.16
4776,11.41,0.30,12.87,-0.01,-0.17,-0.16
4781,8.70,-1.49,9.50,-0.01,-0.17,-0.16
4786,8.92,-0.46,8.35,-0.01,-0.17,-0.16
4792,6.21,-2.53,7.70,-0.01,-0.17,-0.16
4796,0.65,-2.91,5.55,-0.01,-0.17,-0.16
4801,0.30,-2.76,6.09,-0.01,-0.17,-0.16
4806,-1.23,-1.15,4.90,-0.01,-0.17,-0.16
4811,-5.05,-0.57,5.67,-0.01,-0.17,-0.16
4816,-7.05,0.27,8.46,-0.01,-0.17,-0.16
4821,-6.89,-0.46,10.04,-0.01,-0.17,-0.16
4826,-9.12,0.57,8.01,-0.01,-0.17,-0.16
4831,-7.55,-0.27,10.00,-0.01,-0.17,-0.16
4836,0.84,0.11,8.28,-0.01,-0.17,-0.16
4841,0.84,0.11,8.28,0.05,-0.33,0.03
4846,1.11,-0.46,8.20,0.05,-0.33,0.03
4851,1.53,-1.07,8.46,0.05,-0.33,0.03
4856,0.23,-1.11,9.20,0.05,-0.33,0.03
4861,2.41,-1.04,9.31,0.05,-0.33,0.03
4866,-0.11,-0.08,9.39,0.05,-0.33,0.03
4871,-0.15,0.80,10.96,0.05,-0.33,0.03
4876,-0.15,0.80,10.96,0.07,0.05,-0.01
4881,1.53,-0.19,11.07,0.07,0.05,-0.01
4886,-2.95,0.11,8.31,0.07,0.05,-0.01
4891,-4.21,1.19,8.73,0.07,0.05,-0.01
4896,-0.50,0.96,7.01,0.07,0.05,-0.01
4901,3.29,-1.00,9.93,0.07,0.05,-0.01
4907,-1.65,1.57,9.00,0.07,0.05,-0.01
4911,-1.65,1.57,9.00,-0.00,-0.08,-0.05
4916,-0.15,-1.65,9.34,-0.00,-0.08,-0.05
4921,-4.25,-0.92,11.46,-0.00,-0.08,-0.05
4826,-9.12,0.57,8.01,-0.01,-0.17,-0.16
4831,-7.55,-0.27,10.00,-0.01,-0.17,-0.16
4836,0.84,0.11,8.28,-0.01,-0.17,-0.16
4841,0.84,0.11,8.28,0.05,-0.33,0.03
4846,1.11,-0.46,8.20,0.05,-0.33,0.03
4851,1.53,-1.07,8.46,0.05,-0.33,0.03
4856,0.23,-1.11,9.20,0.05,-0.33,0.03
4861,2.41,-1.04,9.31,0.05,-0.33,0.03
4866,-0.11,-0.08,9.39,0.05,-0.33,0.03
4871,-0.15,0.80,10.96,0.05,-0.33,0.03
4876,-0.15,0.80,10.96,0.07,0.05,-0.01
4881,1.53,-0.19,11.07,0.07,0.05,-0.01
4886,-2.95,0.11,8.31,0.07,0.05,-0.01
4891,-4.21,1.19,8.73,0.07,0.05,-0.01
4896,-0.50,0.96,7.01,0.07,0.05,-0.01
4901,3.29,-1.00,9.93,0.07,0.05,-0.01
