timestamp,accX,accY,accZ,gyroX,gyroY,gyroZ
Break
6,1.34,1.88,9.16,-0.27,-0.20,-0.28
18,1.34,1.88,9.16,-0.25,-0.07,-0.28
20,1.34,1.88,9.16,0.37,-0.03,0.14
21,1.34,1.88,9.16,0.36,0.04,0.14
25,1.76,2.91,9.20,0.36,0.04,0.14
31,1.76,2.91,9.20,0.38,0.10,0.18
36,1.76,2.91,9.20,0.33,0.08,0.20
42,-0.42,-2.80,11.46,0.33,0.08,0.20
45,-0.42,-2.80,11.46,0.21,-0.00,0.04
50,-0.42,-2.80,11.46,0.21,-0.03,-0.01
56,-0.42,-2.80,11.46,0.29,0.08,0.04
62,-3.22,-0.57,5.90,0.29,0.08,0.04
66,-3.22,-0.57,5.90,0.37,0.12,0.20
70,-3.22,-0.57,5.90,0.33,0.07,0.21
75,-3.22,-0.57,5.90,0.25,0.00,0.14
80,-1.95,-0.80,6.17,0.25,0.00,0.14
86,-1.95,-0.80,6.17,0.18,-0.07,0.02
92,-1.95,-0.80,6.17,0.21,-0.12,0.02
97,1.95,0.54,9.54,0.21,-0.12,0.02
101,1.95,0.54,9.54,0.23,-0.01,0.12
106,1.95,0.54,9.54,0.24,-0.05,0.09
111,-1.19,-2.07,11.91,0.24,-0.05,0.09
117,-1.84,-1.99,12.52,0.24,-0.05,0.09
120,-1.84,-1.99,12.52,0.29,-0.00,0.15
126,-1.72,-0.34,11.19,0.29,-0.00,0.15
137,0.69,-1.11,11.03,0.29,-0.00,0.15
142,0.69,-1.11,11.03,0.27,-0.17,0.16
146,0.69,0.54,7.78,0.27,-0.17,0.16
151,0.69,0.54,7.78,0.25,0.01,0.25
156,0.69,0.54,7.78,0.23,-0.00,0.24
161,0.88,0.73,8.50,0.23,-0.00,0.24
167,0.11,0.92,9.69,0.23,-0.00,0.24
171,0.11,0.92,9.69,0.12,-0.18,0.17
176,0.11,0.92,9.69,0.13,-0.18,0.16
182,1.57,-1.42,9.42,0.13,-0.18,0.16
186,1.57,-1.42,9.42,0.15,-0.10,0.15
191,1.57,-1.42,9.42,0.15,-0.10,0.17
196,1.57,-1.42,9.42,0.20,-0.17,0.18
202,3.07,-2.45,13.02,0.20,-0.17,0.18
206,3.07,-2.45,13.02,0.24,0.02,0.19
210,3.07,-2.45,13.02,0.25,0.08,0.19
215,3.07,-2.45,13.02,0.26,0.06,0.18
222,-4.33,-1.42,10.03,0.26,0.06,0.18
226,-4.33,-1.42,10.03,0.25,0.02,0.16
231,-0.11,-0.11,8.54,0.25,0.02,0.16
237,2.41,0.11,7.89,0.25,0.02,0.16
240,2.41,0.11,7.89,0.16,-0.30,0.14
246,2.41,0.11,7.89,0.19,-0.28,0.11
252,1.91,0.15,7.66,0.19,-0.28,0.11
256,1.91,0.15,7.66,0.16,0.20,0.08
261,1.91,0.15,7.66,0.17,0.16,0.08
266,-2.34,1.88,9.20,0.17,0.16,0.08
272,-7.01,2.76,9.31,0.17,0.16,0.08
276,-7.01,2.76,9.31,0.11,-0.10,0.08
281,-7.01,2.76,9.31,0.12,-0.14,0.09
287,3.95,-2.72,10.19,0.12,-0.14,0.09
291,3.95,-2.72,10.19,0.17,-0.33,0.11
296,3.95,-2.72,10.19,0.19,-0.07,0.12
302,1.04,-0.61,7.36,0.19,-0.07,0.12
306,1.04,-0.61,7.36,0.24,0.15,0.17
311,1.04,-0.61,7.36,0.25,0.04,0.22
316,1.04,-0.61,7.36,0.22,0.04,0.26
322,-1.88,0.96,13.95,0.22,0.04,0.26
326,-1.88,0.96,13.95,0.18,0.11,0.22
330,-1.88,0.96,13.95,0.19,0.07,0.23
336,-1.88,0.96,13.95,0.21,0.03,0.26
341,-0.77,-2.38,9.20,0.21,0.03,0.26
346,-0.77,-2.38,9.20,0.22,0.02,0.32
351,-0.77,-2.38,9.20,0.22,0.05,0.36
357,0.61,-0.08,7.86,0.22,0.05,0.36
361,0.61,-0.08,7.86,0.19,0.15,0.40
366,0.61,-0.08,7.86,0.14,0.18,0.39
372,-4.56,0.23,5.52,0.14,0.18,0.39
376,-4.56,0.23,5.52,0.12,0.14,0.36
381,-4.56,0.23,5.52,0.11,0.07,0.36
386,0.88,0.34,6.93,0.11,0.07,0.36
391,1.80,-0.69,8.46,0.11,0.07,0.36
396,1.80,-0.69,8.46,0.15,-0.38,0.50
401,1.80,-0.69,8.46,0.19,-0.21,0.47
407,-1.68,-2.91,11.57,0.19,-0.21,0.47
410,-1.68,-2.91,11.57,0.22,0.17,0.46
416,-1.68,-2.91,11.57,0.23,-0.00,0.46
421,-1.68,-2.91,11.57,0.25,-0.14,0.47
426,2.41,-3.48,12.45,0.25,-0.14,0.47
431,2.41,-3.48,12.45,0.18,-0.32,0.43
436,2.41,-3.48,12.45,0.17,-0.17,0.40
442,3.10,-3.10,10.00,0.17,-0.17,0.40
446,3.10,-3.10,10.00,0.17,0.12,0.38
451,3.10,-3.10,10.00,0.20,0.01,0.40
457,3.10,-3.10,10.00,0.18,-0.05,0.45
461,3.10,-3.10,10.00,0.16,-0.08,0.47
466,3.10,-3.10,10.00,0.14,0.01,0.44
471,3.10,-3.10,10.00,0.10,0.10,0.40
477,-4.71,-1.49,9.00,0.10,0.10,0.40
481,-4.71,-1.49,9.00,0.19,0.08,0.38
486,-4.71,-1.49,9.00,0.16,-0.01,0.47
492,-4.71,-1.49,9.00,0.13,-0.10,0.52
496,-4.71,-1.49,9.00,0.07,-0.18,0.46
501,-4.71,-1.49,9.00,0.04,-0.23,0.38
506,-4.71,-1.49,9.00,0.02,-0.25,0.37
511,0.77,-0.54,11.57,0.02,-0.25,0.37
516,0.77,-0.54,11.57,0.03,0.06,0.42
521,0.77,-0.54,11.57,0.06,0.06,0.40
526,0.77,-0.54,11.57,0.09,0.00,0.40
531,0.77,-0.54,11.57,0.09,-0.04,0.41
536,0.77,-0.54,11.57,0.08,-0.07,0.42
541,0.77,-0.54,11.57,0.04,-0.06,0.37
547,0.84,-0.96,9.80,0.04,-0.06,0.37
551,0.84,-0.96,9.80,-0.06,-0.23,0.31
556,0.84,-0.96,9.80,-0.09,-0.37,0.31
562,0.84,-0.96,9.80,-0.04,-0.30,0.31
566,0.84,-0.96,9.80,-0.06,0.04,0.30
571,0.84,-0.96,9.80,-0.04,0.17,0.29
576,0.84,-0.96,9.80,-0.02,0.04,0.27
582,1.38,-1.27,9.93,-0.02,0.04,0.27
586,1.38,-1.27,9.93,-0.05,-0.21,0.28
591,1.38,-1.27,9.93,-0.07,-0.06,0.22
597,1.38,-1.27,9.93,-0.10,0.14,0.19
601,1.38,-1.27,9.93,-0.11,0.14,0.17
606,1.38,-1.27,9.93,-0.07,0.01,0.19
611,1.38,-1.27,9.93,-0.04,0.00,0.21
616,2.45,-2.03,13.25,-0.04,0.00,0.21
621,2.45,-2.03,13.25,0.01,0.23,0.23
626,2.45,-2.03,13.25,0.02,0.24,0.22
632,-5.25,-1.11,9.73,0.02,0.24,0.22
637,-5.25,-1.11,9.73,-0.02,0.16,0.14
641,-5.25,-1.11,9.73,-0.05,0.07,0.12
646,-5.25,-1.11,9.73,-0.06,-0.02,0.13
650,-5.25,-1.11,9.73,-0.03,-0.05,0.17
655,-5.25,-1.11,9.73,-0.05,0.04,0.20
660,-2.41,1.95,7.43,-0.05,0.04,0.20
666,-0.30,1.07,9.46,-0.05,0.04,0.20
672,-0.30,1.07,9.46,-0.17,0.10,0.09
676,-0.30,1.07,9.46,-0.19,-0.09,0.03
682,-0.30,1.07,9.46,-0.15,-0.03,0.07
686,-0.30,1.07,9.46,-0.14,0.12,0.08
691,-0.30,1.07,9.46,-0.12,0.14,0.08
696,-0.30,1.07,9.46,-0.11,0.04,0.08
702,4.90,-0.15,12.41,-0.11,0.04,0.08
706,4.90,-0.15,12.41,-0.07,0.18,0.11
711,4.90,-0.15,12.41,-0.07,0.29,0.12
717,4.90,-0.15,12.41,-0.07,0.25,0.10
721,4.90,-0.15,12.41,-0.13,0.20,0.09
726,4.90,-0.15,12.41,-0.17,0.15,0.07
731,4.90,-0.15,12.41,-0.21,0.12,0.04
737,4.90,-0.15,12.41,-0.21,0.04,0.03
741,4.90,-0.15,12.41,-0.19,-0.01,0.04
746,4.90,-0.15,12.41,-0.16,0.07,0.06
752,4.90,-0.15,12.41,-0.18,0.21,0.03
756,4.90,-0.15,12.41,-0.21,0.24,0.00
761,4.90,-0.15,12.41,-0.22,0.19,-0.05
766,4.90,-0.15,12.41,-0.23,0.18,-0.08
771,-5.05,0.15,7.28,-0.23,0.18,-0.08
776,-5.05,0.15,7.28,-0.24,0.28,-0.12
781,-5.05,0.15,7.28,-0.25,0.24,-0.14
786,-5.05,0.15,7.28,-0.29,0.15,-0.16
791,-5.05,0.15,7.28,-0.31,0.02,-0.17
796,-5.05,0.15,7.28,-0.32,-0.12,-0.18
801,-5.05,0.15,7.28,-0.30,-0.17,-0.18
806,2.49,-0.34,9.65,-0.30,-0.17,-0.18
811,2.49,-0.34,9.65,-0.28,0.29,-0.18
816,2.49,-0.34,9.65,-0.24,0.22,-0.18
821,2.49,-0.34,9.65,-0.22,0.07,-0.15
826,2.49,-0.34,9.65,-0.20,-0.02,-0.12
831,2.49,-0.34,9.65,-0.20,0.02,-0.10
836,2.49,-0.34,9.65,-0.21,0.09,-0.09
841,2.49,-0.34,9.65,-0.19,0.07,-0.08
846,2.49,-0.34,9.65,-0.21,0.03,-0.08
851,2.49,-0.34,9.65,-0.22,-0.05,-0.08
856,2.49,-0.34,9.65,-0.22,-0.08,-0.07
861,2.49,-0.34,9.65,-0.22,0.02,-0.08
866,2.49,-0.34,9.65,-0.23,0.12,-0.09
870,2.49,-0.34,9.65,-0.23,0.11,-0.08
876,1.95,-0.15,11.61,-0.23,0.11,-0.08
881,1.95,-0.15,11.61,-0.21,-0.00,-0.09
886,1.95,-0.15,11.61,-0.23,0.03,-0.10
891,-3.14,0.04,6.75,-0.23,0.03,-0.10
896,-3.14,0.04,6.75,-0.24,0.06,-0.11
901,-3.14,0.04,6.75,-0.22,-0.04,-0.07
906,-3.14,0.04,6.75,-0.22,-0.14,-0.05
911,-3.14,0.04,6.75,-0.22,-0.14,-0.04
916,-3.14,0.04,6.75,-0.24,0.04,-0.08
921,-3.14,0.04,6.75,-0.26,0.17,-0.09
927,1.34,0.08,9.16,-0.26,0.17,-0.09
931,1.34,0.08,9.16,-0.21,-0.03,-0.06
936,1.34,0.08,9.16,-0.21,-0.12,-0.03
941,1.34,0.08,9.16,-0.19,-0.12,-0.02
946,1.34,0.08,9.16,-0.20,-0.01,-0.04
951,1.34,0.08,9.16,-0.20,0.08,-0.06
956,1.34,0.08,9.16,-0.20,0.09,-0.07
961,1.27,-0.88,9.38,-0.20,0.09,-0.07
966,1.27,-0.88,9.38,-0.21,-0.12,-0.07
971,1.27,-0.88,9.38,-0.21,-0.21,-0.06
976,1.27,-0.88,9.38,-0.19,-0.21,-0.07
981,1.27,-0.88,9.38,-0.20,-0.03,-0.10
986,1.27,-0.88,9.38,-0.20,0.07,-0.11
990,1.27,-0.88,9.38,-0.19,-0.01,-0.12
997,0.92,-1.57,9.12,-0.19,-0.01,-0.12
1001,0.92,-1.57,9.12,-0.13,-0.11,-0.12
1006,0.92,-1.57,9.12,-0.13,-0.03,-0.12
1011,0.92,-1.57,9.12,-0.14,-0.02,-0.13
1016,0.92,-1.57,9.12,-0.13,-0.06,-0.15
1021,0.92,-1.57,9.12,-0.15,-0.13,-0.17
1026,0.92,-1.57,9.12,-0.13,-0.21,-0.16
1032,4.71,-1.27,11.88,-0.13,-0.21,-0.16
1036,4.71,-1.27,11.88,-0.12,0.01,-0.15
1041,4.71,-1.27,11.88,-0.11,0.08,-0.15
1047,4.71,-1.27,11.88,-0.10,0.05,-0.15
1051,4.71,-1.27,11.88,-0.08,0.06,-0.13
1056,4.71,-1.27,11.88,-0.09,0.10,-0.14
1060,4.71,-1.27,11.88,-0.09,0.11,-0.14
1066,-0.46,-1.65,11.15,-0.09,0.11,-0.14
1071,-0.46,-1.65,11.15,-0.12,0.03,-0.11
1076,-0.46,-1.65,11.15,-0.12,-0.04,-0.10
1082,-0.46,-1.65,11.15,-0.12,-0.13,-0.09
1086,-0.46,-1.65,11.15,-0.13,-0.17,-0.08
1091,-0.46,-1.65,11.15,-0.09,-0.14,-0.06
1095,-0.46,-1.65,11.15,-0.10,0.07,-0.05
1101,0.65,-1.00,8.92,-0.10,0.07,-0.05
1106,0.65,-1.00,8.92,-0.06,0.05,-0.02
1111,0.65,-1.00,8.92,-0.04,-0.03,0.01
1116,-0.54,-2.84,10.23,-0.04,-0.03,0.01
1121,-0.54,-2.84,10.23,0.01,0.02,0.09
1126,-0.54,-2.84,10.23,0.02,0.01,0.12
1130,-0.54,-2.84,10.23,0.03,-0.04,0.15
1136,3.10,-1.27,10.27,0.03,-0.04,0.15
1141,3.10,-1.27,10.27,0.02,0.02,0.17
1146,3.10,-1.27,10.27,0.00,0.12,0.16
1152,-0.50,-0.42,9.77,0.00,0.12,0.16
1156,-0.50,-0.42,9.77,-0.01,0.11,0.13
1161,-0.50,-0.42,9.77,-0.03,0.06,0.12
1165,-0.50,-0.42,9.77,-0.02,0.01,0.13
1171,-1.34,0.30,8.73,-0.02,0.01,0.13
1176,-1.34,0.30,8.73,-0.04,-0.10,0.14
1180,-1.34,0.30,8.73,-0.04,-0.18,0.13
1186,3.41,0.34,8.93,-0.04,-0.18,0.13
1191,3.41,0.34,8.93,-0.05,-0.01,0.09
1196,3.41,0.34,8.93,-0.07,0.07,0.07
1201,3.41,0.34,8.93,-0.07,-0.01,0.06
1206,2.38,-1.07,9.85,-0.07,-0.01,0.06
1211,2.38,-1.07,9.85,-0.09,0.10,0.01
1215,2.38,-1.07,9.85,-0.09,0.15,-0.01
1221,0.00,-0.80,9.96,-0.09,0.15,-0.01
1226,0.00,-0.80,9.96,-0.09,0.00,-0.05
1231,0.00,-0.80,9.96,-0.10,-0.05,-0.05
1236,0.00,-0.80,9.96,-0.11,-0.06,-0.07
1241,1.72,-0.08,10.15,-0.11,-0.06,-0.07
1246,1.72,-0.08,10.15,-0.13,0.02,-0.11
1250,1.72,-0.08,10.15,-0.12,0.03,-0.11
1256,3.64,-1.57,11.88,-0.12,0.03,-0.11
1261,3.64,-1.57,11.88,-0.10,0.05,-0.14
1266,3.64,-1.57,11.88,-0.10,0.08,-0.15
1270,3.64,-1.57,11.88,-0.08,0.11,-0.16
1276,0.04,0.04,9.73,-0.08,0.11,-0.16
1281,0.04,0.04,9.73,-0.10,0.09,-0.19
1285,0.04,0.04,9.73,-0.10,0.05,-0.21
1291,-0.42,0.80,11.03,-0.10,0.05,-0.21
1296,-0.42,0.80,11.03,-0.15,0.04,-0.26
1301,-0.42,0.80,11.03,-0.16,-0.02,-0.30
1306,-0.42,0.80,11.03,-0.18,-0.09,-0.31
1311,-0.42,0.80,11.03,-0.18,-0.13,-0.32
1316,-0.42,0.80,11.03,-0.18,-0.06,-0.33
1320,-0.42,0.80,11.03,-0.17,0.04,-0.33
1326,3.33,0.15,9.58,-0.17,0.04,-0.33
1331,3.33,0.15,9.58,-0.12,0.02,-0.32
1336,3.33,0.15,9.58,-0.13,0.04,-0.33
1341,3.33,0.15,9.58,-0.13,0.09,-0.33
1346,3.33,0.15,9.58,-0.14,0.08,-0.34
1351,3.33,0.15,9.58,-0.15,0.02,-0.33
1355,3.33,0.15,9.58,-0.15,-0.05,-0.33
1361,-0.73,1.11,8.36,-0.15,-0.05,-0.33
1366,-0.73,1.11,8.36,-0.17,0.05,-0.32
1370,-0.73,1.11,8.36,-0.18,0.08,-0.32
1376,4.06,-1.15,9.23,-0.18,0.08,-0.32
1381,4.06,-1.15,9.23,-0.15,-0.02,-0.28
1386,4.06,-1.15,9.23,-0.17,0.09,-0.28
1390,4.06,-1.15,9.23,-0.17,0.14,-0.30
1396,0.42,-0.50,9.84,-0.17,0.14,-0.30
1401,0.42,-0.50,9.84,-0.14,-0.03,-0.30
1406,0.42,-0.50,9.84,-0.12,-0.07,-0.27
1411,3.45,-1.65,10.54,-0.12,-0.07,-0.27
1416,3.45,-1.65,10.54,-0.10,0.05,-0.23
1421,3.45,-1.65,10.54,-0.08,0.05,-0.23
1426,3.45,-1.65,10.54,-0.06,0.05,-0.21
1431,1.27,-1.57,8.43,-0.06,0.05,-0.21
1436,1.27,-1.57,8.43,-0.05,0.12,-0.21
1440,1.27,-1.57,8.43,-0.05,0.11,-0.22
1446,0.38,-1.65,11.30,-0.05,0.11,-0.22
1451,0.38,-1.65,11.30,-0.04,-0.01,-0.24
1456,0.38,-1.65,11.30,-0.04,0.02,-0.25
1461,0.38,-1.65,11.30,-0.04,0.07,-0.25
1466,1.30,-0.34,8.39,-0.04,0.07,-0.25
1471,1.30,-0.34,8.39,-0.02,-0.02,-0.23
1475,1.30,-0.34,8.39,-0.01,-0.03,-0.21
1481,2.18,-1.72,9.73,-0.01,-0.03,-0.21
1486,2.18,-1.72,9.73,-0.01,0.14,-0.22
1490,2.18,-1.72,9.73,0.01,0.10,-0.22
1496,2.18,-1.72,9.73,0.02,0.07,-0.21
1501,2.18,-1.72,9.73,0.01,0.08,-0.20
1506,2.18,-1.72,9.73,0.01,0.06,-0.20
1510,2.18,-1.72,9.73,0.01,0.03,-0.22
1516,-0.34,-1.19,9.58,0.01,0.03,-0.22
1521,-0.34,-1.19,9.58,-0.02,-0.07,-0.24
1525,-0.34,-1.19,9.58,-0.01,-0.14,-0.22
1531,-0.34,-1.19,9.58,0.03,-0.12,-0.20
1536,-0.34,-1.19,9.58,0.03,0.02,-0.19
1541,-0.34,-1.19,9.58,0.04,0.09,-0.17
1545,-0.34,-1.19,9.58,0.05,0.04,-0.17
1551,2.22,-0.77,10.42,0.05,0.04,-0.17
1556,2.22,-0.77,10.42,0.08,0.08,-0.16
1560,2.22,-0.77,10.42,0.07,0.14,-0.15
1566,2.22,-0.77,10.42,0.07,0.12,-0.13
1571,2.22,-0.77,10.42,0.05,0.02,-0.14
1576,2.22,-0.77,10.42,0.05,-0.04,-0.12
1581,2.22,-0.77,10.42,0.05,0.01,-0.13
1586,1.07,0.04,8.20,0.05,0.01,-0.13
1591,1.07,0.04,8.20,0.03,0.15,-0.15
1595,1.07,0.04,8.20,0.02,0.09,-0.15
1601,1.27,-1.00,11.15,0.02,0.09,-0.15
1606,1.27,-1.00,11.15,0.04,-0.05,-0.12
1611,1.27,-1.00,11.15,0.06,-0.02,-0.10
1616,1.27,-1.00,11.15,0.05,0.06,-0.11
1621,1.65,-1.00,9.96,0.05,0.06,-0.11
1626,1.65,-1.00,9.96,0.06,0.01,-0.09
1630,1.65,-1.00,9.96,0.07,-0.05,-0.08
1636,1.88,-1.95,10.54,0.07,-0.05,-0.08
1641,1.88,-1.95,10.54,0.07,0.09,-0.06
1646,1.88,-1.95,10.54,0.07,0.09,-0.06
1651,1.88,-1.95,10.54,0.08,0.02,-0.04
1656,0.88,-1.76,9.89,0.08,0.02,-0.04
1661,0.88,-1.76,9.89,0.09,0.03,-0.01
1665,0.88,-1.76,9.89,0.09,0.06,-0.01
1671,-1.68,-0.65,7.16,0.09,0.06,-0.01
1676,-1.68,-0.65,7.16,0.08,0.02,0.01
1680,-1.68,-0.65,7.16,0.09,-0.04,0.02
1686,-1.68,-0.65,7.16,0.11,-0.08,0.05
1691,1.88,-1.49,10.04,0.11,-0.08,0.05
1696,1.88,-1.49,10.04,0.14,-0.01,0.11
1701,1.88,-1.49,10.04,0.14,0.00,0.13
1706,2.18,-1.80,9.69,0.14,0.00,0.13
1711,2.18,-1.80,9.69,0.15,-0.09,0.15
1716,2.18,-1.80,9.69,0.15,-0.08,0.18
1721,2.18,-1.80,9.69,0.16,-0.00,0.20
1725,2.18,-1.80,9.69,0.15,0.03,0.20
1731,2.18,-1.80,9.69,0.15,-0.01,0.21
1736,2.18,-1.80,9.69,0.15,-0.05,0.21
1741,1.27,-1.80,9.89,0.15,-0.05,0.21
1746,1.27,-1.80,9.89,0.15,0.03,0.23
1750,1.27,-1.80,9.89,0.15,0.06,0.23
1756,1.27,-1.80,9.89,0.16,0.00,0.24
1761,1.27,-1.80,9.89,0.16,-0.04,0.25
1766,1.27,-1.80,9.89,0.15,-0.05,0.27
1771,1.27,-1.80,9.89,0.15,-0.07,0.26
1776,1.00,-1.46,8.28,0.15,-0.07,0.26
1781,1.00,-1.46,8.28,0.15,-0.09,0.26
1785,1.00,-1.46,8.28,0.16,-0.09,0.27
1791,2.34,-1.34,8.96,0.16,-0.09,0.27
1796,3.03,-0.96,9.77,0.16,-0.09,0.27
1801,3.03,-0.96,9.77,0.15,-0.05,0.26
1806,3.03,-0.96,9.77,0.14,-0.03,0.25
1811,1.72,-0.77,11.26,0.14,-0.03,0.25
1816,1.72,-0.77,11.26,0.13,0.00,0.22
1820,1.72,-0.77,11.26,0.13,-0.01,0.22
1826,1.68,-1.57,10.88,0.13,-0.01,0.22
1831,1.68,-1.57,10.88,0.13,-0.01,0.21
1836,1.68,-1.57,10.88,0.12,0.03,0.20
1841,1.68,-1.57,10.88,0.11,0.04,0.19
1846,-0.42,0.15,8.32,0.11,0.04,0.19
1851,-0.42,0.15,8.32,0.11,0.04,0.17
1856,-0.42,0.15,8.32,0.10,0.04,0.18
1861,-0.30,0.23,9.12,0.10,0.04,0.18
1866,-0.30,0.23,9.12,0.07,-0.02,0.14
1870,-0.30,0.23,9.12,0.07,-0.04,0.13
1876,-0.30,0.23,9.12,0.05,-0.05,0.12
1881,-0.54,-0.08,8.08,0.05,-0.05,0.12
1886,-0.54,-0.08,8.08,0.04,-0.04,0.08
1891,-0.54,-0.08,8.08,0.04,-0.04,0.07
1896,-0.54,-0.08,8.08,0.03,-0.03,0.06
1901,-0.54,-0.08,8.08,0.03,-0.04,0.05
1905,-0.54,-0.08,8.08,0.03,-0.04,0.05
1911,2.03,0.04,9.43,0.03,-0.04,0.05
1916,2.14,-0.42,9.50,0.03,-0.04,0.05
1921,2.14,-0.42,9.50,0.02,-0.01,0.03
1926,2.14,-0.42,9.50,0.01,0.01,0.02
1931,1.00,-0.11,9.61,0.01,0.01,0.02
1936,1.00,-0.11,9.61,0.01,-0.00,0.00
1940,1.00,-0.11,9.61,0.01,-0.01,-0.00
1946,-2.41,0.54,7.12,0.01,-0.01,-0.00
1951,-2.41,0.54,7.12,-0.01,-0.04,-0.01
1956,-2.41,0.54,7.12,-0.01,-0.12,-0.01
1961,-2.41,0.54,7.12,-0.02,-0.17,-0.01
1966,2.91,-0.19,9.30,-0.02,-0.17,-0.01
1971,2.91,-0.19,9.30,-0.01,0.02,-0.01
1975,2.91,-0.19,9.30,-0.01,-0.01,-0.02
1981,2.91,-0.34,9.65,-0.01,-0.01,-0.02
1985,2.91,-0.34,9.65,0.00,-0.12,0.00
1990,2.91,-0.34,9.65,-0.01,-0.05,-0.01
1996,2.91,-0.34,9.65,-0.01,0.01,-0.01
2001,1.15,-0.69,10.30,-0.01,0.01,-0.01
2006,1.15,-0.69,10.30,-0.02,-0.04,-0.03
2010,1.15,-0.69,10.30,-0.04,-0.09,-0.04
2016,1.15,-0.69,10.30,-0.03,-0.08,-0.04
2021,1.15,-0.69,10.30,-0.03,-0.01,-0.03
2026,1.15,-0.69,10.30,-0.02,0.04,-0.03
2031,1.15,-0.69,10.30,-0.02,0.01,-0.03
2036,1.34,-0.57,10.15,-0.02,0.01,-0.03
2041,1.34,-0.57,10.15,-0.02,-0.05,-0.03
2045,1.34,-0.57,10.15,-0.02,-0.02,-0.04
2051,1.72,-0.96,9.96,-0.02,-0.02,-0.04
2056,1.72,-0.96,9.96,-0.01,-0.06,-0.05
2061,1.72,-0.96,9.96,-0.01,-0.05,-0.05
2066,1.72,-0.96,9.96,-0.02,0.01,-0.06
2071,1.72,-0.96,9.96,-0.02,0.03,-0.07
2076,1.72,-0.96,9.96,-0.02,-0.00,-0.09
2081,1.72,-0.96,9.96,-0.02,-0.02,-0.09
2086,-0.15,-0.15,10.45,-0.02,-0.02,-0.09
2091,-0.15,-0.15,10.45,-0.02,0.01,-0.10
2095,-0.15,-0.15,10.45,-0.02,0.01,-0.10
2101,-0.15,-0.15,10.45,-0.03,-0.04,-0.11
2105,-0.15,-0.15,10.45,-0.03,-0.12,-0.12
2111,-0.15,-0.15,10.45,-0.03,-0.12,-0.12
2116,-0.15,-0.15,10.45,-0.02,-0.03,-0.11
2121,1.61,-0.96,9.38,-0.02,-0.03,-0.11
2126,1.61,-0.96,9.38,-0.01,0.02,-0.08
2130,1.61,-0.96,9.38,-0.01,-0.01,-0.08
2136,1.61,-0.96,9.38,-0.01,-0.02,-0.07
2141,1.61,-0.96,9.38,-0.01,-0.00,-0.07
2146,1.61,-0.96,9.38,-0.00,-0.01,-0.07
2151,1.61,-0.96,9.38,-0.01,-0.04,-0.06
2156,1.61,-0.96,9.38,-0.01,-0.11,-0.03
2161,1.61,-0.96,9.38,0.00,-0.15,-0.01
2165,1.61,-0.96,9.38,0.02,-0.04,0.00
2171,0.73,-0.73,9.39,0.02,-0.04,0.00
2176,0.08,-0.73,9.00,0.02,-0.04,0.00
2181,0.08,-0.73,9.00,0.02,-0.06,0.03
2186,0.08,-0.73,9.00,0.04,-0.08,0.03
2191,0.08,-0.73,9.00,0.04,-0.06,0.04
2196,0.08,-0.73,9.00,0.03,-0.05,0.05
2200,0.08,-0.73,9.00,0.05,-0.04,0.07
2206,2.14,-1.00,9.84,0.05,-0.04,0.07
2211,2.14,-1.00,9.84,0.05,-0.02,0.06
2215,2.14,-1.00,9.84,0.04,0.00,0.06
2221,2.14,-1.00,9.84,0.04,-0.01,0.06
2226,2.03,-1.07,10.41,0.04,-0.01,0.06
2231,2.03,-1.07,10.41,0.04,0.02,0.05
2235,2.03,-1.07,10.41,0.04,0.04,0.05
2241,0.61,-0.77,8.82,0.04,0.04,0.05
2245,0.61,-0.77,8.82,0.04,-0.03,0.03
2250,0.61,-0.77,8.82,0.04,-0.05,0.04
2256,0.61,-0.77,8.82,0.04,-0.01,0.02
2261,0.61,-0.77,8.82,0.04,0.04,0.03
2266,0.61,-0.77,8.82,0.03,-0.01,0.02
2271,0.61,-0.77,8.82,0.04,-0.05,0.02
2276,0.61,-0.77,8.82,0.04,-0.01,0.02
2281,0.61,-0.77,8.82,0.04,0.03,0.01
2285,0.61,-0.77,8.82,0.04,0.01,0.01
2291,0.61,-0.77,8.82,0.04,-0.03,0.02
2296,2.30,-1.30,10.65,0.04,-0.03,0.02
2300,2.30,-1.30,10.65,0.04,0.02,0.03
2305,2.30,-1.30,10.65,0.03,0.07,0.03
2311,0.42,-0.54,9.65,0.03,0.07,0.03
2316,0.42,-0.54,9.65,0.04,0.04,0.06
2321,0.42,-0.54,9.65,0.04,0.03,0.06
2326,0.08,-1.11,9.43,0.04,0.03,0.06
2331,0.08,-1.11,9.43,0.05,-0.02,0.10
2336,0.08,-1.11,9.43,0.05,-0.04,0.12
2341,0.08,-1.11,9.43,0.06,-0.03,0.14
2346,2.64,-1.00,8.70,0.06,-0.03,0.14
2350,2.64,-1.00,8.70,0.07,0.06,0.18
2356,2.64,-1.00,8.70,0.08,0.05,0.19
2361,0.50,-0.77,9.93,0.08,0.05,0.19
2366,0.50,-0.77,9.93,0.08,0.05,0.23
2370,0.50,-0.77,9.93,0.09,0.05,0.25
2376,0.50,-0.77,9.93,0.09,0.06,0.26
2380,0.50,-0.77,9.93,0.09,0.04,0.27
2385,0.50,-0.77,9.93,0.10,-0.00,0.28
2391,0.50,-0.77,9.93,0.10,-0.05,0.29
2396,0.50,-0.77,9.93,0.10,-0.04,0.31
2400,0.50,-0.77,9.93,0.10,-0.02,0.33
2406,0.50,-0.77,9.93,0.11,0.02,0.35
2411,0.50,-0.77,9.93,0.12,0.02,0.37
2416,0.50,-0.77,9.93,0.11,0.01,0.37
2420,0.50,-0.77,9.93,0.12,0.01,0.38
2426,0.50,-0.77,9.93,0.12,0.01,0.38
2431,0.50,-0.92,9.50,0.12,0.01,0.38
2436,0.50,-0.92,9.50,0.12,-0.01,0.37
2441,0.50,-0.92,9.50,0.10,-0.03,0.36
2446,0.50,-0.92,9.50,0.09,-0.04,0.33
2450,0.50,-0.92,9.50,0.09,-0.01,0.31
2456,0.50,-0.92,9.50,0.09,0.00,0.29
2461,0.50,-0.92,9.50,0.09,0.00,0.29
2466,0.80,-0.15,9.88,0.09,0.00,0.29
2470,0.80,-0.15,9.88,0.08,0.01,0.25
2476,0.80,-0.15,9.88,0.08,-0.00,0.23
2481,0.80,-0.15,9.88,0.07,-0.02,0.21
2486,0.80,-0.15,9.88,0.08,-0.02,0.22
2491,0.80,-0.15,9.88,0.07,0.01,0.22
2496,0.80,-0.15,9.88,0.07,0.05,0.21
2501,2.76,-0.84,11.92,0.07,0.05,0.21
2505,2.76,-0.84,11.92,0.05,0.02,0.21
2511,2.76,-0.84,11.92,0.05,-0.03,0.20
2516,2.76,-0.84,11.92,0.05,0.03,0.21
2520,2.76,-0.84,11.92,0.04,0.12,0.19
2525,2.76,-0.84,11.92,0.02,0.12,0.17
2531,2.76,-0.84,11.92,-0.00,0.04,0.14
2536,2.76,-0.84,11.92,0.00,-0.03,0.12
2541,2.76,-0.84,11.92,0.00,-0.05,0.12
2545,2.76,-0.84,11.92,0.01,0.01,0.12
2550,2.76,-0.84,11.92,0.01,0.04,0.13
2556,-0.04,0.54,7.77,0.01,0.04,0.13
2560,-0.04,0.54,7.77,0.02,-0.05,0.13
2566,-0.04,0.54,7.77,0.03,-0.03,0.12
2570,-0.04,0.54,7.77,0.02,0.01,0.13
2575,-0.04,0.54,7.77,0.02,0.00,0.12
2580,-0.04,0.54,7.77,0.03,-0.01,0.13
2586,1.95,-0.50,10.34,0.03,-0.01,0.13
2591,1.95,-0.50,10.34,0.04,0.04,0.15
2595,1.95,-0.50,10.34,0.03,0.04,0.15
2601,1.95,-0.50,10.34,0.03,0.02,0.15
2606,1.95,-0.50,10.34,0.03,0.05,0.15
2610,1.95,-0.50,10.34,0.02,0.07,0.15
2616,1.95,-0.50,10.34,0.01,0.09,0.15
2621,1.95,-0.50,10.34,0.00,0.08,0.13
2625,1.04,-0.65,10.07,0.00,0.08,0.13
2631,1.04,-0.65,10.07,-0.00,-0.00,0.14
2636,1.04,-0.65,10.07,0.01,-0.04,0.14
2641,1.04,-0.65,10.07,-0.01,-0.00,0.13
2646,0.04,0.08,8.85,-0.01,-0.00,0.13
2650,1.49,-0.92,9.12,-0.01,-0.00,0.13
2656,1.49,-0.92,9.12,-0.05,-0.03,0.11
2660,1.49,-0.92,9.12,-0.06,-0.01,0.11
2666,1.49,-0.92,9.12,-0.04,0.02,0.13
2670,1.49,-0.92,9.12,-0.04,0.02,0.15
2676,1.49,-0.92,9.12,-0.03,-0.00,0.18
2680,1.49,-0.92,9.12,-0.03,0.00,0.20
2686,1.49,-0.92,9.12,-0.03,0.01,0.19
2691,1.49,-0.92,9.12,-0.05,0.03,0.19
2695,1.38,-0.96,9.96,-0.05,0.03,0.19
2700,1.38,-0.96,9.96,-0.03,0.01,0.21
2706,1.38,-0.96,9.96,-0.02,0.02,0.24
2711,1.38,-0.96,9.96,0.00,0.02,0.28
2715,0.38,-0.92,8.96,0.00,0.02,0.28
2720,0.77,-0.65,8.50,0.00,0.02,0.28
2726,0.77,-0.65,8.50,0.03,-0.03,0.34
2730,2.76,-0.92,9.96,0.03,-0.03,0.34
2735,3.26,-1.04,10.27,0.03,-0.03,0.34
2741,3.26,-1.04,10.27,0.05,-0.06,0.39
2746,3.26,-1.04,10.27,0.05,-0.03,0.41
2750,1.00,-0.92,9.12,0.05,-0.03,0.41
2755,1.68,-1.80,9.89,0.05,-0.03,0.41
2761,1.68,-1.80,9.89,0.06,-0.05,0.41
2766,1.68,-1.80,9.89,0.04,-0.06,0.41
2770,1.68,-1.80,9.89,0.05,-0.03,0.42
2776,1.68,-1.80,9.89,0.05,0.02,0.42
2781,1.68,-1.80,9.89,0.04,0.00,0.42
2786,-0.92,-0.50,7.93,0.04,0.00,0.42
2790,-0.96,0.54,7.36,0.04,0.00,0.42
2796,-0.96,0.54,7.36,0.00,-0.05,0.32
2801,-0.96,0.54,7.36,-0.02,-0.11,0.29
2806,4.90,-2.49,11.72,-0.02,-0.11,0.29
2810,2.91,-1.53,11.22,-0.02,-0.11,0.29
2816,2.91,-1.53,11.22,-0.04,0.04,0.27
2821,2.91,-1.53,11.22,-0.04,0.03,0.26
2826,-0.08,0.38,8.89,-0.04,0.03,0.26
2831,-0.04,-0.30,9.54,-0.04,0.03,0.26
2835,0.11,-0.38,9.12,-0.04,0.03,0.26
2841,0.11,-0.38,9.12,-0.03,0.01,0.12
2846,0.11,-0.38,9.12,-0.02,-0.02,0.10
2851,0.84,-0.38,9.35,-0.02,-0.02,0.10
2855,1.23,1.07,9.84,-0.02,-0.02,0.10
2861,1.23,1.07,9.84,-0.06,-0.05,-0.01
2866,1.23,1.07,9.84,-0.08,-0.04,-0.05
2870,2.22,0.88,10.57,-0.08,-0.04,-0.05
2876,2.22,0.88,10.57,-0.11,0.03,-0.14
2881,2.22,0.88,10.57,-0.14,0.05,-0.18
2885,0.08,0.19,10.07,-0.14,0.05,-0.18
2890,0.08,0.42,10.38,-0.14,0.05,-0.18
2896,0.34,0.38,9.96,-0.14,0.05,-0.18
2901,0.34,0.38,9.96,-0.17,0.02,-0.29
2905,0.34,0.38,9.96,-0.17,0.02,-0.30
2910,0.34,0.38,9.96,-0.17,0.02,-0.32
2916,0.34,0.38,9.96,-0.17,0.03,-0.33
2921,0.57,1.07,9.46,-0.17,0.03,-0.33
2925,0.38,1.61,9.46,-0.17,0.03,-0.33
2930,0.38,1.61,9.46,-0.19,0.08,-0.34
2936,-0.11,0.80,9.38,-0.19,0.08,-0.34
2941,-0.11,0.80,9.38,-0.18,0.04,-0.34
2946,0.65,0.08,9.12,-0.18,0.04,-0.34
2950,1.53,0.50,9.58,-0.18,0.04,-0.34
2955,1.38,0.34,9.77,-0.18,0.04,-0.34
2960,1.38,0.34,9.77,-0.15,0.01,-0.27
2966,1.38,0.34,9.77,-0.16,0.03,-0.26
2971,-0.80,0.65,8.39,-0.16,0.03,-0.26
2975,1.30,0.38,9.88,-0.16,0.03,-0.26
2981,1.30,0.38,9.88,-0.16,-0.02,-0.25
2986,1.30,0.38,9.88,-0.16,-0.04,-0.24
2991,1.65,-0.38,10.38,-0.16,-0.04,-0.24
2995,1.38,-0.11,9.46,-0.16,-0.04,-0.24
3001,1.38,-0.11,9.46,-0.17,0.08,-0.21
3006,1.38,-0.11,9.46,-0.16,0.05,-0.21
3010,0.54,-0.11,9.39,-0.16,0.05,-0.21
3016,0.27,-0.65,10.00,-0.16,0.05,-0.21
3020,0.27,-0.65,10.00,-0.16,0.04,-0.20
3026,0.27,-0.65,10.00,-0.17,0.05,-0.20
3030,0.27,-0.65,10.00,-0.17,0.02,-0.20
3036,0.27,-0.65,10.00,-0.17,-0.01,-0.19
3041,0.38,-0.57,9.08,-0.17,-0.01,-0.19
3045,0.77,-0.30,9.04,-0.17,-0.01,-0.19
3051,0.77,-0.30,9.04,-0.16,0.01,-0.19
3056,0.77,-0.30,9.04,-0.15,0.01,-0.18
3061,0.77,-0.30,9.04,-0.15,0.03,-0.18
3066,0.57,-0.19,9.65,-0.15,0.03,-0.18
3070,-0.42,-0.50,9.23,-0.15,0.03,-0.18
3075,0.00,-0.84,9.08,-0.15,0.03,-0.18
3080,0.00,-0.84,9.08,-0.13,0.01,-0.17
3086,0.00,-0.84,9.08,-0.14,-0.03,-0.17
3091,0.00,-0.84,9.08,-0.14,-0.03,-0.17
3096,0.80,-0.42,9.50,-0.14,-0.03,-0.17
3100,1.19,-0.73,9.27,-0.14,-0.03,-0.17
3106,1.19,-0.73,9.27,-0.15,-0.00,-0.18
3110,0.96,-0.96,9.69,-0.15,-0.00,-0.18
3115,1.04,-1.07,9.54,-0.15,-0.00,-0.18
3121,1.04,-1.07,9.54,-0.13,0.01,-0.17
3126,1.04,-1.07,9.54,-0.13,0.03,-0.17
3130,0.34,-0.80,9.43,-0.13,0.03,-0.17
3136,0.54,-0.38,9.54,-0.13,0.03,-0.17
3141,0.54,-0.38,9.54,-0.12,-0.02,-0.16
3145,1.49,-0.27,9.38,-0.12,-0.02,-0.16
3150,1.27,-0.61,9.34,-0.12,-0.02,-0.16
3156,0.96,-0.46,9.61,-0.12,-0.02,-0.16
3160,0.80,-0.88,9.38,-0.12,-0.02,-0.16
3165,0.73,-0.69,9.50,-0.12,-0.02,-0.16
3171,0.73,-0.69,9.50,-0.13,0.00,-0.13
3176,0.73,-0.69,9.50,-0.12,0.01,-0.11
3181,0.73,-0.69,9.50,-0.12,0.03,-0.11
3185,1.88,-0.65,11.07,-0.12,0.03,-0.11
3191,2.45,-0.80,11.03,-0.12,0.03,-0.11
3196,2.45,-0.80,11.03,-0.11,-0.05,-0.07
3200,1.38,-0.34,9.27,-0.11,-0.05,-0.07
3205,0.92,-0.57,8.36,-0.11,-0.05,-0.07
3210,0.92,-0.57,8.36,-0.12,0.07,-0.07
3215,0.92,-0.57,8.36,-0.13,0.03,-0.08
3222,0.92,-0.57,8.36,-0.12,-0.00,-0.08
3226,1.38,-1.23,10.15,-0.12,-0.00,-0.08
3230,0.84,-1.07,9.81,-0.12,-0.00,-0.08
3235,1.00,-1.19,9.42,-0.12,-0.00,-0.08
3241,1.00,-1.19,9.42,-0.12,0.01,-0.06
3246,1.00,-1.19,9.42,-0.12,-0.02,-0.07
3251,1.49,-1.42,9.20,-0.12,-0.02,-0.07
3255,1.80,-1.30,9.27,-0.12,-0.02,-0.07
3261,1.68,-1.42,9.84,-0.12,-0.02,-0.07
3265,1.34,-1.53,9.65,-0.12,-0.02,-0.07
3270,1.49,-1.46,9.84,-0.12,-0.02,-0.07
3275,2.22,-1.04,10.57,-0.12,-0.02,-0.07
3281,2.22,-1.04,10.57,-0.12,0.01,-0.09
3285,1.49,-1.11,9.80,-0.12,0.01,-0.09
3290,1.27,-0.88,9.84,-0.12,0.01,-0.09
3296,0.80,-1.04,9.43,-0.12,0.01,-0.09
3300,0.54,-1.11,8.88,-0.12,0.01,-0.09
3305,1.00,-1.42,8.92,-0.12,0.01,-0.09
3310,1.23,-1.27,9.46,-0.12,0.01,-0.09
3316,0.96,-1.23,9.42,-0.12,0.01,-0.09
3320,1.19,-0.92,9.00,-0.12,0.01,-0.09
3325,1.38,-0.80,9.12,-0.12,0.01,-0.09
3331,1.38,-0.80,9.12,-0.12,0.01,-0.07
3336,0.34,-0.61,8.96,-0.12,0.01,-0.07
3340,0.46,-0.57,9.27,-0.12,0.01,-0.07
3346,0.69,-0.88,9.65,-0.12,0.01,-0.07
3350,0.54,-1.15,9.84,-0.12,0.01,-0.07
3355,0.46,-1.27,9.73,-0.12,0.01,-0.07
3360,1.00,-1.38,9.77,-0.12,0.01,-0.07
3366,1.00,-1.38,9.77,-0.11,-0.01,-0.04
3370,1.00,-1.61,9.88,-0.11,-0.01,-0.04
3375,0.42,-1.34,9.69,-0.11,-0.01,-0.04
3381,-0.19,-1.46,9.96,-0.11,-0.01,-0.04
3385,-1.04,-1.61,9.77,-0.11,-0.01,-0.04
3390,-1.61,-1.68,9.65,-0.11,-0.01,-0.04
3395,-1.80,-1.53,9.80,-0.11,-0.01,-0.04
3401,-1.80,-1.53,9.80,-0.10,0.03,-0.05
3405,-0.50,-1.88,9.20,-0.10,0.03,-0.05
3410,0.00,-1.57,8.46,-0.10,0.03,-0.05
3416,0.34,-1.38,8.42,-0.10,0.03,-0.05
3420,1.84,-1.23,8.78,-0.10,0.03,-0.05
3425,1.99,-1.27,8.70,-0.10,0.03,-0.05
3431,1.88,-1.00,8.70,-0.10,0.03,-0.05
3435,1.84,-0.50,9.61,-0.10,0.03,-0.05
3440,1.65,-0.27,9.84,-0.10,0.03,-0.05
3445,1.07,-0.19,9.77,-0.10,0.03,-0.05
3450,0.80,-0.38,9.04,-0.10,0.03,-0.05
3456,0.80,-0.38,9.04,-0.10,0.03,-0.01
3461,1.38,-0.38,8.96,-0.10,0.03,-0.01
3465,3.29,-0.42,10.19,-0.10,0.03,-0.01
3470,3.83,-0.57,10.35,-0.10,0.03,-0.01
3475,3.87,-0.38,10.03,-0.10,0.03,-0.01
3480,3.68,-0.08,9.89,-0.10,0.03,-0.01
3486,3.22,-0.04,9.69,-0.10,0.03,-0.01
3491,1.95,0.19,9.50,-0.10,0.03,-0.01
3495,1.95,0.19,9.50,-0.12,0.03,0.05
3500,2.07,-0.54,10.15,-0.12,0.03,0.05
3505,2.26,-0.73,10.15,-0.12,0.03,0.05
3510,2.22,-1.11,9.88,-0.12,0.03,0.05
3515,2.30,-0.96,9.89,-0.12,0.03,0.05
3521,2.30,-0.96,9.89,-0.14,-0.01,0.04
3526,2.45,-1.07,9.73,-0.14,-0.01,0.04
3530,2.45,-1.07,9.73,-0.16,0.02,0.01
3536,2.22,-1.61,9.58,-0.16,0.02,0.01
3540,2.11,-1.53,9.77,-0.16,0.02,0.01
3545,1.88,-1.95,9.69,-0.16,0.02,0.01
3550,1.84,-2.14,9.50,-0.16,0.02,0.01
3556,2.03,-2.03,9.77,-0.16,0.02,0.01
3561,1.95,-2.34,9.73,-0.16,0.02,0.01
3565,1.95,-2.34,9.73,-0.15,0.01,0.03
3570,1.95,-2.34,9.73,-0.16,0.01,0.03
3575,1.99,-2.61,9.27,-0.16,0.01,0.03
3580,2.38,-2.87,9.23,-0.16,0.01,0.03
3587,2.91,-2.99,9.00,-0.16,0.01,0.03
3590,2.95,-3.41,9.12,-0.16,0.01,0.03
3595,3.41,-3.29,9.16,-0.16,0.01,0.03
3601,3.22,-3.41,9.35,-0.16,0.01,0.03
3606,3.07,-3.14,9.30,-0.16,0.01,0.03
3610,3.79,-3.41,9.69,-0.16,0.01,0.03
3615,3.52,-3.07,9.80,-0.16,0.01,0.03
3621,4.06,-3.37,10.00,-0.16,0.01,0.03
3625,3.91,-2.61,10.11,-0.16,0.01,0.03
3630,4.02,-2.95,9.92,-0.16,0.01,0.03
3636,3.64,-2.61,9.77,-0.16,0.01,0.03
3641,3.26,-2.64,9.65,-0.16,0.01,0.03
3645,2.91,-2.72,9.65,-0.16,0.01,0.03
3650,2.80,-2.87,9.58,-0.16,0.01,0.03
3656,2.61,-2.41,9.73,-0.16,0.01,0.03
3661,2.76,-2.03,10.03,-0.16,0.01,0.03
3665,2.72,-1.88,10.15,-0.16,0.01,0.03
3672,2.57,-1.95,10.15,-0.16,0.01,0.03
3675,2.38,-1.38,10.04,-0.16,0.01,0.03
3680,2.91,-1.65,9.65,-0.16,0.01,0.03
3685,1.65,-0.92,9.77,-0.16,0.01,0.03
3691,0.96,-0.54,9.89,-0.16,0.01,0.03
3696,-0.50,0.00,11.22,-0.16,0.01,0.03
3700,-0.50,0.00,11.22,-0.07,0.01,0.16
3705,-0.50,0.00,11.22,-0.08,-0.01,0.16
3711,2.18,0.57,9.85,-0.08,-0.01,0.16
3716,-3.10,1.34,10.61,-0.08,-0.01,0.16
3720,-3.10,1.34,10.61,-0.12,-0.00,0.17
3726,2.61,2.07,7.05,-0.12,-0.00,0.17
3730,0.96,1.95,8.84,-0.12,-0.00,0.17
3736,-1.80,2.57,10.80,-0.12,-0.00,0.17
3742,-1.76,3.33,12.11,-0.12,-0.00,0.17
3745,2.18,2.57,5.64,-0.12,-0.00,0.17
3750,-1.00,3.03,10.42,-0.12,-0.00,0.17
3755,-1.00,3.03,10.42,-0.22,0.00,0.22
3760,0.34,2.14,11.50,-0.22,0.00,0.22
3765,2.34,1.23,8.12,-0.22,0.00,0.22
3772,0.34,2.07,8.78,-0.22,0.00,0.22
3775,0.30,2.68,7.20,-0.22,0.00,0.22
3780,2.11,1.99,7.39,-0.22,0.00,0.22
3787,-1.95,1.80,9.50,-0.22,0.00,0.22
3790,-1.95,1.80,9.50,-0.26,0.01,0.25
3795,0.23,0.84,6.59,-0.26,0.01,0.25
3800,-0.84,0.11,9.80,-0.26,0.01,0.25
3805,-3.71,0.77,12.60,-0.26,0.01,0.25
3810,-0.80,-0.15,13.02,-0.26,0.01,0.25
3817,2.72,-0.80,6.71,-0.26,0.01,0.25
3822,-3.03,-1.19,12.61,-0.26,0.01,0.25
3825,-3.03,-1.19,12.61,-0.24,0.04,0.09
3830,-3.03,-1.19,12.61,-0.26,0.05,0.02
3836,-0.84,-0.88,9.46,-0.26,0.05,0.02
3842,-5.02,0.15,14.36,-0.26,0.05,0.02
3845,-1.38,-0.15,7.05,-0.26,0.05,0.02
3850,-1.53,-0.96,8.32,-0.26,0.05,0.02
3855,-2.57,-0.69,7.70,-0.26,0.05,0.02
3862,-2.84,-1.19,8.66,-0.26,0.05,0.02
3865,-3.60,-0.96,9.12,-0.26,0.05,0.02
3872,-3.14,-2.49,9.23,-0.26,0.05,0.02
3875,-3.14,-2.49,9.23,-0.44,0.10,-0.44
3881,-3.33,-2.38,8.62,-0.44,0.10,-0.44
3886,-2.95,-3.60,9.23,-0.44,0.10,-0.44
3891,-2.95,-3.60,9.23,-0.37,0.08,-0.43
3895,-2.95,-3.60,9.23,-0.36,0.09,-0.42
3902,-2.76,-4.25,9.08,-0.36,0.09,-0.42
3907,-2.76,-4.52,8.62,-0.36,0.09,-0.42
3910,-2.76,-4.52,8.62,-0.27,0.05,-0.32
3915,-2.91,-4.02,9.54,-0.27,0.05,-0.32
3920,-2.38,-4.48,9.77,-0.27,0.05,-0.32
3925,-1.99,-3.10,9.65,-0.27,0.05,-0.32
3930,-2.07,-2.68,9.58,-0.27,0.05,-0.32
3937,-1.30,-2.72,9.54,-0.27,0.05,-0.32
3942,-1.49,-2.45,9.04,-0.27,0.05,-0.32
3945,-1.49,-2.45,9.04,-0.31,0.05,-0.19
3951,-1.49,-2.45,9.04,-0.31,0.05,-0.17
3956,-1.27,-2.95,9.61,-0.31,0.05,-0.17
3960,-1.27,-2.95,9.61,-0.30,0.06,-0.10
3965,-1.00,-2.76,9.50,-0.30,0.06,-0.10
3970,-0.80,-2.64,9.58,-0.30,0.06,-0.10
3977,-0.65,-2.84,9.46,-0.30,0.06,-0.10
3980,-0.65,-2.84,9.46,-0.27,0.04,0.03
3985,-0.08,-3.37,8.96,-0.27,0.04,0.03
3990,-0.11,-3.45,8.89,-0.27,0.04,0.03
3997,-0.15,-3.14,8.74,-0.27,0.04,0.03
4001,-0.54,-3.18,8.78,-0.27,0.04,0.03
4007,-2.53,-3.22,8.70,-0.27,0.04,0.03
4010,-2.53,-3.22,8.70,-0.15,0.04,0.28
4015,-2.53,-3.22,8.70,-0.16,0.04,0.28
4020,-0.42,-2.64,9.08,-0.16,0.04,0.28
4026,-0.54,-2.64,8.88,-0.16,0.04,0.28
4030,-0.54,-2.64,8.88,-0.17,0.02,0.30
4036,0.42,-2.11,9.27,-0.17,0.02,0.30
4042,0.27,-1.57,9.35,-0.17,0.02,0.30
4045,0.27,-1.57,9.35,-0.20,0.02,0.31
4050,0.27,-1.57,9.35,-0.20,0.03,0.30
4055,1.00,-0.57,9.34,-0.20,0.03,0.30
4062,1.19,-0.54,9.23,-0.20,0.03,0.30
4065,1.19,-0.54,9.23,-0.22,0.04,0.29
4070,1.19,-0.54,9.23,-0.23,0.04,0.29
4075,0.88,-0.08,8.96,-0.23,0.04,0.29
4082,0.73,-0.15,8.92,-0.23,0.04,0.29
4085,0.73,-0.15,8.92,-0.24,0.04,0.31
4091,0.61,-0.19,8.88,-0.24,0.04,0.31
4097,0.50,-0.30,8.93,-0.24,0.04,0.31
4100,0.50,-0.30,8.93,-0.26,0.02,0.33
4105,0.46,-0.73,9.12,-0.26,0.02,0.33
4110,0.30,-1.23,8.96,-0.26,0.02,0.33
4117,-1.23,-1.53,8.70,-0.26,0.02,0.33
4121,-1.23,-1.53,8.70,-0.25,0.01,0.38
4125,0.57,-0.65,8.93,-0.25,0.01,0.38
4130,1.23,-1.80,8.70,-0.25,0.01,0.38
4137,1.30,-1.91,9.12,-0.25,0.01,0.38
4141,-0.08,-1.99,9.27,-0.25,0.01,0.38
4146,0.54,-2.30,9.23,-0.25,0.01,0.38
4150,0.54,-2.30,9.23,-0.32,0.04,0.25
4155,0.54,-2.30,9.23,-0.34,0.04,0.20
4160,0.15,-2.53,9.43,-0.34,0.04,0.20
4167,0.00,-2.11,9.39,-0.34,0.04,0.20
4171,0.00,-2.11,9.39,-0.35,0.04,0.12
4175,0.08,-2.76,9.27,-0.35,0.04,0.12
4182,0.46,-2.91,9.31,-0.35,0.04,0.12
4185,0.46,-2.91,9.31,-0.35,0.06,0.01
4191,0.46,-2.91,9.31,-0.35,0.07,-0.03
4197,0.30,-3.71,9.23,-0.35,0.07,-0.03
4202,0.61,-3.60,9.16,-0.35,0.07,-0.03
4206,0.61,-3.60,9.16,-0.35,0.07,-0.13
4210,-0.65,-3.64,9.00,-0.35,0.07,-0.13
4217,-0.15,-4.14,9.08,-0.35,0.07,-0.13
4220,-0.15,-4.14,9.08,-0.37,0.05,-0.28
4225,-0.08,-4.56,9.42,-0.37,0.05,-0.28
4230,0.00,-5.17,9.46,-0.37,0.05,-0.28
4237,0.00,-5.32,9.43,-0.37,0.05,-0.28
4241,0.00,-5.32,9.43,-0.39,0.05,-0.46
4245,0.77,-4.75,9.38,-0.39,0.05,-0.46
4250,-0.11,-6.13,9.16,-0.39,0.05,-0.46
4257,0.46,-5.82,9.43,-0.39,0.05,-0.46
4261,0.27,-5.75,9.50,-0.39,0.05,-0.46
4267,0.57,-5.82,9.58,-0.39,0.05,-0.46
4271,0.57,-5.82,9.58,-0.37,0.08,-0.69
4275,0.57,-5.82,9.58,-0.36,0.06,-0.69
4281,-0.04,-5.86,9.20,-0.36,0.06,-0.69
4287,-0.11,-6.02,9.08,-0.36,0.06,-0.69
4290,-0.11,-6.02,9.08,-0.31,0.05,-0.68
4296,0.42,-5.32,9.30,-0.31,0.05,-0.68
4302,0.46,-5.55,9.16,-0.31,0.05,-0.68
4305,0.46,-5.55,9.16,-0.27,0.05,-0.63
4311,0.46,-5.55,9.16,-0.25,0.05,-0.61
4317,0.77,-4.41,9.27,-0.25,0.05,-0.61
4320,0.77,-4.41,9.27,-0.23,0.06,-0.57
4325,0.77,-4.41,9.27,-0.23,0.05,-0.57
4330,0.77,-4.41,9.27,-0.21,0.06,-0.54
4335,0.84,-3.68,9.04,-0.21,0.06,-0.54
4341,0.84,-3.68,9.04,-0.20,0.04,-0.51
4347,0.84,-3.68,9.04,-0.19,0.04,-0.50
4352,0.96,-3.60,8.96,-0.19,0.04,-0.50
4355,0.96,-3.60,8.96,-0.19,0.02,-0.47
4360,0.96,-3.60,8.96,-0.17,0.02,-0.44
4366,0.88,-3.87,8.78,-0.17,0.02,-0.44
4372,0.73,-3.60,8.58,-0.17,0.02,-0.44
4375,0.73,-3.60,8.58,-0.15,0.02,-0.37
4381,0.84,-4.21,8.50,-0.15,0.02,-0.37
4387,0.57,-3.33,9.20,-0.15,0.02,-0.37
4391,0.57,-3.33,9.20,-0.12,0.02,-0.31
4395,0.57,-3.33,9.20,-0.13,0.01,-0.28
4401,0.65,-2.76,9.34,-0.13,0.01,-0.28
4407,0.57,-2.11,9.54,-0.13,0.01,-0.28
4410,0.57,-2.11,9.54,-0.16,0.01,-0.25
4416,0.04,-3.48,9.23,-0.16,0.01,-0.25
4422,0.15,-3.37,9.27,-0.16,0.01,-0.25
4425,0.15,-3.37,9.27,-0.16,0.01,-0.23
4430,0.15,-3.37,9.27,-0.15,0.01,-0.22
4436,-0.19,-3.26,8.96,-0.15,0.01,-0.22
4442,-0.11,-3.37,9.08,-0.15,0.01,-0.22
4445,-0.11,-3.37,9.08,-0.12,0.01,-0.19
4451,-0.11,-3.37,9.08,-0.12,0.02,-0.18
4457,-0.15,-2.45,9.31,-0.12,0.02,-0.18
4460,-0.15,-2.45,9.31,-0.15,0.02,-0.19
4466,-0.15,-2.45,9.31,-0.16,0.02,-0.19
4471,-0.15,-2.45,9.31,-0.15,0.01,-0.18
4477,-0.27,-3.91,9.00,-0.15,0.01,-0.18
4481,-0.27,-3.91,9.00,-0.13,-0.01,-0.15
4486,-0.27,-3.91,9.00,-0.13,0.01,-0.14
4492,-0.15,-3.75,8.93,-0.13,0.01,-0.14
4496,-0.15,-3.75,8.93,-0.12,0.00,-0.12
4501,-0.15,-3.75,8.93,-0.12,0.00,-0.11
4507,-0.69,-3.68,8.66,-0.12,0.00,-0.11
4511,-0.69,-3.68,8.66,-0.09,0.02,-0.10
4515,-0.69,-3.68,8.66,-0.09,0.01,-0.08
4521,-0.73,-3.14,9.20,-0.09,0.01,-0.08
4527,-0.96,-4.21,9.93,-0.09,0.01,-0.08
4531,-0.96,-4.21,9.93,-0.06,0.00,-0.04
4536,-0.96,-4.21,9.93,-0.05,-0.02,-0.02
4542,-0.27,-4.33,9.42,-0.05,-0.02,-0.02
4545,-0.27,-4.33,9.42,-0.04,-0.02,-0.00
4550,-0.27,-4.33,9.42,-0.04,-0.01,0.00
4556,0.19,-4.37,8.39,-0.04,-0.01,0.00
4562,0.04,-4.48,8.39,-0.04,-0.01,0.00
4565,0.04,-4.48,8.39,-0.05,0.00,0.01
4571,0.04,-4.48,8.39,-0.04,0.01,0.01
4577,-0.96,-4.90,9.16,-0.04,0.01,0.01
4581,-0.96,-4.90,9.16,-0.03,0.01,0.01
4585,-0.96,-4.90,9.16,-0.03,0.01,0.00
4591,-0.96,-4.90,9.16,-0.03,-0.00,0.00
4597,-1.07,-3.64,9.77,-0.03,-0.00,0.00
4601,-1.07,-3.64,9.77,-0.03,-0.01,0.00
4606,-1.07,-3.64,9.77,-0.03,-0.02,0.01
4612,-0.27,-4.02,8.70,-0.03,-0.02,0.01
4616,-0.27,-4.02,8.70,-0.02,-0.00,0.02
4620,-0.27,-4.02,8.70,-0.02,0.01,0.02
4626,-0.84,-3.91,8.58,-0.02,0.01,0.02
4631,-1.07,-3.45,8.82,-0.02,0.01,0.02
4635,-1.07,-3.45,8.82,-0.01,0.01,0.04
4641,-1.07,-3.45,8.82,-0.00,0.01,0.04
4647,-1.15,-3.48,9.43,-0.00,0.01,0.04
4651,-1.15,-3.48,9.43,0.01,-0.01,0.05
4656,-1.15,-3.48,9.43,0.01,-0.01,0.05
4662,-0.77,-3.56,9.00,0.01,-0.01,0.05
4665,-0.77,-3.56,9.00,0.00,-0.00,0.05
4671,-0.77,-3.56,9.00,0.00,0.00,0.05
4676,-0.88,-3.41,8.88,0.00,0.00,0.05
4682,-1.00,-3.22,8.88,0.00,0.00,0.05
4685,-1.00,-3.22,8.88,0.01,0.01,0.05
4691,-1.00,-3.22,8.88,0.00,0.01,0.05
4697,-0.73,-3.18,9.20,0.00,0.01,0.05
4701,-0.73,-3.18,9.20,0.01,-0.00,0.06
4705,-0.73,-3.18,9.20,0.01,0.01,0.06
4711,-0.73,-3.18,9.20,0.00,-0.00,0.06
4717,-0.73,-2.99,9.00,0.00,-0.00,0.06
4721,-0.73,-2.99,9.00,0.01,0.00,0.07
4725,-0.73,-2.99,9.00,0.00,0.00,0.07
4731,-0.73,-2.99,9.00,0.02,0.00,0.08
4737,-0.65,-2.87,8.96,0.02,0.00,0.08
4741,-0.65,-2.87,8.96,0.02,-0.01,0.10
4746,-0.65,-2.87,8.96,0.02,-0.01,0.10
4752,-0.57,-2.61,8.93,0.02,-0.01,0.10
4755,-0.57,-2.61,8.93,0.01,-0.00,0.09
4761,-0.57,-2.61,8.93,0.01,0.00,0.09
4767,-0.73,-2.91,8.96,0.01,0.00,0.09
4771,-0.73,-2.91,8.96,0.00,-0.01,0.08
4776,-0.73,-2.91,8.96,-0.00,-0.01,0.07
4781,-0.73,-2.95,9.08,-0.00,-0.01,0.07
4787,-0.65,-2.87,9.08,-0.00,-0.01,0.07
4791,-0.65,-2.87,9.08,-0.00,-0.01,0.04
4796,-0.65,-2.87,9.08,-0.02,-0.00,0.03
4802,-0.54,-2.91,8.88,-0.02,-0.00,0.03
4805,-0.54,-2.91,8.88,-0.02,0.00,-0.00
4811,-0.54,-2.91,8.88,-0.04,0.00,-0.02
4816,-0.88,-2.91,9.08,-0.04,0.00,-0.02
4822,-0.92,-2.99,9.16,-0.04,0.00,-0.02
4825,-0.92,-2.99,9.16,-0.04,0.01,-0.05
4831,-0.92,-2.99,9.16,-0.05,0.01,-0.07
4837,-0.69,-2.95,9.12,-0.05,0.01,-0.07
4840,-0.69,-2.95,9.12,-0.05,0.00,-0.09
4846,-0.69,-2.95,9.12,-0.05,0.01,-0.10
4851,-0.69,-2.95,9.12,-0.06,0.00,-0.11
4857,-0.77,-3.33,8.85,-0.06,0.00,-0.11
4861,-0.77,-3.33,8.85,-0.06,0.01,-0.13
4866,-0.77,-3.33,8.85,-0.06,0.01,-0.14
4872,-0.84,-3.18,9.04,-0.06,0.01,-0.14
4876,-0.84,-3.18,9.04,-0.06,0.01,-0.15
4881,-0.84,-3.18,9.04,-0.06,0.01,-0.16
4886,-0.96,-3.41,8.96,-0.06,0.01,-0.16
4892,-0.84,-3.52,8.89,-0.06,0.01,-0.16
4895,-0.84,-3.52,8.89,-0.05,0.01,-0.17
4901,-0.84,-3.68,8.81,-0.05,0.01,-0.17
4907,-0.96,-3.64,8.89,-0.05,0.01,-0.17
4911,-0.96,-3.64,8.89,-0.05,0.01,-0.20
4916,-0.96,-3.64,8.89,-0.06,0.01,-0.20
4922,-0.96,-3.71,9.04,-0.06,0.01,-0.20
4925,-0.96,-3.71,9.04,-0.05,0.01,-0.21
4931,-0.96,-3.71,9.04,-0.05,0.01,-0.22
4837,-0.69,-2.95,9.12,-0.05,0.01,-0.07
4840,-0.69,-2.95,9.12,-0.05,0.00,-0.09
4846,-0.69,-2.95,9.12,-0.05,0.01,-0.10
4851,-0.69,-2.95,9.12,-0.06,0.00,-0.11
4857,-0.77,-3.33,8.85,-0.06,0.00,-0.11
4861,-0.77,-3.33,8.85,-0.06,0.01,-0.13
4866,-0.77,-3.33,8.85,-0.06,0.01,-0.14
4872,-0.84,-3.18,9.04,-0.06,0.01,-0.14
4876,-0.84,-3.18,9.04,-0.06,0.01,-0.15
4881,-0.84,-3.18,9.04,-0.06,0.01,-0.16
4886,-0.96,-3.41,8.96,-0.06,0.01,-0.16
4892,-0.84,-3.52,8.89,-0.06,0.01,-0.16
4895,-0.84,-3.52,8.89,-0.05,0.01,-0.17
4901,-0.84,-3.68,8.81,-0.05,0.01,-0.17
