timestamp,accX,accY,accZ,gyroX,gyroY,gyroZ
Left
6,-0.88,-1.46,9.42,0.05,-0.02,-0.06
19,-0.88,-1.42,9.39,0.05,-0.02,-0.06
20,9.12,-0.84,14.48,0.05,-0.02,-0.06
22,9.12,-0.84,14.48,-0.06,0.52,-0.02
26,8.23,-2.64,11.38,-0.06,0.52,-0.02
31,2.95,-2.53,9.08,-0.06,0.52,-0.02
36,-0.80,-1.68,9.96,-0.06,0.52,-0.02
42,-5.36,-0.38,11.38,-0.06,0.52,-0.02
46,-19.23,2.07,8.96,-0.06,0.52,-0.02
51,-17.31,0.88,11.15,-0.06,0.52,-0.02
56,-15.13,1.15,7.55,-0.06,0.52,-0.02
62,-9.96,-0.92,8.01,-0.06,0.52,-0.02
66,4.21,-3.07,8.66,-0.06,0.52,-0.02
72,12.18,-3.18,8.12,-0.06,0.52,-0.02
76,12.18,-3.18,8.12,-0.23,-1.21,0.01
81,15.36,-4.52,16.55,-0.23,-1.21,0.01
86,13.75,1.72,15.82,-0.23,-1.21,0.01
92,4.33,0.69,8.82,-0.23,-1.21,0.01
96,4.33,0.69,8.82,0.04,1.53,0.01
101,-13.48,2.26,4.48,0.04,1.53,0.01
107,-14.18,-0.92,7.20,0.04,1.53,0.01
111,-14.18,-0.92,7.20,0.32,0.61,-0.15
116,-14.18,-0.92,7.20,0.15,0.03,-0.10
121,3.83,-3.83,6.29,0.15,0.03,-0.10
127,6.29,-4.75,5.67,0.15,0.03,-0.10
131,6.93,-0.57,3.18,0.15,0.03,-0.10
136,3.03,0.65,5.28,0.15,0.03,-0.10
142,0.69,4.52,7.85,0.15,0.03,-0.10
146,0.69,4.52,7.85,0.07,0.92,-0.25
151,-9.77,0.38,11.64,0.07,0.92,-0.25
156,-6.86,0.38,11.49,0.07,0.92,-0.25
162,-1.53,-3.87,14.79,0.07,0.92,-0.25
166,6.55,-5.32,15.20,0.07,0.92,-0.25
171,7.36,-2.76,14.90,0.07,0.92,-0.25
176,8.93,-0.80,13.79,0.07,0.92,-0.25
182,6.59,1.30,11.11,0.07,0.92,-0.25
186,1.34,3.29,9.69,0.07,0.92,-0.25
191,1.23,2.41,7.35,0.07,0.92,-0.25
197,-1.68,-0.38,6.32,0.07,0.92,-0.25
201,-5.86,-1.15,7.32,0.07,0.92,-0.25
206,-3.33,-2.72,9.30,0.07,0.92,-0.25
212,-2.80,-3.29,8.39,0.07,0.92,-0.25
216,-2.80,-3.29,8.39,0.29,0.02,0.39
222,-1.11,-0.15,10.19,0.29,0.02,0.39
227,-1.27,0.61,3.95,0.29,0.02,0.39
231,-1.27,0.61,3.95,0.03,-0.46,0.06
237,-1.27,0.61,3.95,-0.03,-0.40,-0.17
242,4.14,-2.14,11.84,-0.03,-0.40,-0.17
246,4.14,-2.14,11.84,0.04,-0.42,-0.24
251,4.14,-2.14,11.84,0.09,-0.15,0.01
256,8.43,-1.46,21.18,0.09,-0.15,0.01
262,3.37,-0.65,17.36,0.09,-0.15,0.01
266,3.37,-0.65,17.36,0.12,0.45,0.18
271,-3.22,2.45,9.00,0.12,0.45,0.18
277,-3.37,-0.15,6.12,0.12,0.45,0.18
281,-3.37,-0.15,6.12,0.26,0.33,-0.05
287,-3.37,-0.15,6.12,0.28,0.12,-0.03
292,2.57,-4.71,4.94,0.28,0.12,-0.03
296,2.57,-4.71,4.94,0.21,-0.44,0.18
301,2.57,-4.71,4.94,0.14,-0.55,0.20
306,0.57,3.18,10.73,0.14,-0.55,0.20
312,-1.72,4.21,10.61,0.14,-0.55,0.20
316,-1.72,4.21,10.61,-0.01,0.14,-0.22
322,-0.80,-1.07,10.30,-0.01,0.14,-0.22
327,-1.91,-1.07,9.50,-0.01,0.14,-0.22
331,-1.91,-1.07,9.50,0.03,0.15,-0.26
336,-1.91,-1.07,9.50,0.03,-0.05,-0.20
341,1.42,-0.61,9.54,0.03,-0.05,-0.20
347,2.76,0.34,10.00,0.03,-0.05,-0.20
351,2.76,0.34,10.00,0.19,0.08,-0.01
357,2.76,0.34,10.00,0.17,0.38,0.04
362,-6.21,3.29,8.62,0.17,0.38,0.04
366,-6.21,3.29,8.62,0.26,0.54,-0.05
371,-6.21,3.29,8.62,0.22,0.43,-0.12
376,-6.21,3.29,8.62,0.17,0.23,-0.10
382,-0.42,-1.53,9.89,0.17,0.23,-0.10
386,-0.42,-1.53,9.89,0.10,-0.25,0.05
391,2.53,0.23,10.65,0.10,-0.25,0.05
396,2.22,1.00,10.11,0.10,-0.25,0.05
402,1.61,0.84,11.64,0.10,-0.25,0.05
407,1.61,0.84,11.64,0.14,0.02,-0.02
411,1.53,0.00,11.11,0.14,0.02,-0.02
416,-0.27,-1.27,11.19,0.14,0.02,-0.02
422,-1.76,-0.92,9.85,0.14,0.02,-0.02
427,-2.30,-0.73,8.31,0.14,0.02,-0.02
432,-0.96,-2.41,6.70,0.14,0.02,-0.02
436,-0.96,-2.41,6.70,0.26,0.01,0.18
442,-0.96,-2.41,6.70,0.25,-0.09,0.21
447,-8.62,1.72,3.26,0.25,-0.09,0.21
451,-8.62,1.72,3.26,0.24,0.16,0.09
456,-8.62,1.72,3.26,0.21,0.36,-0.17
461,-17.43,0.88,5.52,0.21,0.36,-0.17
467,-8.35,-2.34,6.05,0.21,0.36,-0.17
471,-8.35,-2.34,6.05,0.09,-0.13,-0.70
477,-8.35,-2.34,6.05,0.00,-0.73,-0.49
482,13.91,-3.83,13.68,0.00,-0.73,-0.49
486,13.91,-3.83,13.68,0.22,-1.21,-0.11
491,13.91,-3.83,13.68,0.18,-0.09,-0.19
496,13.91,-3.83,13.68,0.01,1.05,-0.21
502,-2.30,-1.11,11.57,0.01,1.05,-0.21
506,-2.30,-1.11,11.57,0.38,0.78,-0.31
511,-1.42,-4.02,10.69,0.38,0.78,-0.31
516,3.10,-4.45,11.41,0.38,0.78,-0.31
522,2.76,-2.87,8.70,0.38,0.78,-0.31
527,2.76,-2.87,8.70,0.30,-0.57,0.43
531,3.45,0.54,11.11,0.30,-0.57,0.43
537,-1.27,1.72,3.03,0.30,-0.57,0.43
541,-1.27,1.72,3.03,0.34,-0.26,0.18
547,-2.49,2.76,4.68,0.34,-0.26,0.18
552,-0.65,1.53,2.99,0.34,-0.26,0.18
556,-0.65,1.53,2.99,0.25,-0.08,-0.20
561,-0.65,1.53,2.99,0.14,-0.28,-0.12
567,15.29,-5.75,19.77,0.14,-0.28,-0.12
572,8.16,-5.32,23.56,0.14,-0.28,-0.12
576,8.16,-5.32,23.56,0.23,-0.10,0.46
582,-0.27,0.50,12.30,0.23,-0.10,0.46
587,-8.20,0.96,9.61,0.23,-0.10,0.46
591,-8.20,0.96,9.61,0.45,0.65,0.36
597,-8.20,0.96,9.61,0.54,0.48,0.36
603,-5.48,-4.33,7.05,0.54,0.48,0.36
606,-5.48,-4.33,7.05,0.50,-0.19,0.45
611,-5.48,-4.33,7.05,0.46,-0.61,0.62
617,-5.48,-4.33,7.05,0.40,-0.83,0.76
622,-0.84,0.73,10.53,0.40,-0.83,0.76
626,-0.84,0.73,10.53,0.34,-0.64,0.67
631,-0.84,0.73,10.53,0.34,-0.23,0.43
637,-0.84,0.73,10.53,0.24,0.23,0.31
642,-2.68,-2.18,6.02,0.24,0.23,0.31
646,-2.68,-2.18,6.02,0.40,0.15,0.17
652,-0.38,-4.33,6.89,0.40,0.15,0.17
657,4.94,-4.98,8.70,0.40,0.15,0.17
662,4.94,-4.98,8.70,0.36,-0.63,0.58
667,4.94,-4.98,8.70,0.48,-0.61,0.65
673,5.25,3.26,15.17,0.48,-0.61,0.65
676,5.25,3.26,15.17,0.24,0.43,0.49
681,5.25,3.26,15.17,0.33,0.63,0.51
687,-12.95,2.26,1.46,0.33,0.63,0.51
692,-5.79,-1.42,2.80,0.33,0.63,0.51
697,-5.79,-1.42,2.80,0.37,0.12,0.15
702,-5.79,-1.42,2.80,0.32,-0.29,0.23
707,13.98,-6.36,17.82,0.32,-0.29,0.23
711,13.98,-6.36,17.82,0.16,-0.93,0.75
716,13.98,-6.36,17.82,0.41,-0.71,0.92
722,1.84,6.63,18.00,0.41,-0.71,0.92
727,-5.82,4.79,14.25,0.41,-0.71,0.92
731,-5.82,4.79,14.25,0.35,1.18,0.60
737,-5.82,4.79,14.25,0.54,1.14,0.57
742,-6.29,-4.56,2.57,0.54,1.14,0.57
747,-6.29,-4.56,2.57,0.64,0.48,0.72
751,-6.29,-4.56,2.57,0.56,-0.06,0.90
757,-6.29,-4.56,2.57,0.44,-0.64,0.99
762,1.30,2.07,3.56,0.44,-0.64,0.99
767,1.30,2.07,3.56,0.11,-0.99,0.88
772,1.30,2.07,3.56,-0.03,-0.87,0.62
777,-14.82,4.14,12.11,-0.03,-0.87,0.62
782,-14.82,4.14,12.11,0.08,0.08,0.04
787,-14.82,4.14,12.11,0.03,0.33,-0.19
793,-2.45,-6.82,11.26,0.03,0.33,-0.19
797,-2.45,-6.82,11.26,0.14,-0.12,0.03
801,-2.45,-6.82,11.26,0.12,-0.54,0.31
807,7.85,-2.99,11.84,0.12,-0.54,0.31
812,4.52,4.18,9.85,0.12,-0.54,0.31
817,4.52,4.18,9.85,0.24,0.18,0.17
822,4.52,4.18,9.85,0.13,0.68,0.13
828,-5.32,0.46,10.07,0.13,0.68,0.13
831,-5.32,0.46,10.07,0.34,0.45,0.03
837,-5.32,0.46,10.07,0.29,0.13,0.09
842,5.09,-3.98,10.53,0.29,0.13,0.09
847,7.16,-2.57,10.54,0.29,0.13,0.09
851,7.16,-2.57,10.54,0.19,-0.61,0.61
857,7.16,-2.57,10.54,0.14,-0.57,0.55
863,1.38,7.09,6.70,0.14,-0.57,0.55
867,1.38,7.09,6.70,0.12,0.14,0.13
872,1.38,7.09,6.70,0.11,0.46,0.03
877,1.38,7.09,6.70,0.20,0.52,-0.07
882,-3.10,-1.38,11.68,0.20,0.52,-0.07
887,-3.10,-1.38,11.68,0.19,0.12,0.12
891,-3.10,-1.38,11.68,0.13,-0.24,0.30
896,-3.10,-1.38,11.68,0.06,-0.57,0.45
902,3.29,1.65,10.30,0.06,-0.57,0.45
907,3.29,1.65,10.30,0.12,-0.45,0.47
912,3.29,1.65,10.30,0.16,0.04,0.27
917,-11.72,3.56,10.23,0.16,0.04,0.27
922,-11.72,3.56,10.23,0.25,0.67,0.05
927,-11.72,3.56,10.23,0.27,0.44,0.02
932,-1.68,-5.59,10.96,0.27,0.44,0.02
937,-1.68,-5.59,10.96,0.24,-0.28,0.48
942,-1.68,-5.59,10.96,0.21,-0.60,0.67
948,2.72,0.15,5.28,0.21,-0.60,0.67
951,2.72,0.15,5.28,0.19,-0.74,0.60
957,2.72,0.15,5.28,0.29,-0.39,0.33
962,2.72,0.15,5.28,0.17,0.20,0.24
967,-3.26,0.88,7.16,0.17,0.20,0.24
971,-3.26,0.88,7.16,0.22,0.44,0.09
977,-3.26,0.88,7.16,0.24,0.20,0.12
983,-1.84,-3.60,10.42,0.24,0.20,0.12
987,-1.84,-3.60,10.42,0.17,-0.25,0.43
992,-1.84,-3.60,10.42,0.09,-0.39,0.43
997,-1.84,-3.60,10.42,0.08,-0.42,0.31
1003,3.68,0.65,11.22,0.08,-0.42,0.31
1006,3.68,0.65,11.22,0.07,0.17,0.19
1011,3.68,0.65,11.22,0.08,0.39,0.24
1016,3.68,0.65,11.22,0.19,0.34,0.20
1021,-2.61,-1.76,10.30,0.19,0.34,0.20
1026,-2.61,-1.76,10.30,0.29,0.11,0.37
1033,-2.61,-1.76,10.30,0.30,0.08,0.54
1037,-0.73,-0.61,10.91,0.30,0.08,0.54
1042,-0.73,-0.61,10.91,0.29,0.00,0.59
1047,-0.73,-0.61,10.91,0.26,-0.00,0.55
1052,3.18,0.11,7.86,0.26,-0.00,0.55
1057,3.18,0.11,7.86,0.23,-0.10,0.53
1062,3.18,0.11,7.86,0.23,-0.11,0.61
1068,3.91,-1.38,9.65,0.23,-0.11,0.61
1071,3.91,-1.38,9.65,0.24,-0.03,0.62
1077,3.91,-1.38,9.65,0.24,0.18,0.65
1082,3.91,-1.38,9.65,0.22,0.35,0.63
1087,-5.05,1.57,6.55,0.22,0.35,0.63
1092,-5.05,1.57,6.55,0.22,0.20,0.48
1097,-5.05,1.57,6.55,0.19,0.06,0.46
1103,0.77,-3.83,8.24,0.19,0.06,0.46
1107,0.77,-3.83,8.24,0.12,-0.35,0.45
1112,0.77,-3.83,8.24,0.22,-0.38,0.53
1117,0.77,-3.83,8.24,0.27,-0.14,0.58
1123,0.96,0.27,11.22,0.27,-0.14,0.58
1126,0.96,0.27,11.22,0.20,0.37,0.62
1131,0.96,0.27,11.22,0.26,0.23,0.59
1136,0.96,0.27,11.22,0.25,0.07,0.58
1143,0.73,-2.87,10.65,0.25,0.07,0.58
1146,0.73,-2.87,10.65,0.28,-0.14,0.66
1152,1.53,-1.53,12.49,0.28,-0.14,0.66
1157,1.53,-1.53,12.49,0.32,-0.06,0.80
1162,1.53,-1.53,12.49,0.29,0.06,0.78
1167,1.53,-1.53,12.49,0.28,0.11,0.79
1173,-0.23,0.00,8.84,0.28,0.11,0.79
1176,-0.23,0.00,8.84,0.26,0.04,0.73
1182,-0.23,0.00,8.84,0.27,-0.03,0.67
1187,-0.23,0.00,8.84,0.29,-0.05,0.67
1193,1.57,-2.99,10.31,0.29,-0.05,0.67
1197,1.57,-2.99,10.31,0.28,0.02,0.71
1202,1.57,-2.99,10.31,0.26,0.03,0.71
1207,1.30,-1.42,10.34,0.26,0.03,0.71
1212,1.30,-1.42,10.34,0.26,0.03,0.73
1217,1.30,-1.42,10.34,0.26,0.06,0.71
1222,-0.42,-0.84,10.19,0.26,0.06,0.71
1227,-0.11,-1.27,10.61,0.26,0.06,0.71
1232,-0.11,-1.27,10.61,0.26,0.03,0.69
1237,-0.11,-1.27,10.61,0.28,0.03,0.73
1243,1.57,-2.80,11.49,0.28,0.03,0.73
1247,1.57,-2.80,11.49,0.31,0.10,0.81
1252,1.57,-2.80,11.49,0.30,0.11,0.82
1257,1.57,-2.80,11.49,0.28,0.11,0.81
1263,-1.46,1.23,9.04,0.28,0.11,0.81
1267,-1.46,1.23,9.04,0.23,0.10,0.68
1272,-1.46,1.23,9.04,0.21,0.10,0.63
1277,-2.57,-0.27,7.09,0.21,0.10,0.63
1282,-2.57,-0.27,7.09,0.17,-0.00,0.53
1287,-2.57,-0.27,7.09,0.14,-0.10,0.50
1291,4.71,-2.26,12.68,0.14,-0.10,0.50
1296,6.28,-1.65,13.37,0.14,-0.10,0.50
1301,5.98,-0.08,14.44,0.14,-0.10,0.50
1307,5.98,-0.08,14.44,0.06,0.29,0.54
1312,1.04,-0.11,12.06,0.06,0.29,0.54
1317,1.04,-0.11,12.06,0.11,0.22,0.57
1322,1.04,-0.11,12.06,0.15,0.11,0.55
1328,-0.57,-1.65,10.88,0.15,0.11,0.55
1331,-0.57,-1.65,10.88,0.21,0.13,0.65
1337,-0.57,-1.65,10.88,0.23,0.17,0.69
1342,-0.57,-1.65,10.88,0.24,0.17,0.67
1347,-1.68,1.04,6.16,0.24,0.17,0.67
1352,-1.68,1.04,6.16,0.19,0.12,0.60
1357,-1.68,1.04,6.16,0.15,0.07,0.51
1362,-1.23,1.57,8.16,0.15,0.07,0.51
1367,-1.23,1.57,8.16,0.04,-0.06,0.39
1372,-1.23,1.57,8.16,0.03,-0.09,0.38
1377,-1.23,1.57,8.16,0.01,-0.00,0.38
1382,1.65,-1.19,12.45,0.01,-0.00,0.38
1387,1.65,-1.19,12.45,0.04,0.16,0.40
1392,1.65,-1.19,12.45,0.08,0.12,0.46
1397,1.91,-1.91,13.03,0.08,0.12,0.46
1402,1.91,-1.91,13.03,0.14,0.12,0.53
1407,1.91,-1.91,13.03,0.16,0.18,0.58
1412,-1.27,-0.38,10.38,0.16,0.18,0.58
1417,-1.61,-0.38,9.46,0.16,0.18,0.58
1422,-1.61,-0.38,9.46,0.21,0.21,0.61
1427,-1.61,-0.38,9.46,0.19,0.19,0.59
1432,-1.57,0.08,7.89,0.19,0.19,0.59
1437,-1.57,0.08,7.89,0.13,0.09,0.53
1442,-1.57,0.08,7.89,0.07,0.01,0.54
1448,-1.38,-0.08,9.00,0.07,0.01,0.54
1451,-1.38,-0.08,9.00,0.05,-0.01,0.54
1456,-1.38,-0.08,9.00,0.04,0.08,0.49
1462,0.23,-0.54,9.12,0.04,0.08,0.49
1467,-0.96,1.68,9.77,0.04,0.08,0.49
1471,-0.96,1.68,9.77,0.12,0.16,0.52
1477,-0.96,1.68,9.77,0.09,0.10,0.59
1483,-0.30,3.95,11.76,0.09,0.10,0.59
1487,-0.30,3.95,11.76,0.00,0.20,0.70
1492,-0.30,3.95,11.76,0.03,0.22,0.69
1497,-0.30,3.95,11.76,0.04,0.31,0.76
1502,-4.45,2.68,8.36,0.04,0.31,0.76
1507,-4.45,2.68,8.36,0.04,0.35,0.68
1512,-4.45,2.68,8.36,0.02,0.25,0.59
1517,-4.45,2.68,8.36,0.00,0.12,0.58
1522,-4.45,2.68,8.36,-0.03,0.03,0.60
1527,-4.45,2.68,8.36,-0.07,0.00,0.60
1532,-4.45,2.68,8.36,-0.11,-0.02,0.54
1537,-0.34,-1.84,11.34,-0.11,-0.02,0.54
1542,-0.34,-1.84,11.34,-0.09,0.11,0.37
1547,-0.34,-1.84,11.34,-0.08,0.25,0.31
1552,-0.34,-1.84,11.34,-0.02,0.30,0.31
1557,-0.34,-1.84,11.34,0.03,0.24,0.35
1562,-0.34,-1.84,11.34,0.05,0.13,0.39
1567,-0.34,-1.84,11.34,0.07,0.06,0.39
1572,1.72,-4.25,10.07,0.07,0.06,0.39
1577,1.72,-4.25,10.07,0.08,0.12,0.43
1582,1.72,-4.25,10.07,0.09,0.16,0.44
1587,1.72,-4.25,10.07,0.10,0.14,0.49
1592,1.72,-4.25,10.07,0.11,0.09,0.57
1597,1.72,-4.25,10.07,0.10,0.12,0.61
1601,1.72,-4.25,10.07,0.05,0.20,0.63
1607,3.60,1.68,11.03,0.05,0.20,0.63
1611,3.60,1.68,11.03,0.06,0.19,0.72
1616,3.60,1.68,11.03,0.07,0.15,0.78
1621,3.60,1.68,11.03,0.07,0.13,0.85
1626,4.64,1.23,11.19,0.07,0.13,0.85
1632,4.64,1.23,11.19,0.06,0.12,0.93
1637,4.64,1.23,11.19,0.04,0.11,1.03
1642,4.64,1.23,11.19,0.04,0.14,1.09
1647,4.64,1.23,11.19,0.03,0.20,1.12
1652,4.64,1.23,11.19,0.02,0.26,1.08
1657,-0.54,1.57,10.30,0.02,0.26,1.08
1662,-0.54,1.57,10.30,-0.01,0.27,1.01
1667,-0.54,1.57,10.30,-0.02,0.23,1.00
1672,-0.54,1.57,10.30,-0.04,0.19,0.98
1677,-0.54,1.57,10.30,-0.08,0.13,0.92
1682,-0.54,1.57,10.30,-0.13,0.05,0.81
1687,-0.54,1.57,10.30,-0.19,0.00,0.71
1692,1.30,5.67,12.68,-0.19,0.00,0.71
1697,1.30,5.67,12.68,-0.17,0.02,0.66
1702,1.30,5.67,12.68,-0.24,0.22,0.66
1707,1.30,5.67,12.68,-0.23,0.33,0.52
1712,1.30,5.67,12.68,-0.17,0.30,0.47
1717,1.30,5.67,12.68,-0.15,0.26,0.55
1722,1.30,5.67,12.68,-0.21,0.29,0.53
1728,-0.46,3.56,9.96,-0.21,0.29,0.53
1732,-0.46,3.56,9.96,-0.40,0.31,0.15
1737,-0.46,3.56,9.96,-0.44,0.36,0.06
1742,-0.46,3.56,9.96,-0.44,0.36,-0.00
1747,-0.46,3.56,9.96,-0.40,0.30,-0.00
1752,-0.46,3.56,9.96,-0.32,0.25,0.06
1757,-0.46,3.56,9.96,-0.25,0.23,0.09
1762,-1.91,3.33,6.02,-0.25,0.23,0.09
1767,-1.91,3.33,6.02,-0.21,0.22,0.01
1772,-1.91,3.33,6.02,-0.25,0.27,0.00
1777,-1.91,3.33,6.02,-0.30,0.27,-0.04
1782,-1.91,3.33,6.02,-0.36,0.26,-0.07
1787,-1.91,3.33,6.02,-0.41,0.25,-0.07
1791,-1.91,3.33,6.02,-0.44,0.24,-0.06
1797,1.34,-0.23,10.38,-0.44,0.24,-0.06
1802,1.34,-0.23,10.38,-0.39,0.15,-0.02
1807,1.34,-0.23,10.38,-0.37,0.14,-0.01
1812,1.34,-0.23,10.38,-0.36,0.12,-0.05
1817,1.34,-0.23,10.38,-0.34,0.12,-0.06
1822,1.34,-0.23,10.38,-0.33,0.19,-0.05
1826,1.34,-0.23,10.38,-0.34,0.26,-0.08
1832,0.11,1.38,12.64,-0.34,0.26,-0.08
1837,0.11,1.38,12.64,-0.36,0.36,-0.10
1842,0.11,1.38,12.64,-0.37,0.36,-0.10
1847,-1.11,1.38,10.61,-0.37,0.36,-0.10
1852,-1.11,1.38,10.61,-0.36,0.29,-0.11
1857,-1.11,1.38,10.61,-0.34,0.24,-0.13
1862,-1.11,1.38,10.61,-0.33,0.17,-0.17
1867,-1.11,1.38,10.61,-0.32,0.13,-0.19
1872,-1.11,1.38,10.61,-0.31,0.11,-0.20
1877,-1.11,1.38,10.61,-0.32,0.08,-0.25
1882,-2.38,-0.19,8.01,-0.32,0.08,-0.25
1887,-2.38,-0.19,8.01,-0.30,0.12,-0.24
1892,-2.38,-0.19,8.01,-0.29,0.12,-0.27
1897,-2.38,-0.19,8.01,-0.29,0.12,-0.30
1902,-2.38,-0.19,8.01,-0.28,0.14,-0.32
1907,-2.38,-0.19,8.01,-0.28,0.09,-0.37
1912,-2.38,-0.19,8.01,-0.27,0.02,-0.37
1917,0.23,-3.83,11.07,-0.27,0.02,-0.37
1922,0.23,-3.83,11.07,-0.18,-0.07,-0.29
1927,0.23,-3.83,11.07,-0.14,0.04,-0.23
1932,0.23,-3.83,11.07,-0.13,0.23,-0.25
1937,0.23,-3.83,11.07,-0.08,0.24,-0.28
1942,0.23,-3.83,11.07,-0.01,0.18,-0.23
1946,0.23,-3.83,11.07,0.04,0.12,-0.14
1952,0.19,-2.07,7.55,0.04,0.12,-0.14
1957,0.19,-2.07,7.55,0.07,0.00,-0.09
1962,0.19,-2.07,7.55,0.08,-0.01,-0.03
1967,0.19,-2.07,7.55,0.08,-0.02,0.01
1972,0.19,-2.07,7.55,0.06,-0.02,-0.00
1977,0.19,-2.07,7.55,0.08,0.00,0.01
1981,0.19,-2.07,7.55,0.10,0.04,0.03
1987,0.77,-1.61,8.81,0.10,0.04,0.03
1992,0.77,-1.61,8.81,0.12,0.04,0.10
1997,0.77,-1.61,8.81,0.14,0.02,0.17
2002,0.77,-1.61,8.81,0.15,0.01,0.22
2007,0.77,-1.61,8.81,0.18,0.02,0.27
2012,0.77,-1.61,8.81,0.21,0.04,0.30
2016,0.77,-1.61,8.81,0.25,0.05,0.33
2022,-1.11,-1.38,10.04,0.25,0.05,0.33
2027,-1.11,-1.38,10.04,0.29,0.06,0.42
2032,-1.11,-1.38,10.04,0.28,0.01,0.43
2037,-1.11,-1.38,10.04,0.29,-0.05,0.46
2042,-1.11,-1.38,10.04,0.30,-0.09,0.51
2047,-1.11,-1.38,10.04,0.30,-0.11,0.55
2051,-1.11,-1.38,10.04,0.30,-0.09,0.57
2057,-0.69,-1.23,10.54,0.30,-0.09,0.57
2062,-0.69,-1.23,10.54,0.29,0.01,0.54
2067,-0.69,-1.23,10.54,0.28,0.02,0.52
2072,-0.69,-1.23,10.54,0.30,0.01,0.53
2077,-0.69,-1.23,10.54,0.31,-0.01,0.53
2082,-0.69,-1.23,10.54,0.32,-0.06,0.54
2087,-0.69,-1.23,10.54,0.32,-0.11,0.56
2092,-0.69,-1.23,10.54,0.31,-0.15,0.59
2097,-0.69,-1.23,10.54,0.30,-0.19,0.59
2101,-0.69,-1.23,10.54,0.27,-0.16,0.62
2107,3.22,-0.50,15.13,0.27,-0.16,0.62
2112,3.22,-0.50,15.13,0.23,0.13,0.70
2117,3.22,-0.50,15.13,0.24,0.14,0.76
2122,3.22,-0.50,15.13,0.29,0.12,0.91
2127,3.22,-0.50,15.13,0.37,0.12,1.02
2132,3.22,-0.50,15.13,0.40,0.14,1.06
2136,3.22,-0.50,15.13,0.43,0.17,1.09
2142,-5.10,0.00,4.94,0.43,0.17,1.09
2147,-5.10,0.00,4.94,0.48,0.25,1.05
2151,-5.10,0.00,4.94,0.44,0.15,0.97
2156,-5.10,0.00,4.94,0.42,-0.01,0.97
2161,-0.65,-1.23,5.21,0.42,-0.01,0.97
2167,-0.65,-1.23,5.21,0.37,-0.19,1.00
2172,-0.65,-1.23,5.21,0.20,-0.43,1.01
2177,2.03,0.42,12.72,0.20,-0.43,1.01
2182,2.03,0.42,12.72,0.16,0.04,0.81
2187,2.03,0.42,12.72,0.12,0.36,0.79
2191,2.03,0.42,12.72,0.14,0.35,0.75
2197,-2.80,-2.72,11.38,0.14,0.35,0.75
2202,-2.80,-2.72,11.38,0.24,0.01,0.79
2206,-2.80,-2.72,11.38,0.29,-0.07,0.84
2212,-0.84,-1.88,11.38,0.29,-0.07,0.84
2217,-0.84,-1.88,11.38,0.30,0.10,0.89
2222,-0.84,-1.88,11.38,0.27,0.20,0.83
2227,-0.84,-1.88,11.38,0.23,0.17,0.77
2232,-1.65,-0.46,8.82,0.23,0.17,0.77
2237,-1.65,-0.46,8.82,0.19,0.09,0.69
2241,-1.65,-0.46,8.82,0.17,0.09,0.58
2247,-0.65,-0.88,10.45,0.17,0.09,0.58
2252,-0.65,-0.88,10.45,0.16,0.17,0.57
2257,-0.65,-0.88,10.45,0.13,0.21,0.50
2262,-0.65,-0.88,10.45,0.10,0.18,0.39
2267,-0.08,1.38,8.42,0.10,0.18,0.39
2272,-0.08,1.38,8.42,0.05,0.04,0.34
2276,-0.08,1.38,8.42,0.04,0.08,0.35
2282,2.45,1.65,11.11,0.04,0.08,0.35
2287,2.45,1.65,11.11,-0.01,0.21,0.32
2291,2.45,1.65,11.11,-0.01,0.29,0.37
2297,2.45,1.65,11.11,0.01,0.33,0.35
2302,2.45,1.65,11.11,-0.00,0.35,0.28
2307,2.45,1.65,11.11,0.01,0.36,0.22
2311,2.45,1.65,11.11,-0.01,0.31,0.20
2317,-1.15,-0.69,10.15,-0.01,0.31,0.20
2322,-1.15,-0.69,10.15,-0.03,0.00,0.27
2326,-1.15,-0.69,10.15,-0.05,-0.15,0.36
2332,-1.15,-0.69,10.15,-0.09,-0.27,0.38
2337,-1.15,-0.69,10.15,-0.07,-0.29,0.41
2342,-1.15,-0.69,10.15,0.01,-0.04,0.41
2346,-1.15,-0.69,10.15,-0.02,0.36,0.36
2352,-2.80,2.18,9.73,-0.02,0.36,0.36
2357,-2.80,2.18,9.73,0.05,0.49,0.36
2361,-2.80,2.18,9.73,0.02,0.36,0.36
2367,-3.33,-1.99,10.00,0.02,0.36,0.36
2372,-3.33,-1.99,10.00,-0.04,0.06,0.41
2377,-3.33,-1.99,10.00,-0.04,-0.08,0.41
2381,-3.33,-1.99,10.00,-0.03,-0.14,0.43
2387,0.11,-0.11,8.46,-0.03,-0.14,0.43
2392,0.11,-0.11,8.46,-0.01,-0.12,0.39
2396,0.11,-0.11,8.46,-0.02,0.07,0.35
2402,1.23,-1.23,9.92,-0.02,0.07,0.35
2407,1.23,-1.23,9.92,-0.02,0.33,0.39
2412,1.23,-1.23,9.92,0.03,0.26,0.42
2417,1.23,-1.23,9.92,0.05,0.19,0.50
2422,-0.65,-1.46,9.00,0.05,0.19,0.50
2427,-0.65,-1.46,9.00,0.07,0.02,0.62
2431,-0.65,-1.46,9.00,0.07,-0.05,0.64
2437,2.99,-1.15,9.20,0.07,-0.05,0.64
2442,2.99,-1.15,9.20,0.11,-0.03,0.74
2447,2.99,-1.15,9.20,0.11,0.14,0.77
2451,2.99,-1.15,9.20,0.08,0.26,0.76
2457,-0.46,-0.27,11.26,0.08,0.26,0.76
2462,-0.46,-0.27,11.26,0.08,0.13,0.77
2466,-0.46,-0.27,11.26,0.10,0.04,0.80
2472,-0.46,-1.76,10.45,0.10,0.04,0.80
2476,-0.46,-1.76,10.45,0.12,-0.00,0.87
2481,0.30,-1.30,10.73,0.12,-0.00,0.87
2487,0.30,-1.30,10.73,0.11,0.04,0.84
2492,3.18,-1.91,13.07,0.11,0.04,0.84
2497,3.18,-1.91,13.07,0.08,0.07,0.85
2501,3.18,-1.91,13.07,0.11,0.08,0.89
2507,2.72,-0.08,11.57,0.11,0.08,0.89
2512,2.72,-0.08,11.57,0.09,0.23,0.88
2516,2.72,-0.08,11.57,0.09,0.24,0.84
2522,2.72,-0.08,11.57,0.08,0.21,0.83
2526,2.72,-0.08,11.57,0.06,0.18,0.77
2532,2.72,-0.08,11.57,0.04,0.16,0.71
2536,2.72,-0.08,11.57,0.02,0.18,0.69
2542,-1.42,0.27,7.55,0.02,0.18,0.69
2546,-1.42,0.27,7.55,-0.04,0.19,0.54
2551,-1.42,0.27,7.55,-0.07,0.15,0.46
2557,-1.42,0.27,7.55,-0.09,0.11,0.41
2562,-1.42,0.27,7.55,-0.13,0.05,0.31
2567,-1.42,0.27,7.55,-0.15,0.05,0.29
2571,-1.42,0.27,7.55,-0.18,0.16,0.26
2577,3.95,0.08,10.65,-0.18,0.16,0.26
2582,3.95,0.08,10.65,-0.18,0.23,0.25
2586,3.95,0.08,10.65,-0.17,0.27,0.28
2592,3.95,0.08,10.65,-0.17,0.29,0.21
2597,3.95,0.08,10.65,-0.14,0.25,0.20
2601,3.95,0.08,10.65,-0.13,0.25,0.22
2607,3.95,0.08,10.65,-0.11,0.26,0.24
2612,-1.00,1.91,9.73,-0.11,0.26,0.24
2617,-1.00,1.91,9.73,-0.12,0.24,0.20
2621,-1.00,1.91,9.73,-0.13,0.18,0.20
2627,-1.30,2.87,9.35,-0.13,0.18,0.20
2632,-1.30,2.87,9.35,-0.16,0.18,0.21
2636,-1.30,2.87,9.35,-0.18,0.21,0.14
2642,-1.30,2.87,9.35,-0.19,0.28,0.09
2647,-5.79,3.91,8.50,-0.19,0.28,0.09
2652,-5.79,3.91,8.50,-0.20,0.34,-0.07
2656,-5.79,3.91,8.50,-0.20,0.24,-0.13
2662,-2.61,0.54,7.77,-0.20,0.24,-0.13
2666,-2.61,0.54,7.77,-0.23,0.02,-0.10
2671,-2.61,0.54,7.77,-0.28,-0.10,-0.12
2677,-2.61,0.54,7.77,-0.27,-0.14,-0.12
2682,0.42,1.00,7.74,-0.27,-0.14,-0.12
2687,0.42,1.00,7.74,-0.22,0.20,-0.22
2692,0.42,1.00,7.74,-0.21,0.39,-0.23
2697,-3.14,-0.46,7.89,-0.21,0.39,-0.23
2702,-3.14,-0.46,7.89,-0.13,0.23,-0.34
2706,-3.14,-0.46,7.89,-0.12,0.09,-0.27
2712,-3.14,-0.46,7.89,-0.09,-0.03,-0.16
2717,1.30,-1.68,11.03,-0.09,-0.03,-0.16
2722,1.30,-1.68,11.03,-0.05,-0.13,-0.05
2726,1.30,-1.68,11.03,-0.05,0.03,-0.07
2732,0.88,0.23,10.27,-0.05,0.03,-0.07
2737,0.88,0.23,10.27,-0.03,0.33,-0.04
2741,0.88,0.23,10.27,0.05,0.31,-0.03
2746,0.88,0.23,10.27,0.09,0.25,-0.00
2752,-3.52,-1.88,7.13,0.09,0.25,-0.00
2757,-3.52,-1.88,7.13,0.15,0.17,0.16
2762,-3.52,-1.88,7.13,0.14,0.13,0.18
2767,-3.60,-0.30,7.39,0.14,0.13,0.18
2772,-3.60,-0.30,7.39,0.12,-0.04,0.17
2776,-3.60,-0.30,7.39,0.10,-0.14,0.18
2782,-3.60,-0.30,7.39,0.10,-0.20,0.22
2786,-3.60,-0.30,7.39,0.11,-0.23,0.26
2791,-3.60,-0.30,7.39,0.17,-0.18,0.32
2797,-3.60,-0.30,7.39,0.21,0.01,0.42
2802,1.42,-2.30,10.88,0.21,0.01,0.42
2807,1.42,-2.30,10.88,0.27,0.17,0.54
2811,1.42,-2.30,10.88,0.32,0.12,0.59
2817,1.42,-2.30,10.88,0.32,0.03,0.61
2822,1.42,-2.30,10.88,0.34,-0.08,0.67
2827,1.42,-2.30,10.88,0.36,-0.13,0.80
2832,1.42,-2.30,10.88,0.38,-0.15,0.90
2837,3.18,-1.91,11.11,0.38,-0.15,0.90
2842,3.18,-1.91,11.11,0.35,-0.00,0.96
2846,3.18,-1.91,11.11,0.36,0.09,0.99
2852,0.61,-1.42,9.69,0.36,0.09,0.99
2857,0.61,-1.42,9.69,0.35,0.02,0.99
2861,0.61,-1.42,9.69,0.36,-0.03,0.99
2866,0.61,-1.42,9.69,0.36,-0.06,0.99
2872,-1.00,-1.65,10.07,0.36,-0.06,0.99
2877,-1.00,-1.65,10.07,0.34,-0.02,1.01
2881,-1.00,-1.65,10.07,0.31,-0.04,0.99
2887,3.91,-2.91,12.72,0.31,-0.04,0.99
2891,3.91,-2.91,12.72,0.31,0.01,1.12
2896,3.91,-2.91,12.72,0.30,0.09,1.09
2901,3.91,-2.91,12.72,0.33,0.13,1.13
2906,-1.65,0.27,10.23,0.33,0.13,1.13
2912,-1.65,0.27,10.23,0.34,0.15,1.11
2917,-1.65,0.27,10.23,0.34,0.11,1.06
2922,-1.65,0.27,10.23,0.33,0.08,1.07
2927,-1.65,0.27,10.23,0.32,0.05,1.13
2931,-1.65,0.27,10.23,0.31,0.05,1.15
2937,-1.65,0.27,10.23,0.29,0.09,1.13
2942,0.30,0.54,9.84,0.29,0.09,1.13
2947,0.30,0.54,9.84,0.22,0.16,1.06
2952,0.30,0.54,9.84,0.20,0.15,0.99
2957,0.30,0.54,9.84,0.18,0.17,0.93
2962,0.30,0.54,9.84,0.16,0.21,0.91
2966,0.30,0.54,9.84,0.14,0.22,0.87
2972,-1.91,0.11,9.88,0.14,0.22,0.87
2977,-0.88,-0.27,10.80,0.14,0.22,0.87
2981,-0.88,-0.27,10.80,0.07,0.13,0.80
2987,-0.88,-0.27,10.80,0.07,0.13,0.78
2992,-1.42,1.07,10.42,0.07,0.13,0.78
2997,-1.42,1.07,10.42,0.02,0.18,0.70
3001,-1.42,1.07,10.42,0.04,0.18,0.66
3007,-2.38,2.07,5.60,0.04,0.18,0.66
3012,-2.38,2.07,5.60,0.02,0.12,0.53
3016,-2.38,2.07,5.60,0.03,0.10,0.45
3022,-2.38,2.07,5.60,0.02,0.10,0.38
3027,-1.91,0.77,6.71,0.02,0.10,0.38
3032,-1.91,0.77,6.71,-0.11,-0.04,0.23
3036,-1.91,0.77,6.71,-0.17,-0.04,0.25
3042,14.94,-4.14,32.91,-0.17,-0.04,0.25
3046,14.94,-4.14,32.91,-0.25,0.49,0.60
3051,14.94,-4.14,32.91,-0.24,0.70,0.67
3057,14.94,-4.14,32.91,-0.14,0.70,0.72
3062,14.94,-4.14,32.91,-0.02,0.71,0.73
3067,14.94,-4.14,32.91,0.11,0.76,0.67
3072,14.94,-4.14,32.91,0.22,0.76,0.57
3077,14.94,-4.14,32.91,0.32,0.68,0.53
3082,14.94,-4.14,32.91,0.31,0.53,0.57
3086,14.94,-4.14,32.91,0.19,0.32,0.65
3092,14.94,-4.14,32.91,-0.04,0.06,0.64
3097,-1.34,5.59,9.35,-0.04,0.06,0.64
3102,-1.34,5.59,9.35,-0.49,-0.32,0.34
3106,-1.34,5.59,9.35,-0.62,-0.42,0.11
3112,4.02,-0.46,15.55,-0.62,-0.42,0.11
3117,4.02,-0.46,15.55,-0.38,0.25,0.05
3121,4.02,-0.46,15.55,-0.37,0.81,0.14
3126,4.02,-0.46,15.55,-0.28,0.88,0.14
3132,-2.30,0.34,10.53,-0.28,0.88,0.14
3136,-2.30,0.34,10.53,-0.03,0.39,0.31
3142,-2.30,0.34,10.53,0.00,0.23,0.47
3147,-2.22,2.11,7.73,0.00,0.23,0.47
3151,-2.22,2.11,7.73,-0.03,0.12,0.50
3156,-2.22,2.11,7.73,-0.06,0.16,0.49
3162,-3.48,2.76,4.86,-0.06,0.16,0.49
3166,-3.48,2.76,4.86,-0.16,0.32,0.45
3171,-3.48,2.76,4.86,-0.21,0.33,0.35
3177,-3.48,2.76,4.86,-0.23,0.27,0.23
3182,-4.41,2.11,3.56,-0.23,0.27,0.23
3186,-4.41,2.11,3.56,-0.23,0.06,0.14
3191,-4.41,2.11,3.56,-0.25,-0.04,0.14
3196,-4.41,2.11,3.56,-0.22,-0.06,0.15
3201,10.88,-3.07,18.20,-0.22,-0.06,0.15
3206,10.88,-3.07,18.20,-0.23,0.35,0.35
3212,10.88,-3.07,18.20,-0.23,0.60,0.53
3217,6.17,-1.46,19.69,-0.23,0.60,0.53
3221,6.17,-1.46,19.69,-0.11,0.81,0.76
3226,6.17,-1.46,19.69,0.00,0.91,0.71
3231,-21.18,4.29,9.31,0.00,0.91,0.71
3237,-19.88,1.00,7.47,0.00,0.91,0.71
3241,-19.88,1.00,7.47,0.16,0.96,0.25
3247,-19.88,1.00,7.47,0.14,0.49,0.30
3251,-19.88,1.00,7.47,0.03,-0.17,0.48
3256,-19.88,1.00,7.47,-0.12,-0.79,0.68
3261,-19.88,1.00,7.47,-0.29,-1.21,0.73
3267,5.75,5.55,6.97,-0.29,-1.21,0.73
3271,5.75,5.55,6.97,0.05,-0.92,0.39
3276,5.75,5.55,6.97,-0.21,0.50,0.25
3282,5.75,5.55,6.97,-0.45,1.17,0.22
3286,5.75,5.55,6.97,-0.17,0.92,0.22
3291,5.75,5.55,6.97,-0.07,0.48,0.38
3296,5.75,5.55,6.97,-0.06,0.08,0.69
3302,3.14,-3.52,14.33,-0.06,0.08,0.69
3306,3.14,-3.52,14.33,-0.02,-0.22,1.10
3311,3.14,-3.52,14.33,0.03,-0.16,1.05
3317,3.14,-3.52,14.33,0.03,-0.02,0.85
3321,3.14,-3.52,14.33,0.01,0.08,0.59
3326,3.14,-3.52,14.33,-0.02,0.12,0.39
3332,3.14,-3.52,14.33,-0.05,0.07,0.34
3337,3.14,-3.52,14.33,-0.07,-0.04,0.44
3341,3.14,-3.52,14.33,-0.10,-0.17,0.56
3346,3.14,-3.52,14.33,-0.14,-0.21,0.57
3351,3.14,-3.52,14.33,-0.20,-0.09,0.51
3357,11.03,-2.61,20.84,-0.20,-0.09,0.51
3361,11.03,-2.61,20.84,-0.22,0.41,0.65
3366,11.03,-2.61,20.84,-0.15,0.49,0.70
3372,-0.19,1.68,6.75,-0.15,0.49,0.70
3376,-0.19,1.68,6.75,0.09,0.45,0.85
3381,-0.19,1.68,6.75,0.20,0.45,0.83
3387,-0.19,1.68,6.75,0.26,0.49,0.82
3391,-0.19,1.68,6.75,0.24,0.50,0.82
3396,-0.19,1.68,6.75,0.13,0.46,0.81
3401,-0.19,1.68,6.75,-0.01,0.34,0.74
3407,-11.68,1.49,7.82,-0.01,0.34,0.74
3411,-11.68,1.49,7.82,-0.26,-0.01,0.41
3416,-11.68,1.49,7.82,-0.33,-0.25,0.20
3422,-2.41,2.61,7.28,-0.33,-0.25,0.20
3426,-2.41,2.61,7.28,-0.43,-0.63,0.04
3431,-2.41,2.61,7.28,-0.28,-0.60,0.09
3437,-2.41,2.61,7.28,-0.23,-0.22,0.12
3441,-2.41,2.61,7.28,-0.31,0.34,0.21
3446,-2.41,2.61,7.28,-0.36,0.63,0.29
3451,-2.41,2.61,7.28,-0.27,0.51,0.28
3457,-2.41,2.61,7.28,-0.22,0.26,0.33
3461,-2.41,2.61,7.28,-0.18,0.14,0.48
3466,-2.41,2.61,7.28,-0.15,0.11,0.59
3471,-2.41,2.61,7.28,-0.13,0.07,0.62
3477,-2.41,2.61,7.28,-0.10,0.09,0.65
3481,-2.41,2.61,7.28,-0.07,0.20,0.70
3486,-2.41,2.61,7.28,-0.08,0.34,0.65
3492,-7.20,6.24,8.04,-0.08,0.34,0.65
3496,-7.20,6.24,8.04,-0.24,0.45,0.29
3501,-7.20,6.24,8.04,-0.30,0.36,0.05
3507,-7.20,6.24,8.04,-0.35,0.17,-0.09
3511,-7.20,6.24,8.04,-0.37,-0.09,-0.07
3516,-7.20,6.24,8.04,-0.38,-0.30,0.02
3521,-7.20,6.24,8.04,-0.38,-0.42,0.08
3527,4.64,4.02,9.31,-0.38,-0.42,0.08
3531,4.64,4.02,9.31,-0.32,0.21,-0.10
3536,4.64,4.02,9.31,-0.43,0.66,-0.19
3542,4.64,4.02,9.31,-0.36,0.71,-0.31
3546,4.64,4.02,9.31,-0.32,0.59,-0.39
3551,4.64,4.02,9.31,-0.28,0.40,-0.42
3556,4.64,4.02,9.31,-0.30,0.13,-0.39
3561,4.64,4.02,9.31,-0.31,-0.24,-0.30
3566,4.18,-3.68,10.91,-0.31,-0.24,-0.30
3572,7.93,-1.95,9.69,-0.31,-0.24,-0.30
3577,7.93,-1.95,9.69,-0.23,-0.81,-0.05
3581,6.09,2.68,12.18,-0.23,-0.81,-0.05
3586,3.45,2.84,10.07,-0.23,-0.81,-0.05
3591,3.45,2.84,10.07,-0.29,0.80,-0.11
3597,3.45,2.84,10.07,-0.11,0.70,-0.08
3601,3.45,2.84,10.07,-0.06,0.47,-0.00
3606,3.45,2.84,10.07,-0.04,0.24,0.15
3611,3.45,2.84,10.07,-0.04,0.06,0.34
3617,0.50,-1.15,6.20,-0.04,0.06,0.34
3621,0.50,-1.15,6.20,-0.04,-0.13,0.43
3627,0.50,-1.15,6.20,-0.04,-0.07,0.33
3631,0.50,-1.15,6.20,-0.02,0.04,0.20
3636,0.50,-1.15,6.20,0.01,0.14,0.04
3641,0.50,-1.15,6.20,-0.04,0.13,-0.12
3647,0.50,-1.15,6.20,-0.16,-0.06,-0.29
3652,0.50,-1.15,6.20,-0.39,-0.52,-0.36
3656,15.02,-8.54,33.82,-0.39,-0.52,-0.36
3661,15.02,-8.54,33.82,-0.03,-0.87,0.16
3667,12.07,-1.99,33.25,-0.03,-0.87,0.16
3672,12.07,-1.99,33.25,-0.38,1.00,0.48
3676,-2.53,3.56,9.00,-0.38,1.00,0.48
3681,-2.53,3.56,9.00,-0.02,0.88,0.47
3686,-2.53,3.56,9.00,0.15,0.64,0.52
3691,-2.53,3.56,9.00,0.37,0.40,0.63
3697,-2.53,3.56,9.00,0.49,0.06,0.76
3702,-2.53,3.56,9.00,0.50,-0.40,0.93
3706,4.86,2.41,7.28,0.50,-0.40,0.93
3711,4.86,2.41,7.28,0.17,-1.10,1.16
3717,4.86,2.41,7.28,0.02,-1.09,1.04
3721,4.86,2.41,7.28,-0.04,-0.34,0.69
3726,4.86,2.41,7.28,-0.28,0.77,0.48
3731,4.86,2.41,7.28,-0.30,1.13,0.38
3737,4.86,2.41,7.28,0.08,0.99,0.33
3741,4.86,2.41,7.28,0.11,0.69,0.34
3747,4.86,2.41,7.28,0.06,0.30,0.37
3752,4.86,2.41,7.28,0.02,-0.17,0.35
3756,6.51,-2.38,11.76,0.02,-0.17,0.35
3761,6.51,-2.38,11.76,-0.08,-0.96,0.36
3767,6.51,-2.38,11.76,0.21,-0.89,0.49
3772,6.51,-2.38,11.76,0.11,-0.01,0.61
3776,-2.18,1.95,16.16,0.11,-0.01,0.61
3781,-2.18,1.95,16.16,-0.09,1.00,0.54
3787,-2.64,-1.99,10.23,-0.09,1.00,0.54
3791,-0.54,-2.87,6.40,-0.09,1.00,0.54
3796,1.46,-2.57,8.16,-0.09,1.00,0.54
3802,1.46,-2.57,8.16,0.13,-0.02,0.80
3807,1.46,-2.57,8.16,0.11,-0.24,0.87
3811,1.99,2.80,9.50,0.11,-0.24,0.87
3816,1.99,2.80,9.50,0.02,-0.40,0.92
3822,0.69,3.52,9.93,0.02,-0.40,0.92
3827,0.69,3.52,9.93,-0.02,-0.19,0.87
3831,10.57,-2.68,8.85,-0.02,-0.19,0.87
3837,11.11,-3.79,8.23,-0.02,-0.19,0.87
3841,11.11,-3.79,8.23,-0.02,0.45,0.98
3846,11.11,-3.79,8.23,-0.01,0.61,0.99
3851,11.11,-3.79,8.23,0.05,0.68,0.87
3857,11.11,-3.79,8.23,0.04,0.74,0.70
3862,11.11,-3.79,8.23,-0.02,0.78,0.49
3866,-7.89,-2.22,14.33,-0.02,0.78,0.49
3871,-1.23,-4.98,13.83,-0.02,0.78,0.49
3877,-1.23,-4.98,13.83,-0.30,-0.20,0.22
3882,-1.23,-4.98,13.83,-0.31,-0.67,0.39
3887,9.20,-2.84,10.69,-0.31,-0.67,0.39
3891,2.49,7.97,8.89,-0.31,-0.67,0.39
3896,-3.56,8.96,8.62,-0.31,-0.67,0.39
3902,-3.56,8.96,8.62,-0.25,1.22,0.34
3907,-3.56,8.96,8.62,-0.03,1.27,0.24
3911,-4.75,0.46,8.70,-0.03,1.27,0.24
3916,-2.80,-2.49,10.46,-0.03,1.27,0.24
3922,-2.80,-2.49,10.46,-0.25,0.22,0.21
3927,-2.80,-2.49,10.46,-0.28,-0.16,0.35
3931,1.88,1.88,8.74,-0.28,-0.16,0.35
3937,1.88,1.88,8.74,-0.36,-0.49,0.49
3942,1.88,1.88,8.74,-0.40,-0.44,0.44
3946,-1.07,7.16,11.64,-0.40,-0.44,0.44
3951,-0.88,6.51,11.34,-0.40,-0.44,0.44
3956,0.96,3.95,9.08,-0.40,-0.44,0.44
3962,0.96,3.95,9.08,-0.32,0.76,0.04
3966,-11.88,2.91,9.61,-0.32,0.76,0.04
3971,-8.20,2.11,9.12,-0.32,0.76,0.04
3976,-8.20,2.11,9.12,-0.29,0.45,0.20
3981,2.34,1.49,9.20,-0.29,0.45,0.20
3987,2.34,1.49,9.20,-0.39,0.21,0.10
3992,2.34,1.49,9.20,-0.55,-0.26,0.12
3997,2.34,1.49,9.20,-0.59,-0.31,0.12
4001,3.26,0.77,12.18,-0.59,-0.31,0.12
4006,4.75,0.57,10.15,-0.59,-0.31,0.12
4011,4.75,0.57,10.15,-0.44,0.13,0.00
4016,4.75,0.57,10.15,-0.43,0.44,0.11
4021,4.75,0.57,10.15,-0.37,0.49,0.09
4027,4.75,0.57,10.15,-0.36,0.38,0.03
4032,4.75,0.57,10.15,-0.34,0.23,0.03
4036,-1.91,-1.30,7.43,-0.34,0.23,0.03
4041,-0.08,0.34,8.62,-0.34,0.23,0.03
4046,-0.08,0.34,8.62,-0.35,-0.08,0.11
4051,-0.08,0.34,8.62,-0.44,-0.18,0.06
4056,-0.08,0.34,8.62,-0.44,-0.20,0.04
4062,-0.08,0.34,8.62,-0.45,0.03,0.05
4066,1.38,-0.50,9.27,-0.45,0.03,0.05
4071,-4.06,1.07,5.32,-0.45,0.03,0.05
4077,-4.06,1.07,5.32,-0.32,0.35,0.08
4082,-4.06,1.07,5.32,-0.31,0.27,0.05
4086,-2.22,-2.38,7.24,-0.31,0.27,0.05
4091,-0.30,-2.49,8.62,-0.31,0.27,0.05
4097,-0.30,-2.49,8.62,-0.29,-0.04,0.05
4102,-0.30,-2.49,8.62,-0.29,-0.14,0.13
4106,2.91,-0.61,10.54,-0.29,-0.14,0.13
4111,3.68,0.69,10.80,-0.29,-0.14,0.13
4116,2.11,0.23,10.23,-0.29,-0.14,0.13
4121,2.11,0.23,10.23,-0.36,0.27,0.19
4127,2.11,0.23,10.23,-0.33,0.28,0.17
4132,2.11,0.23,10.23,-0.26,0.24,0.18
4136,-6.12,1.76,3.03,-0.26,0.24,0.18
4141,-4.10,0.11,4.60,-0.26,0.24,0.18
4146,-2.45,-1.61,7.39,-0.26,0.24,0.18
4152,-2.45,-1.61,7.39,-0.33,-0.15,0.07
4156,6.09,-3.45,17.66,-0.33,-0.15,0.07
4161,7.32,-1.76,18.46,-0.33,-0.15,0.07
4167,7.32,-1.76,18.46,-0.33,-0.24,0.30
4171,2.49,0.65,13.11,-0.33,-0.24,0.30
4176,-1.53,0.50,10.00,-0.33,-0.24,0.30
4182,-1.53,0.50,10.00,-0.32,0.59,0.28
4187,-1.53,0.50,10.00,-0.20,0.49,0.29
4191,-3.98,-0.08,5.44,-0.20,0.49,0.29
4196,-3.41,-1.68,6.02,-0.20,0.49,0.29
4202,-3.41,-1.68,6.02,-0.19,0.05,0.29
4206,0.15,-0.34,8.35,-0.19,0.05,0.29
4211,0.46,1.49,8.93,-0.19,0.05,0.29
4217,0.77,1.99,9.46,-0.19,0.05,0.29
4221,3.10,3.68,12.34,-0.19,0.05,0.29
4226,2.49,3.29,12.83,-0.19,0.05,0.29
4231,2.49,3.29,12.83,-0.48,0.17,0.07
4237,2.49,3.29,12.83,-0.51,0.42,0.01
4241,2.49,3.29,12.83,-0.41,0.31,-0.02
4246,-2.45,0.08,6.44,-0.41,0.31,-0.02
4252,-2.45,0.08,6.44,-0.37,0.19,-0.02
4257,-2.45,0.08,6.44,-0.39,0.09,-0.07
4261,-1.99,-0.34,8.39,-0.39,0.09,-0.07
4266,0.34,0.08,9.46,-0.39,0.09,-0.07
4272,0.34,0.08,9.46,-0.42,-0.11,-0.16
4276,4.37,0.96,11.80,-0.42,-0.11,-0.16
4281,4.25,1.57,12.14,-0.42,-0.11,-0.16
4287,2.95,1.42,11.19,-0.42,-0.11,-0.16
4291,0.04,1.80,8.82,-0.42,-0.11,-0.16
4296,-3.14,2.03,8.16,-0.42,-0.11,-0.16
4302,-3.14,2.03,8.16,-0.39,0.32,-0.30
4307,-3.14,2.03,8.16,-0.37,0.26,-0.33
4311,-2.41,-0.57,7.89,-0.37,0.26,-0.33
4316,-0.46,-0.65,9.77,-0.37,0.26,-0.33
4322,0.34,-0.23,10.04,-0.37,0.26,-0.33
4326,0.11,1.11,10.88,-0.37,0.26,-0.33
4331,1.57,1.23,10.53,-0.37,0.26,-0.33
4336,5.59,-0.96,10.95,-0.37,0.26,-0.33
4342,5.59,-0.96,10.95,-0.44,-0.07,-0.39
4346,-1.11,1.68,9.50,-0.44,-0.07,-0.39
4351,-0.34,0.96,7.82,-0.44,-0.07,-0.39
4357,-0.34,0.96,7.82,-0.36,0.40,-0.41
4362,-8.58,0.92,6.70,-0.36,0.40,-0.41
4366,-8.58,0.92,6.70,-0.26,0.26,-0.40
4371,-6.51,1.19,7.86,-0.26,0.26,-0.40
4377,-3.68,1.00,8.70,-0.26,0.26,-0.40
4381,2.45,-1.72,10.31,-0.26,0.26,-0.40
4386,2.34,-0.57,10.77,-0.26,0.26,-0.40
4392,2.34,-0.57,10.77,-0.46,-0.44,-0.32
4396,5.44,-0.11,12.68,-0.46,-0.44,-0.32
4401,2.07,-0.08,12.10,-0.46,-0.44,-0.32
4407,-0.69,-0.15,11.04,-0.46,-0.44,-0.32
4411,-9.16,0.15,3.52,-0.46,-0.44,-0.32
4416,-8.50,-1.11,4.64,-0.46,-0.44,-0.32
4421,-8.77,-0.04,3.26,-0.46,-0.44,-0.32
4427,-8.77,-0.04,3.26,-0.06,0.29,-0.17
4431,-4.33,-0.92,3.56,-0.06,0.29,-0.17
4436,-4.33,-0.92,3.56,-0.18,-0.42,-0.18
4441,-1.11,-1.84,5.90,-0.18,-0.42,-0.18
4446,3.83,-1.34,10.19,-0.18,-0.42,-0.18
4452,3.83,-1.34,10.19,-0.27,-0.67,-0.18
4457,8.81,-0.15,19.39,-0.27,-0.67,-0.18
4461,4.56,-0.50,14.10,-0.27,-0.67,-0.18
4466,-1.84,-1.30,10.65,-0.27,-0.67,-0.18
4471,-6.82,-0.30,4.06,-0.27,-0.67,-0.18
4477,-4.79,-2.30,4.33,-0.27,-0.67,-0.18
4481,-4.10,-2.38,4.45,-0.27,-0.67,-0.18
4486,-1.84,-2.76,5.70,-0.27,-0.67,-0.18
4491,2.34,-3.95,7.63,-0.27,-0.67,-0.18
4497,4.41,-4.94,9.54,-0.27,-0.67,-0.18
4501,4.25,-3.10,12.72,-0.27,-0.67,-0.18
4506,5.67,-2.26,13.75,-0.27,-0.67,-0.18
4511,2.38,0.57,13.49,-0.27,-0.67,-0.18
4517,2.38,0.57,13.49,-0.07,0.26,0.18
4522,-3.64,1.76,4.02,-0.07,0.26,0.18
4526,-8.04,2.84,0.04,-0.07,0.26,0.18
4531,-2.95,1.23,4.18,-0.07,0.26,0.18
4536,3.79,0.27,7.55,-0.07,0.26,0.18
4541,6.70,-0.84,13.79,-0.07,0.26,0.18
4547,9.00,-0.73,16.59,-0.07,0.26,0.18
4552,7.09,0.11,19.69,-0.07,0.26,0.18
4556,7.09,0.11,19.69,-0.28,0.38,-0.05
4561,0.50,-2.87,13.33,-0.28,0.38,-0.05
4566,-3.07,-1.46,8.35,-0.28,0.38,-0.05
4571,-3.18,-0.50,7.55,-0.28,0.38,-0.05
4576,-2.07,-0.50,5.13,-0.28,0.38,-0.05
4582,-3.29,-1.04,4.41,-0.28,0.38,-0.05
4587,-3.45,-1.19,4.37,-0.28,0.38,-0.05
4591,-3.45,-1.19,4.37,0.04,-0.33,-0.27
4596,-2.38,-0.73,8.54,0.04,-0.33,-0.27
4601,-0.11,-0.54,11.03,0.04,-0.33,-0.27
4606,0.57,0.92,12.52,0.04,-0.33,-0.27
4611,0.54,2.57,13.29,0.04,-0.33,-0.27
4617,0.27,3.29,12.11,0.04,-0.33,-0.27
4622,2.76,1.95,9.08,0.04,-0.33,-0.27
4626,2.76,1.95,9.08,-0.29,-0.00,-0.62
4631,2.76,1.95,9.08,-0.25,-0.11,-0.59
4636,1.00,-0.50,7.39,-0.25,-0.11,-0.59
4641,-2.80,1.34,6.17,-0.25,-0.11,-0.59
4647,-5.13,1.27,6.59,-0.25,-0.11,-0.59
4651,-5.67,0.57,6.20,-0.25,-0.11,-0.59
4656,-7.32,0.42,8.01,-0.25,-0.11,-0.59
4661,-3.83,0.04,10.07,-0.25,-0.11,-0.59
4667,-3.18,-1.68,9.93,-0.25,-0.11,-0.59
4671,-0.57,-2.91,11.22,-0.25,-0.11,-0.59
4676,2.18,-2.11,10.73,-0.25,-0.11,-0.59
4682,4.41,-1.80,10.19,-0.25,-0.11,-0.59
4686,1.57,0.84,11.68,-0.25,-0.11,-0.59
4691,0.46,1.57,10.23,-0.25,-0.11,-0.59
4696,-1.84,0.88,8.31,-0.25,-0.11,-0.59
4702,-7.43,0.30,5.55,-0.25,-0.11,-0.59
4707,-6.93,0.42,8.85,-0.25,-0.11,-0.59
4711,-6.93,0.42,8.85,0.04,0.09,-0.22
4716,-0.42,-1.49,11.45,0.04,0.09,-0.22
4721,1.84,-0.84,12.99,0.04,0.09,-0.22
4726,2.49,-0.61,13.98,0.04,0.09,-0.22
4731,2.91,-0.80,15.16,0.04,0.09,-0.22
4737,5.36,-0.46,12.76,0.04,0.09,-0.22
4742,1.61,0.88,10.19,0.04,0.09,-0.22
4746,1.61,0.88,10.19,-0.01,0.51,-0.24
4751,1.61,0.88,10.19,0.08,0.39,-0.26
4756,-10.46,2.14,8.81,0.08,0.39,-0.26
4761,-8.81,1.38,9.61,0.08,0.39,-0.26
4766,-6.93,0.77,10.41,0.08,0.39,-0.26
4772,-3.14,0.15,9.35,0.08,0.39,-0.26
4777,4.33,-0.50,9.50,0.08,0.39,-0.26
4781,4.33,-0.50,9.50,0.01,-0.37,0.03
4786,-0.46,2.84,10.46,0.01,-0.37,0.03
4791,0.57,1.38,10.92,0.01,-0.37,0.03
4796,-0.65,0.34,10.41,0.01,-0.37,0.03
4801,-1.15,-0.73,9.84,0.01,-0.37,0.03
4807,-1.30,-1.49,9.54,0.01,-0.37,0.03
4812,-3.95,-0.57,7.55,0.01,-0.37,0.03
4816,-3.95,-0.57,7.55,0.14,-0.06,0.23
4821,-3.60,-1.00,6.55,0.14,-0.06,0.23
4826,-5.29,-0.46,4.86,0.14,-0.06,0.23
4831,-3.91,-1.34,6.17,0.14,-0.06,0.23
4837,-2.41,-1.68,6.47,0.14,-0.06,0.23
4841,-0.92,-0.15,8.20,0.14,-0.06,0.23
4846,2.95,-1.76,9.89,0.14,-0.06,0.23
4852,2.91,-0.69,12.87,0.14,-0.06,0.23
4856,0.61,-1.46,14.21,0.14,-0.06,0.23
4861,1.46,-1.38,12.87,0.14,-0.06,0.23
4866,-0.61,-1.68,11.42,0.14,-0.06,0.23
4871,-4.29,-0.27,7.82,0.14,-0.06,0.23
4877,-0.84,-1.65,9.50,0.14,-0.06,0.23
4882,-0.57,-2.41,9.80,0.14,-0.06,0.23
4886,-0.57,-2.41,9.80,0.16,-0.05,0.32
4892,-0.57,-2.41,9.80,0.16,-0.02,0.33
4897,2.49,-2.30,12.48,0.16,-0.02,0.33
4901,2.49,-2.30,12.48,0.15,0.11,0.35
4906,0.69,-1.49,10.19,0.15,0.11,0.35
4911,-1.65,-0.88,9.54,0.15,0.11,0.35
4917,-3.71,-0.73,9.46,0.15,0.11,0.35
4921,-3.71,-0.73,9.46,0.19,0.12,0.36
4826,-5.29,-0.46,4.86,0.14,-0.06,0.23
4831,-3.91,-1.34,6.17,0.14,-0.06,0.23
4837,-2.41,-1.68,6.47,0.14,-0.06,0.23
4841,-0.92,-0.15,8.20,0.14,-0.06,0.23
4846,2.95,-1.76,9.89,0.14,-0.06,0.23
4852,2.91,-0.69,12.87,0.14,-0.06,0.23
4856,0.61,-1.46,14.21,0.14,-0.06,0.23
4861,1.46,-1.38,12.87,0.14,-0.06,0.23
4866,-0.61,-1.68,11.42,0.14,-0.06,0.23
4871,-4.29,-0.27,7.82,0.14,-0.06,0.23
4877,-0.84,-1.65,9.50,0.14,-0.06,0.23
4882,-0.57,-2.41,9.80,0.14,-0.06,0.23
4886,-0.57,-2.41,9.80,0.16,-0.05,0.32
4892,-0.57,-2.41,9.80,0.16,-0.02,0.33
4897,2.49,-2.30,12.48,0.16,-0.02,0.33
