timestamp,accX,accY,accZ,gyroX,gyroY,gyroZ
Left
6,1.76,-0.69,9.04,-0.10,0.21,-0.15
18,-1.99,1.57,9.43,-0.10,0.21,-0.15
19,-1.91,-0.27,9.50,-0.10,0.21,-0.15
21,-0.54,-1.80,10.88,-0.10,0.21,-0.15
25,0.65,-1.68,11.38,-0.10,0.21,-0.15
30,0.65,-1.68,11.38,0.14,-0.06,0.11
36,1.19,-1.57,11.68,0.14,-0.06,0.11
41,1.19,-1.57,11.68,0.13,0.03,0.13
46,1.19,-1.57,11.68,0.12,0.09,0.13
51,-1.11,-0.11,8.27,0.12,0.09,0.13
56,-1.11,-0.11,8.27,0.18,0.10,0.10
60,-1.11,-0.11,8.27,0.20,0.09,0.08
66,-4.41,-0.15,6.32,0.20,0.09,0.08
70,-4.41,-0.15,6.32,0.23,0.01,0.01
75,-4.41,-0.15,6.32,0.21,-0.10,-0.02
80,-4.41,-0.15,6.32,0.18,-0.24,-0.03
85,3.52,-0.69,10.38,0.18,-0.24,-0.03
90,3.52,-0.69,10.38,0.13,-0.38,-0.00
96,3.52,-0.69,10.38,0.16,-0.42,0.04
101,3.52,-0.69,10.38,0.07,0.20,0.11
106,3.52,-0.69,10.38,0.07,0.35,0.10
111,3.52,-0.69,10.38,0.15,0.28,0.09
116,3.52,-0.69,10.38,0.17,0.16,0.09
121,-2.49,-0.61,9.23,0.17,0.16,0.09
126,-2.49,-0.61,9.23,0.21,0.02,0.15
130,-2.49,-0.61,9.23,0.22,-0.07,0.21
136,-0.69,-1.38,7.35,0.22,-0.07,0.21
141,-0.69,-1.38,7.35,0.25,-0.21,0.28
145,-0.69,-1.38,7.35,0.25,-0.24,0.25
151,-0.69,-1.38,7.35,0.23,-0.22,0.20
156,0.38,1.88,9.61,0.23,-0.22,0.20
161,0.38,1.88,9.61,0.14,0.03,0.06
166,0.38,1.88,9.61,0.10,0.07,0.01
171,-0.08,-2.07,9.69,0.10,0.07,0.01
176,-0.08,-2.07,9.69,0.13,-0.12,0.03
180,-0.08,-2.07,9.69,0.14,-0.13,0.07
186,-0.08,-2.07,9.69,0.15,-0.05,0.06
191,1.42,-0.77,12.02,0.15,-0.05,0.06
196,1.42,-0.77,12.02,0.14,0.07,0.05
201,1.42,-0.77,12.02,0.16,0.02,0.06
206,-0.73,-1.27,9.58,0.16,0.02,0.06
211,-0.73,-1.27,9.58,0.22,0.04,0.04
215,-0.73,-1.27,9.58,0.25,0.06,0.04
221,-0.73,-1.27,9.58,0.28,0.07,0.06
226,-1.00,-0.27,9.42,0.28,0.07,0.06
231,-1.00,-0.27,9.42,0.24,0.00,0.05
235,-1.00,-0.27,9.42,0.23,-0.05,0.04
241,-1.00,-0.27,9.42,0.21,-0.10,0.02
246,-1.00,-0.27,9.42,0.19,-0.13,0.00
250,-1.00,-0.27,9.42,0.17,-0.14,-0.02
256,-0.42,-0.23,9.27,0.17,-0.14,-0.02
261,-1.00,0.00,8.78,0.17,-0.14,-0.02
265,-1.00,0.00,8.78,0.22,0.04,-0.04
271,-1.00,0.00,8.78,0.24,0.04,-0.04
276,-1.99,-0.04,9.93,0.24,0.04,-0.04
281,-1.99,-0.04,9.93,0.22,-0.05,-0.01
285,-1.99,-0.04,9.93,0.21,-0.09,-0.01
291,1.80,-1.30,12.03,0.21,-0.09,-0.01
296,1.80,-1.30,12.03,0.25,-0.00,0.12
300,1.80,-1.30,12.03,0.27,0.11,0.15
306,1.80,-1.30,12.03,0.30,0.16,0.13
311,-1.15,-0.69,8.66,0.30,0.16,0.13
316,-1.15,-0.69,8.66,0.36,0.13,0.17
320,-1.15,-0.69,8.66,0.37,0.05,0.21
326,-1.30,-1.07,8.39,0.37,0.05,0.21
330,-1.30,-1.07,8.39,0.38,-0.18,0.30
335,-1.30,-1.07,8.39,0.35,-0.25,0.33
341,-1.30,-1.07,8.39,0.31,-0.26,0.34
346,-1.30,-1.07,8.39,0.33,-0.19,0.33
350,-1.30,-1.07,8.39,0.33,-0.03,0.29
355,-1.30,-1.07,8.39,0.33,0.08,0.27
361,-1.30,-1.07,8.39,0.36,0.07,0.29
366,-1.30,-1.07,8.39,0.39,-0.00,0.30
370,-1.30,-1.07,8.39,0.38,-0.10,0.33
375,-1.30,-1.07,8.39,0.42,-0.14,0.39
381,-1.42,-2.03,9.08,0.42,-0.14,0.39
385,-1.42,-2.03,9.08,0.45,-0.00,0.42
390,-1.42,-2.03,9.08,0.45,0.02,0.42
396,-0.73,-1.53,9.08,0.45,0.02,0.42
400,-0.73,-1.53,9.08,0.44,-0.09,0.44
405,-0.73,-1.53,9.08,0.43,-0.16,0.47
411,-0.73,-1.53,9.08,0.46,-0.16,0.53
415,-0.73,-1.53,9.08,0.46,-0.06,0.57
420,-0.73,-1.53,9.08,0.47,0.04,0.62
426,-0.73,-1.53,9.08,0.51,0.08,0.64
431,-1.88,-0.92,8.12,0.51,0.08,0.64
435,-1.88,-0.92,8.12,0.54,-0.00,0.67
440,-1.88,-0.92,8.12,0.52,-0.03,0.66
446,-1.49,-0.30,7.82,0.52,-0.03,0.66
450,-1.49,-0.30,7.82,0.45,-0.16,0.65
455,-1.49,-0.30,7.82,0.41,-0.24,0.68
461,-1.49,-0.30,7.82,0.39,-0.33,0.74
466,3.98,-2.45,13.45,0.39,-0.33,0.74
470,3.98,-2.45,13.45,0.44,-0.04,0.93
476,3.98,-2.45,13.45,0.42,0.14,0.90
481,3.98,-2.45,13.45,0.46,0.14,0.93
485,3.98,-2.45,13.45,0.50,0.08,0.95
490,3.98,-2.45,13.45,0.51,-0.01,0.92
495,3.98,-2.45,13.45,0.52,-0.08,0.95
501,3.98,-2.45,13.45,0.56,-0.12,1.04
505,0.65,-4.98,8.73,0.56,-0.12,1.04
510,0.65,-4.98,8.73,0.60,-0.15,1.18
516,0.65,-4.98,8.73,0.55,-0.14,1.14
520,0.65,-4.98,8.73,0.51,-0.14,1.05
525,0.65,-4.98,8.73,0.43,-0.09,0.92
531,0.65,-4.98,8.73,0.34,0.00,0.84
535,0.65,-4.98,8.73,0.29,0.04,0.79
540,0.65,-4.98,8.73,0.29,0.02,0.79
546,0.65,-4.98,8.73,0.29,-0.03,0.83
551,1.99,-2.80,13.11,0.29,-0.03,0.83
555,1.99,-2.80,13.11,0.32,0.04,0.86
560,1.99,-2.80,13.11,0.31,0.12,0.84
566,1.99,-2.80,13.11,0.34,0.10,0.80
571,1.99,-2.80,13.11,0.36,0.08,0.78
575,1.99,-2.80,13.11,0.37,0.08,0.75
581,1.99,-2.80,13.11,0.39,0.07,0.74
586,1.30,-0.96,11.34,0.39,0.07,0.74
590,0.73,1.07,11.50,0.39,0.07,0.74
595,0.73,1.07,11.50,0.32,0.11,0.82
601,0.73,1.07,11.50,0.25,0.13,0.76
605,0.73,1.07,11.50,0.20,0.14,0.65
610,0.73,1.07,11.50,0.15,0.14,0.54
616,0.73,1.07,11.50,0.11,0.11,0.47
621,0.73,1.07,11.50,0.10,0.08,0.45
625,0.73,1.07,11.50,0.09,0.06,0.47
630,0.73,1.07,11.50,0.10,0.06,0.52
635,0.73,1.07,11.50,0.10,0.13,0.54
641,-1.53,2.80,10.11,0.10,0.13,0.54
645,-1.53,2.80,10.11,0.08,0.22,0.41
650,-1.53,2.80,10.11,0.05,0.20,0.35
656,1.15,-0.92,11.07,0.05,0.20,0.35
660,1.15,-0.92,11.07,0.05,0.04,0.38
665,1.15,-0.92,11.07,0.07,0.01,0.45
671,1.15,-0.92,11.07,0.07,0.05,0.47
675,1.15,-0.92,11.07,0.07,0.10,0.42
680,1.15,-0.92,11.07,0.06,0.18,0.38
685,1.15,-0.92,11.07,0.07,0.22,0.36
691,0.15,0.57,8.58,0.07,0.22,0.36
696,0.15,0.57,8.58,0.08,0.20,0.34
700,-0.27,0.08,9.54,0.08,0.20,0.34
705,-0.27,0.08,9.54,0.02,0.17,0.31
710,-0.27,0.08,9.54,0.01,0.14,0.27
715,-0.27,0.08,9.54,-0.02,0.12,0.24
721,-0.27,0.08,9.54,-0.04,0.04,0.19
725,-0.27,0.08,9.54,-0.03,-0.02,0.17
730,-0.27,0.08,9.54,-0.01,-0.05,0.20
735,-0.27,0.08,9.54,0.00,-0.00,0.19
741,-0.27,0.08,9.54,0.02,0.12,0.22
745,-0.27,0.08,9.54,0.05,0.20,0.22
751,-0.27,0.08,9.54,0.10,0.15,0.23
755,-0.27,0.08,9.54,0.14,0.08,0.28
761,-0.27,0.08,9.54,0.15,0.05,0.31
765,-0.27,0.08,9.54,0.14,0.06,0.32
770,-0.27,0.08,9.54,0.13,0.12,0.37
776,1.65,-0.34,11.80,0.13,0.12,0.37
780,1.65,-0.34,11.80,0.12,0.18,0.43
785,1.65,-0.34,11.80,0.12,0.16,0.45
791,1.65,-0.34,11.80,0.13,0.16,0.47
795,1.65,-0.34,11.80,0.16,0.17,0.48
800,1.65,-0.34,11.80,0.18,0.19,0.47
805,1.65,-0.34,11.80,0.21,0.18,0.45
811,-3.29,0.04,5.94,0.21,0.18,0.45
815,-3.29,0.04,5.94,0.19,0.00,0.41
820,-3.29,0.04,5.94,0.15,-0.12,0.44
825,-3.29,0.04,5.94,0.09,-0.28,0.50
830,4.52,-2.07,14.44,0.09,-0.28,0.50
836,4.52,-2.07,14.44,0.15,-0.05,0.69
841,4.52,-2.07,14.44,0.10,0.29,0.70
845,4.52,-2.07,14.44,0.14,0.38,0.75
850,4.52,-2.07,14.44,0.24,0.28,0.77
855,4.52,-2.07,14.44,0.24,0.12,0.76
861,4.52,-2.07,14.44,0.28,0.02,0.79
865,4.52,-2.07,14.44,0.31,-0.03,0.89
871,4.52,-2.07,14.44,0.35,-0.02,0.98
875,4.52,-2.07,14.44,0.37,0.01,1.03
881,4.52,-2.07,14.44,0.33,0.06,1.00
885,4.52,-2.07,14.44,0.26,0.06,0.91
890,4.52,-2.07,14.44,0.20,0.02,0.82
896,4.52,-2.07,14.44,0.14,0.01,0.76
900,4.52,-2.07,14.44,0.12,0.05,0.72
905,4.52,-2.07,14.44,0.12,0.08,0.74
911,4.52,-2.07,14.44,0.13,0.10,0.81
915,4.52,-2.07,14.44,0.16,0.08,0.81
920,4.52,-2.07,14.44,0.18,0.09,0.85
926,4.52,-2.07,14.44,0.20,0.12,0.87
931,4.52,-2.07,14.44,0.22,0.14,0.88
936,1.04,-4.79,11.99,0.22,0.14,0.88
940,1.65,-4.86,11.46,0.22,0.14,0.88
946,1.65,-4.86,11.46,0.34,0.11,0.99
951,1.65,-4.86,11.46,0.35,0.14,1.05
955,-0.77,0.84,10.04,0.35,0.14,1.05
960,-0.77,0.84,10.04,0.30,0.21,1.06
966,-2.18,1.80,8.42,0.30,0.21,1.06
971,-2.18,1.80,8.42,0.19,0.17,0.90
975,-0.27,-0.15,9.39,0.19,0.17,0.90
981,0.50,-1.46,10.35,0.19,0.17,0.90
985,0.50,-1.46,10.35,0.08,-0.03,0.81
990,0.50,-1.46,10.35,0.09,-0.04,0.84
995,0.50,-1.46,10.35,0.08,0.09,0.85
1001,0.50,-1.46,10.35,0.08,0.28,0.86
1006,0.88,-0.88,11.38,0.08,0.28,0.86
1010,-0.15,-0.77,10.57,0.08,0.28,0.86
1016,-0.15,-0.77,10.57,0.13,0.10,0.81
1021,2.41,-0.61,13.79,0.13,0.10,0.81
1026,2.41,-0.61,13.79,0.17,0.20,0.94
1031,-0.11,1.42,13.41,0.17,0.20,0.94
1035,0.57,0.65,10.15,0.17,0.20,0.94
1040,0.46,0.61,11.15,0.17,0.20,0.94
1045,0.46,0.61,11.15,0.06,0.24,0.89
1050,0.46,0.61,11.15,0.04,0.20,0.88
1056,1.61,0.27,9.93,0.04,0.20,0.88
1061,-0.27,0.84,11.38,0.04,0.20,0.88
1065,-0.19,0.84,10.57,0.04,0.20,0.88
1071,-0.19,0.84,10.57,-0.06,0.36,0.72
1076,-0.96,-0.84,10.41,-0.06,0.36,0.72
1080,-1.84,-0.84,9.92,-0.06,0.36,0.72
1086,-1.84,-0.84,9.92,-0.06,0.27,0.68
1091,-1.84,-0.84,9.92,-0.05,0.23,0.62
1095,-0.73,0.34,10.19,-0.05,0.23,0.62
1100,0.42,-1.19,9.65,-0.05,0.23,0.62
1105,0.42,-1.19,9.65,-0.08,0.33,0.50
1111,0.42,-1.19,9.65,-0.07,0.34,0.50
1115,0.42,-1.19,9.65,-0.09,0.30,0.44
1121,0.42,-1.19,9.65,-0.10,0.24,0.37
1126,0.42,-1.19,9.65,-0.13,0.27,0.38
1130,3.33,0.92,11.96,-0.13,0.27,0.38
1135,3.07,0.54,11.49,-0.13,0.27,0.38
1141,3.07,0.54,11.49,-0.21,0.36,0.34
1146,3.07,0.54,11.49,-0.21,0.38,0.33
1151,0.08,0.65,8.39,-0.21,0.38,0.33
1155,-3.71,2.30,6.02,-0.21,0.38,0.33
1160,-3.29,2.61,5.28,-0.21,0.38,0.33
1165,-3.29,2.61,5.28,-0.06,0.45,0.22
1171,-3.29,2.61,5.28,-0.08,0.38,0.15
1176,-3.29,2.61,5.28,-0.14,0.27,0.09
1180,4.90,-0.96,13.03,-0.14,0.27,0.09
1185,4.25,-0.77,13.17,-0.14,0.27,0.09
1191,4.25,-0.77,13.17,-0.28,-0.11,0.17
1195,4.94,2.87,13.49,-0.28,-0.11,0.17
1200,4.48,2.26,12.52,-0.28,-0.11,0.17
1206,4.48,2.26,12.52,-0.25,0.56,0.17
1211,4.48,2.26,12.52,-0.17,0.61,0.17
1215,-1.49,-0.80,7.66,-0.17,0.61,0.17
1220,-1.00,-1.84,8.39,-0.17,0.61,0.17
1226,-1.00,-1.84,8.39,-0.04,0.42,0.16
1230,-3.75,0.11,6.24,-0.04,0.42,0.16
1235,-2.22,1.07,6.09,-0.04,0.42,0.16
1241,-2.22,1.07,6.09,-0.04,0.28,0.17
1246,-2.22,1.07,6.09,-0.11,0.18,0.06
1250,0.34,-0.04,6.47,-0.11,0.18,0.06
1255,-0.54,-2.07,7.86,-0.11,0.18,0.06
1261,-0.54,-2.07,7.86,-0.26,-0.18,-0.20
1265,3.98,-2.87,11.64,-0.26,-0.18,-0.20
1270,2.57,-2.49,13.95,-0.26,-0.18,-0.20
1275,2.57,-2.49,13.95,-0.08,-0.11,-0.06
1281,2.07,-0.38,13.64,-0.08,-0.11,-0.06
1286,2.07,-0.38,13.64,-0.07,0.46,-0.01
1291,-2.18,-0.11,8.96,-0.07,0.46,-0.01
1295,-0.19,-0.61,6.82,-0.07,0.46,-0.01
1300,-1.99,0.96,5.66,-0.07,0.46,-0.01
1305,-1.99,0.96,5.66,0.13,0.29,0.12
1311,-1.99,0.96,5.66,0.10,0.17,0.16
1315,1.49,0.57,11.53,0.10,0.17,0.16
1320,1.42,1.46,12.30,0.10,0.17,0.16
1326,1.42,1.46,12.30,-0.12,-0.09,0.19
1331,1.42,1.46,12.30,-0.15,-0.12,0.22
1335,2.18,1.76,12.48,-0.15,-0.12,0.22
1340,1.38,0.54,12.30,-0.15,-0.12,0.22
1346,1.38,0.54,12.30,0.02,0.11,0.49
1351,1.38,0.54,12.30,0.07,0.21,0.50
1356,-2.18,0.42,5.63,0.07,0.21,0.50
1360,-2.38,-1.11,4.21,0.07,0.21,0.50
1365,-5.59,-0.34,4.56,0.07,0.21,0.50
1370,-5.59,-0.34,4.56,0.18,0.14,0.59
1375,-5.59,-0.34,4.56,0.15,-0.01,0.60
1381,-5.59,-0.34,4.56,0.05,-0.19,0.53
1385,0.84,-0.30,10.31,0.05,-0.19,0.53
1390,4.75,-1.04,12.79,0.05,-0.19,0.53
1395,4.75,-1.04,12.79,-0.13,-0.46,0.49
1401,4.75,-1.04,12.79,-0.02,-0.30,0.53
1406,4.75,-1.04,12.79,-0.03,0.14,0.52
1411,1.49,-2.68,11.15,-0.03,0.14,0.52
1415,-1.68,-2.34,9.00,-0.03,0.14,0.52
1420,0.65,-2.03,9.65,-0.03,0.14,0.52
1425,0.65,-2.03,9.65,0.13,0.17,0.63
1431,0.65,-2.03,9.65,0.12,0.07,0.67
1435,-1.34,1.04,8.70,0.12,0.07,0.67
1440,-0.46,3.60,7.97,0.12,0.07,0.67
1446,-0.46,3.60,7.97,0.13,0.06,0.69
1451,-0.46,3.60,7.97,0.08,0.10,0.66
1455,-0.77,2.61,10.54,0.08,0.10,0.66
1460,0.57,1.23,10.23,0.08,0.10,0.66
1466,1.53,-0.65,10.34,0.08,0.10,0.66
1470,-1.61,1.15,11.07,0.08,0.10,0.66
1475,-2.38,-0.08,10.07,0.08,0.10,0.66
1480,-2.38,-0.08,10.07,-0.03,0.05,0.59
1485,-2.38,-0.08,10.07,-0.01,0.06,0.49
1490,0.65,-1.72,11.11,-0.01,0.06,0.49
1496,0.65,-1.72,11.11,-0.01,0.02,0.48
1501,-2.38,-2.64,12.30,-0.01,0.02,0.48
1505,-2.03,-3.48,11.22,-0.01,0.02,0.48
1510,-2.61,-5.40,10.61,-0.01,0.02,0.48
1515,-3.79,-5.02,9.77,-0.01,0.02,0.48
1521,-1.00,-5.52,10.57,-0.01,0.02,0.48
1525,4.29,-7.01,8.70,-0.01,0.02,0.48
1530,2.61,-6.28,8.77,-0.01,0.02,0.48
1535,3.26,-3.83,7.82,-0.01,0.02,0.48
1541,3.26,-3.83,7.82,0.17,-0.02,0.42
1545,1.84,-0.46,7.47,0.17,-0.02,0.42
1550,2.68,0.69,8.93,0.17,-0.02,0.42
1556,2.68,0.69,8.93,0.19,0.20,0.52
1560,3.87,-0.80,12.79,0.19,0.20,0.52
1565,4.83,-0.73,12.99,0.19,0.20,0.52
1571,5.21,0.57,12.98,0.19,0.20,0.52
1575,4.64,2.38,11.15,0.19,0.20,0.52
1580,2.38,1.99,10.41,0.19,0.20,0.52
1586,2.14,3.10,9.89,0.19,0.20,0.52
1590,2.45,1.84,10.04,0.19,0.20,0.52
1595,0.57,1.76,9.84,0.19,0.20,0.52
1600,0.23,0.88,10.00,0.19,0.20,0.52
1606,0.23,0.88,10.00,0.20,0.33,1.25
1611,-1.65,3.07,8.77,0.20,0.33,1.25
1615,-1.65,3.07,8.77,0.16,0.21,1.29
1620,-5.86,3.60,10.49,0.16,0.21,1.29
1626,-5.86,3.60,10.49,0.11,0.19,1.26
1630,-2.53,-2.45,7.36,0.11,0.19,1.26
1635,-1.19,-2.30,8.12,0.11,0.19,1.26
1641,-2.91,-2.30,7.93,0.11,0.19,1.26
1645,1.76,-0.04,8.62,0.11,0.19,1.26
1650,3.07,-0.38,10.57,0.11,0.19,1.26
1655,0.15,0.50,12.76,0.11,0.19,1.26
1661,0.57,-0.38,15.02,0.11,0.19,1.26
1665,-2.53,-4.94,11.72,0.11,0.19,1.26
1670,-4.56,-5.21,11.76,0.11,0.19,1.26
1676,-4.56,-5.21,11.76,-0.24,0.54,0.28
1680,-1.91,-4.10,8.92,-0.24,0.54,0.28
1685,-0.19,-1.23,9.20,-0.24,0.54,0.28
1691,2.30,0.15,9.65,-0.24,0.54,0.28
1695,2.41,3.48,11.96,-0.24,0.54,0.28
1700,-0.08,6.63,11.88,-0.24,0.54,0.28
1705,-0.50,7.16,10.42,-0.24,0.54,0.28
1711,-0.50,7.16,10.42,-0.14,0.69,0.39
1715,-2.72,3.98,10.04,-0.14,0.69,0.39
1720,-1.27,2.34,9.39,-0.14,0.69,0.39
1726,-0.38,1.42,8.70,-0.14,0.69,0.39
1731,-0.23,2.03,7.93,-0.14,0.69,0.39
1735,-0.23,2.03,7.93,-0.27,0.05,0.40
1740,1.27,3.33,9.61,-0.27,0.05,0.40
1745,-0.42,4.67,9.04,-0.27,0.05,0.40
1750,1.68,3.79,10.41,-0.27,0.05,0.40
1755,0.30,3.52,11.42,-0.27,0.05,0.40
1760,-1.88,1.42,12.56,-0.27,0.05,0.40
1765,-1.88,1.42,12.56,-0.32,0.16,0.20
1770,-1.88,1.42,12.56,-0.29,0.26,0.21
1776,0.69,0.50,11.61,-0.29,0.26,0.21
1781,0.69,0.50,11.61,-0.29,0.24,0.23
1786,1.65,1.46,7.55,-0.29,0.24,0.23
1790,1.65,1.46,7.55,-0.32,0.09,0.12
1795,-0.84,2.68,6.63,-0.32,0.09,0.12
1800,0.19,2.49,8.28,-0.32,0.09,0.12
1805,-1.88,1.84,9.54,-0.32,0.09,0.12
1811,-3.60,1.61,9.30,-0.32,0.09,0.12
1816,-1.30,-0.23,9.42,-0.32,0.09,0.12
1820,-1.30,-0.23,9.42,-0.37,0.22,-0.14
1825,-1.30,-0.23,9.42,-0.35,0.15,-0.11
1831,-0.65,-1.65,7.85,-0.35,0.15,-0.11
1836,1.00,-1.46,7.36,-0.35,0.15,-0.11
1840,1.00,-1.46,7.36,-0.28,0.01,-0.12
1845,2.41,-0.73,10.19,-0.28,0.01,-0.12
1850,0.84,-0.80,8.96,-0.28,0.01,-0.12
1855,0.73,-0.92,8.24,-0.28,0.01,-0.12
1861,0.80,-0.80,7.66,-0.28,0.01,-0.12
1865,0.73,-1.30,9.00,-0.28,0.01,-0.12
1870,-0.61,-1.04,9.80,-0.28,0.01,-0.12
1876,0.84,-0.69,9.65,-0.28,0.01,-0.12
1880,1.72,-0.46,9.85,-0.28,0.01,-0.12
1885,0.69,0.11,9.61,-0.28,0.01,-0.12
1890,1.00,1.80,10.77,-0.28,0.01,-0.12
1895,0.00,1.72,11.99,-0.28,0.01,-0.12
1901,0.04,0.77,12.68,-0.28,0.01,-0.12
1906,-0.11,-1.53,10.38,-0.28,0.01,-0.12
1910,-0.11,-1.53,10.38,-0.11,0.27,0.07
1915,-0.11,-1.53,10.38,-0.02,0.26,0.15
1920,-0.38,-1.00,6.17,-0.02,0.26,0.15
1925,-0.50,0.15,5.48,-0.02,0.26,0.15
1931,-0.50,0.42,6.74,-0.02,0.26,0.15
1935,3.14,0.57,9.58,-0.02,0.26,0.15
1940,1.99,-0.69,11.22,-0.02,0.26,0.15
1946,1.72,-1.30,13.14,-0.02,0.26,0.15
1950,3.79,-3.83,14.98,-0.02,0.26,0.15
1955,1.46,-3.91,14.10,-0.02,0.26,0.15
1960,-1.99,-4.06,13.79,-0.02,0.26,0.15
1966,-2.22,-4.10,12.18,-0.02,0.26,0.15
1971,-2.11,-6.36,8.08,-0.02,0.26,0.15
1975,-2.11,-6.36,8.08,0.13,0.14,0.10
1980,-1.80,-5.67,7.24,0.13,0.14,0.10
1986,-1.11,-3.14,5.74,0.13,0.14,0.10
1991,-2.99,-0.34,6.74,0.13,0.14,0.10
1995,-2.99,-0.34,6.74,0.19,-0.09,0.16
2000,-0.46,1.99,9.23,0.19,-0.09,0.16
2005,-1.46,1.23,9.39,0.19,-0.09,0.16
2010,-0.19,1.38,9.04,0.19,-0.09,0.16
2015,1.15,0.69,9.42,0.19,-0.09,0.16
2021,-1.19,0.84,9.58,0.19,-0.09,0.16
2026,-0.80,0.77,10.84,0.19,-0.09,0.16
2030,-0.80,0.77,10.84,0.14,0.04,0.28
2035,-0.80,0.77,10.84,0.17,0.03,0.31
2040,0.04,2.03,12.48,0.17,0.03,0.31
2045,0.15,2.87,10.19,0.17,0.03,0.31
2051,-0.46,2.38,10.31,0.17,0.03,0.31
2055,-0.88,2.45,9.96,0.17,0.03,0.31
2060,-0.92,1.53,9.84,0.17,0.03,0.31
2066,-0.88,1.34,9.54,0.17,0.03,0.31
2070,0.04,0.42,11.11,0.17,0.03,0.31
2075,-1.76,1.49,8.88,0.17,0.03,0.31
2080,-3.79,1.99,9.27,0.17,0.03,0.31
2086,-2.11,2.03,8.46,0.17,0.03,0.31
2090,-3.83,2.68,7.97,0.17,0.03,0.31
2096,-2.18,1.80,8.08,0.17,0.03,0.31
2100,-2.18,1.80,8.08,0.07,-0.02,0.21
2105,0.65,-0.23,9.34,0.07,-0.02,0.21
2110,0.08,-0.38,8.24,0.07,-0.02,0.21
2115,0.77,0.19,8.89,0.07,-0.02,0.21
2121,0.57,0.73,9.81,0.07,-0.02,0.21
2125,-4.14,0.54,8.27,0.07,-0.02,0.21
2131,-3.03,1.65,8.74,0.07,-0.02,0.21
2135,-3.03,1.65,8.74,0.09,0.22,0.01
2140,-3.22,-1.15,10.23,0.09,0.22,0.01
2146,-0.77,-1.80,9.96,0.09,0.22,0.01
2150,-0.77,-1.80,9.96,0.06,-0.14,0.10
2156,-0.77,-1.80,9.96,0.07,-0.20,0.16
2161,1.00,0.61,11.30,0.07,-0.20,0.16
2165,1.00,0.61,11.30,0.09,0.01,0.14
2170,1.00,0.61,11.30,0.11,0.19,0.10
2175,1.00,0.61,11.30,0.16,0.25,0.06
2180,-2.76,-0.54,7.31,0.16,0.25,0.06
2186,-2.22,-2.38,8.50,0.16,0.25,0.06
2190,-0.15,-2.18,11.54,0.16,0.25,0.06
2195,0.19,-2.07,12.72,0.16,0.25,0.06
2201,0.88,-1.46,14.55,0.16,0.25,0.06
2206,0.88,-1.46,14.55,0.18,-0.07,0.49
2210,-2.80,-0.08,11.41,0.18,-0.07,0.49
2215,-2.80,0.38,8.81,0.18,-0.07,0.49
2221,-3.26,0.77,6.25,0.18,-0.07,0.49
2225,-4.79,-1.00,4.83,0.18,-0.07,0.49
2230,-2.87,-2.38,3.79,0.18,-0.07,0.49
2235,-2.18,-1.53,3.75,0.18,-0.07,0.49
2241,-2.41,-1.95,3.37,0.18,-0.07,0.49
2245,-1.15,-2.41,6.40,0.18,-0.07,0.49
2251,0.46,-2.45,6.85,0.18,-0.07,0.49
2255,0.46,-2.45,6.85,0.21,-0.44,0.68
2260,3.07,-3.60,11.57,0.21,-0.44,0.68
2265,4.71,-4.02,13.79,0.21,-0.44,0.68
2271,3.33,-4.41,13.48,0.21,-0.44,0.68
2275,3.33,-4.41,13.48,0.31,0.09,0.78
2280,3.64,-4.71,11.64,0.31,0.09,0.78
2286,3.10,-4.02,11.22,0.31,0.09,0.78
2290,3.10,-4.02,11.22,0.49,-0.12,1.15
2296,3.10,-4.02,11.22,0.50,0.01,1.18
2301,-0.57,-1.49,8.08,0.50,0.01,1.18
2305,-0.57,-1.49,8.08,0.51,0.05,1.18
2310,-0.57,-1.49,8.08,0.47,-0.00,1.21
2315,2.53,-3.52,12.26,0.47,-0.00,1.21
2321,3.45,-3.18,13.67,0.47,-0.00,1.21
2325,3.45,-3.18,13.67,0.37,-0.23,1.40
2330,4.33,-2.53,14.40,0.37,-0.23,1.40
2335,4.71,-0.77,14.59,0.37,-0.23,1.40
2342,4.71,-0.77,14.59,0.41,-0.16,1.47
2347,2.30,-1.00,13.87,0.41,-0.16,1.47
2350,2.30,-1.00,13.87,0.39,0.20,1.48
2355,2.30,-1.00,13.87,0.40,0.16,1.49
2360,2.30,-1.00,13.87,0.43,0.13,1.52
2365,-0.11,-3.22,9.50,0.43,0.13,1.52
2371,-1.53,-1.91,9.69,0.43,0.13,1.52
2375,-1.53,-1.91,9.69,0.44,0.10,1.60
2381,-0.84,-1.00,10.49,0.44,0.10,1.60
2386,-2.49,0.11,11.30,0.44,0.10,1.60
2390,-2.49,0.11,11.30,0.22,0.06,1.35
2395,-2.49,0.11,11.30,0.18,0.07,1.28
2400,1.91,-1.34,14.75,0.18,0.07,1.28
2406,3.14,-2.26,15.59,0.18,0.07,1.28
2410,3.14,-2.26,15.59,0.08,0.23,1.28
2416,3.14,-2.26,15.59,0.11,0.28,1.38
2421,1.38,-0.57,11.68,0.11,0.28,1.38
2425,1.38,-0.57,11.68,0.15,0.56,1.40
2430,1.38,-0.57,11.68,0.20,0.59,1.29
2435,-5.02,1.91,7.20,0.20,0.59,1.29
2441,-6.13,1.27,8.08,0.20,0.59,1.29
2445,-6.13,1.27,8.08,0.14,0.47,1.15
2450,0.50,-0.61,9.65,0.14,0.47,1.15
2456,-1.99,1.57,11.19,0.14,0.47,1.15
2460,-1.99,1.57,11.19,-0.01,0.30,1.29
2466,-1.99,1.57,11.19,-0.08,0.33,1.12
2471,-6.05,7.28,8.28,-0.08,0.33,1.12
2475,-6.05,7.28,8.28,-0.21,0.39,0.65
2480,-6.05,7.28,8.28,-0.27,0.35,0.51
2487,-0.15,2.03,9.00,-0.27,0.35,0.51
2491,-2.18,1.30,11.64,-0.27,0.35,0.51
2495,-2.18,1.30,11.64,-0.36,0.25,0.52
2501,0.46,0.88,14.86,-0.36,0.25,0.52
2506,-1.00,2.53,13.91,-0.36,0.25,0.52
2510,-1.00,2.53,13.91,-0.36,0.60,0.41
2515,-1.00,2.53,13.91,-0.32,0.58,0.35
2521,-1.65,3.18,12.64,-0.32,0.58,0.35
2526,1.46,2.14,11.80,-0.32,0.58,0.35
2530,1.46,2.14,11.80,-0.35,0.51,0.34
2536,1.46,2.14,11.80,-0.35,0.53,0.30
2541,-0.30,1.95,8.81,-0.35,0.53,0.30
2545,-0.30,1.95,8.81,-0.36,0.53,0.23
2550,-0.30,1.95,8.81,-0.39,0.50,0.21
2556,-0.30,1.95,8.81,-0.42,0.44,0.16
2561,-1.19,2.49,9.84,-0.42,0.44,0.16
2565,-1.19,2.49,9.84,-0.53,0.25,0.01
2570,-0.69,1.19,9.73,-0.53,0.25,0.01
2575,-1.49,1.15,9.20,-0.53,0.25,0.01
2581,-3.98,1.68,10.54,-0.53,0.25,0.01
2586,-3.98,1.68,10.54,-0.50,0.20,-0.14
2590,0.61,0.42,10.04,-0.50,0.20,-0.14
2596,-0.38,-1.27,10.31,-0.50,0.20,-0.14
2600,-0.38,-1.27,10.31,-0.47,0.12,-0.12
2606,2.76,-0.38,8.84,-0.47,0.12,-0.12
2611,1.91,1.00,8.54,-0.47,0.12,-0.12
2615,1.91,1.00,8.54,-0.40,0.31,-0.05
2621,1.91,1.00,8.54,-0.39,0.32,-0.07
2627,-0.80,0.30,9.46,-0.39,0.32,-0.07
2630,-0.80,0.30,9.46,-0.35,0.32,0.05
2635,-0.80,0.30,9.46,-0.34,0.27,0.04
2642,1.49,-1.04,8.84,-0.34,0.27,0.04
2646,0.04,0.08,9.46,-0.34,0.27,0.04
2650,0.04,0.08,9.46,-0.32,0.25,0.14
2656,0.04,0.08,9.46,-0.30,0.22,0.12
2661,-0.84,0.04,5.32,-0.30,0.22,0.12
2665,-0.84,0.04,5.32,-0.25,0.20,0.17
2670,-0.84,0.04,5.32,-0.25,0.16,0.18
2676,-0.84,0.04,5.32,-0.24,0.16,0.18
2681,0.15,-0.77,10.57,-0.24,0.16,0.18
2686,0.15,-0.77,10.57,-0.27,0.15,0.20
2690,0.15,-0.77,10.57,-0.27,0.15,0.26
2695,0.15,-0.77,10.57,-0.26,0.15,0.31
2701,0.15,-0.27,12.87,-0.26,0.15,0.31
2706,0.15,-0.27,12.87,-0.23,0.17,0.31
2711,0.15,-0.27,12.87,-0.20,0.18,0.34
2716,0.27,-1.46,10.65,-0.20,0.18,0.34
2721,0.27,-1.46,10.65,-0.14,0.22,0.41
2726,0.27,-1.46,10.65,-0.11,0.20,0.39
2732,-1.00,-2.38,8.23,-0.11,0.20,0.39
2737,-1.00,-2.38,8.23,-0.07,0.17,0.39
2741,-1.00,-2.38,8.23,-0.07,0.18,0.35
2746,-3.07,1.38,7.59,-0.07,0.18,0.35
2752,-2.80,0.92,7.82,-0.07,0.18,0.35
2755,-2.80,0.92,7.82,-0.24,0.07,0.10
2761,-2.80,0.92,7.82,-0.29,-0.03,0.02
2766,3.41,-0.92,11.42,-0.29,-0.03,0.02
2770,3.41,-0.92,11.42,-0.28,0.05,0.06
2776,3.41,-0.92,11.42,-0.29,0.24,0.07
2782,1.00,1.07,10.23,-0.29,0.24,0.07
2785,1.00,1.07,10.23,-0.22,0.29,0.05
2790,1.00,1.07,10.23,-0.20,0.22,0.05
2796,1.00,1.07,10.23,-0.17,0.22,0.08
2801,0.42,2.49,10.57,-0.17,0.22,0.08
2806,0.42,2.49,10.57,-0.19,0.17,0.13
2810,0.42,2.49,10.57,-0.22,0.09,0.21
2816,0.42,2.49,10.57,-0.22,0.06,0.36
2821,4.48,-0.15,12.18,-0.22,0.06,0.36
2826,4.48,-0.15,12.18,-0.19,0.07,0.45
2831,4.48,-0.15,12.18,-0.15,0.17,0.42
2836,-2.91,3.98,9.12,-0.15,0.17,0.42
2841,-2.91,3.98,9.12,-0.13,0.33,0.24
2846,-2.91,3.98,9.12,-0.15,0.29,0.18
2852,-0.61,-1.38,7.77,-0.15,0.29,0.18
2856,-0.61,-1.38,7.77,-0.23,0.02,0.19
2860,-0.61,-1.38,7.77,-0.26,-0.08,0.25
2866,-0.92,0.23,6.70,-0.26,-0.08,0.25
2871,-3.22,1.23,7.59,-0.26,-0.08,0.25
2876,-3.22,1.23,7.59,-0.30,0.02,0.02
2881,-3.22,1.23,7.59,-0.30,0.13,-0.11
2887,-3.87,-0.80,11.15,-0.30,0.13,-0.11
2890,-3.87,-0.80,11.15,-0.25,0.22,-0.12
2896,-3.87,-0.80,11.15,-0.23,0.10,-0.11
2901,-0.96,-1.95,12.72,-0.23,0.10,-0.11
2906,-1.11,0.30,11.88,-0.23,0.10,-0.11
2910,-1.11,0.30,11.88,-0.15,0.08,0.12
2915,-1.11,0.30,11.88,-0.14,0.17,0.11
2920,-3.48,1.84,8.16,-0.14,0.17,0.11
2925,-3.48,1.84,8.16,-0.12,0.27,0.12
2933,-3.48,1.84,8.16,-0.10,0.28,0.10
2937,-3.48,1.84,8.16,-0.13,0.21,0.17
2940,-3.48,1.84,8.16,-0.14,0.16,0.22
2947,-3.48,1.84,8.16,-0.17,0.09,0.22
2950,-3.48,1.84,8.16,-0.18,0.09,0.24
2955,-1.84,0.77,9.12,-0.18,0.09,0.24
2961,-2.72,1.00,8.27,-0.18,0.09,0.24
2966,-2.72,1.00,8.27,-0.19,0.02,0.22
2971,1.61,0.46,9.77,-0.19,0.02,0.22
2976,0.88,0.19,10.07,-0.19,0.02,0.22
2981,0.88,0.19,10.07,-0.20,-0.14,0.25
2986,0.88,0.19,10.07,-0.14,-0.03,0.29
2991,1.04,1.00,11.53,-0.14,-0.03,0.29
2996,1.04,1.00,11.53,-0.16,0.33,0.34
3001,1.04,1.00,11.53,-0.13,0.39,0.30
3007,-2.68,0.08,9.85,-0.13,0.39,0.30
3010,-2.68,0.08,9.85,-0.17,0.22,0.19
3016,-2.68,0.08,9.85,-0.18,0.12,0.23
3021,-2.68,0.08,9.85,-0.19,-0.00,0.24
3026,-1.34,-2.11,8.04,-0.19,-0.00,0.24
3030,-1.34,-2.11,8.04,-0.18,-0.10,0.25
3036,-1.34,-2.11,8.04,-0.14,-0.09,0.24
3042,-1.88,-0.50,6.67,-0.14,-0.09,0.24
3046,-1.88,-0.50,6.67,-0.13,0.06,0.22
3051,-1.88,-0.50,6.67,-0.13,0.09,0.16
3056,-1.88,-0.50,6.67,-0.17,0.06,0.12
3062,2.26,-2.57,11.41,-0.17,0.06,0.12
3065,2.26,-2.57,11.41,-0.18,-0.11,0.23
3071,2.26,-2.57,11.41,-0.16,-0.10,0.34
3076,2.26,-2.57,11.41,-0.13,0.02,0.41
3081,2.26,-2.57,11.41,-0.11,0.12,0.47
3086,2.26,-2.57,11.41,-0.06,0.16,0.55
3091,1.19,0.34,10.00,-0.06,0.16,0.55
3097,1.30,0.92,9.65,-0.06,0.16,0.55
3100,1.30,0.92,9.65,-0.01,0.20,0.53
3106,1.30,0.92,9.65,0.03,0.22,0.57
3111,-1.27,-3.83,8.04,0.03,0.22,0.57
3116,-1.27,-3.83,8.04,0.04,0.10,0.67
3121,-1.27,-3.83,8.04,0.05,0.03,0.70
3127,-1.11,-0.11,7.97,0.05,0.03,0.70
3130,-1.11,-0.11,7.97,-0.09,-0.19,0.54
3136,-1.11,-0.11,7.97,-0.16,-0.28,0.44
3141,-1.11,-0.11,7.97,-0.21,-0.36,0.39
3146,3.07,-2.41,12.61,-0.21,-0.36,0.39
3151,3.07,-2.41,12.61,-0.11,0.01,0.46
3156,3.07,-2.41,12.61,-0.15,0.31,0.42
3161,0.15,-1.91,13.25,-0.15,0.31,0.42
3167,-0.23,-1.19,13.48,-0.15,0.31,0.42
3170,-0.23,-1.19,13.48,-0.06,0.16,0.54
3175,-0.23,-1.19,13.48,-0.04,0.13,0.54
3182,-3.29,0.11,9.65,-0.04,0.13,0.54
3186,-3.29,0.11,9.65,-0.05,0.12,0.49
3191,-3.29,0.11,9.65,-0.05,0.07,0.47
3197,-3.29,0.11,9.65,-0.08,0.01,0.48
3201,-3.29,0.11,9.65,-0.12,-0.09,0.46
3206,-3.29,0.11,9.65,-0.15,-0.15,0.48
3211,-1.30,1.80,10.27,-0.15,-0.15,0.48
3216,-0.80,3.29,10.27,-0.15,-0.15,0.48
3221,-0.80,3.29,10.27,-0.19,0.27,0.40
3226,-0.80,3.29,10.27,-0.20,0.25,0.37
3230,-0.84,2.22,9.30,-0.20,0.25,0.37
3237,-0.08,1.72,8.85,-0.20,0.25,0.37
3240,-0.08,1.72,8.85,-0.23,0.04,0.38
3246,-0.84,2.03,9.04,-0.23,0.04,0.38
3251,-0.38,2.38,9.23,-0.23,0.04,0.38
3256,-0.38,2.38,9.23,-0.28,0.17,0.36
3261,-0.38,2.38,9.23,-0.29,0.26,0.31
3267,-4.06,1.76,11.22,-0.29,0.26,0.31
3270,-4.06,1.76,11.22,-0.29,0.32,0.28
3276,-4.06,1.76,11.22,-0.31,0.22,0.25
3281,-4.06,1.76,11.22,-0.34,0.14,0.24
3286,-0.23,0.34,9.81,-0.34,0.14,0.24
3291,-0.23,0.34,9.81,-0.34,0.05,0.22
3296,-0.23,0.34,9.81,-0.34,0.06,0.18
3301,-0.61,-0.19,8.27,-0.34,0.06,0.18
3306,-0.61,-0.19,8.27,-0.31,0.12,0.17
3311,-0.61,-0.19,8.27,-0.31,0.16,0.14
3316,-0.61,-0.19,8.27,-0.34,0.19,0.12
3321,0.19,-0.15,9.38,-0.34,0.19,0.12
3326,0.19,-0.15,9.38,-0.33,0.16,0.06
3331,0.19,-0.15,9.38,-0.35,0.19,0.07
3337,-0.38,-0.38,9.85,-0.35,0.19,0.07
3341,-0.38,-0.38,9.85,-0.36,0.13,-0.03
3346,-0.38,-0.38,9.85,-0.36,0.14,-0.04
3350,0.11,-1.04,9.54,-0.36,0.14,-0.04
3357,-2.45,-1.07,9.77,-0.36,0.14,-0.04
3360,-2.45,-1.07,9.77,-0.35,0.07,-0.09
3366,-2.45,-1.07,9.77,-0.32,0.05,-0.09
3371,3.98,-2.68,10.00,-0.32,0.05,-0.09
3376,3.98,-2.68,10.00,-0.32,-0.08,-0.04
3381,3.98,-2.68,10.00,-0.27,-0.00,0.05
3387,3.64,-0.65,10.19,-0.27,-0.00,0.05
3390,3.64,-0.65,10.19,-0.26,0.26,0.05
3396,3.64,-0.65,10.19,-0.22,0.37,0.06
3401,3.64,-0.65,10.19,-0.19,0.36,0.00
3406,-2.91,-1.34,8.84,-0.19,0.36,0.00
3411,-2.91,-1.34,8.84,-0.19,0.19,0.00
3416,-2.91,-1.34,8.84,-0.18,0.06,0.05
3421,-1.38,-1.46,5.18,-0.18,0.06,0.05
3426,-1.38,-1.46,5.18,-0.21,-0.19,0.03
3431,-1.38,-1.46,5.18,-0.21,-0.24,-0.01
3436,-1.38,-1.46,5.18,-0.24,-0.28,-0.06
3442,1.99,0.11,10.73,-0.24,-0.28,-0.06
3446,1.99,0.11,10.73,-0.23,-0.04,-0.05
3450,1.99,0.11,10.73,-0.29,0.16,-0.05
3455,1.99,0.11,10.73,-0.29,0.19,0.00
3460,2.99,-1.19,12.64,-0.29,0.19,0.00
3467,2.99,-1.19,12.64,-0.24,0.09,0.06
3471,2.99,-1.19,12.64,-0.21,0.03,0.20
3476,1.99,-0.04,9.34,-0.21,0.03,0.20
3481,1.99,-0.04,9.34,-0.17,0.10,0.22
3486,1.99,-0.04,9.34,-0.14,0.12,0.22
3491,-2.34,-1.88,7.39,-0.14,0.12,0.22
3496,-2.34,-1.88,7.39,-0.06,0.12,0.28
3501,-2.34,-1.88,7.39,-0.06,0.07,0.27
3505,-2.34,-1.88,7.39,-0.07,-0.01,0.25
3511,0.84,-0.46,10.00,-0.07,-0.01,0.25
3516,0.84,-0.46,10.00,-0.20,-0.24,0.22
3521,0.84,-0.46,10.00,-0.24,-0.31,0.20
3526,3.33,-0.27,11.42,-0.24,-0.31,0.20
3531,3.33,-0.27,11.42,-0.23,0.09,0.12
3536,3.33,-0.27,11.42,-0.26,0.29,0.12
3542,3.33,-0.27,11.42,-0.21,0.26,0.10
3546,3.33,-0.27,11.42,-0.18,0.12,0.08
3551,3.33,-0.27,11.42,-0.18,0.02,0.12
3556,3.33,-0.27,11.42,-0.17,-0.01,0.18
3561,-0.42,0.84,10.50,-0.17,-0.01,0.18
3566,-0.42,0.84,10.50,-0.15,0.03,0.14
3571,-0.42,0.84,10.50,-0.15,0.01,0.14
3577,-0.42,0.84,10.50,-0.17,0.01,0.17
3581,-0.42,0.84,10.50,-0.20,-0.00,0.17
3586,-0.42,0.84,10.50,-0.20,0.02,0.18
3591,-0.42,0.84,10.50,-0.23,0.13,0.16
3596,-1.99,1.88,8.96,-0.23,0.13,0.16
3601,-1.99,1.88,8.96,-0.21,0.23,0.10
3606,-1.99,1.88,8.96,-0.21,0.21,0.08
3611,-1.99,1.88,8.96,-0.21,0.12,0.04
3616,-1.99,1.88,8.96,-0.24,-0.03,0.02
3621,-1.99,1.88,8.96,-0.28,-0.14,0.06
3626,-1.99,1.88,8.96,-0.29,-0.20,0.09
3631,0.54,0.77,8.84,-0.29,-0.20,0.09
3636,0.54,0.77,8.84,-0.26,0.08,0.00
3641,0.54,0.77,8.84,-0.30,0.30,-0.05
3646,0.54,0.77,8.84,-0.26,0.32,-0.12
3651,0.54,0.77,8.84,-0.26,0.20,-0.15
3656,0.54,0.77,8.84,-0.27,0.08,-0.15
3661,0.54,0.77,8.84,-0.26,-0.01,-0.12
3666,-0.69,-0.88,10.54,-0.26,-0.01,-0.12
3671,-0.69,-0.88,10.54,-0.25,-0.05,-0.06
3676,-0.69,-0.88,10.54,-0.22,0.00,-0.08
3681,-0.69,-0.88,10.54,-0.23,0.10,-0.12
3686,-0.69,-0.88,10.54,-0.22,0.16,-0.15
3691,-0.69,-0.88,10.54,-0.21,0.16,-0.17
3695,-0.69,-0.88,10.54,-0.22,0.15,-0.13
3701,-0.69,1.15,9.23,-0.22,0.15,-0.13
3706,-0.69,1.15,9.23,-0.26,0.09,-0.14
3711,-0.69,1.15,9.23,-0.27,0.08,-0.15
3716,-2.64,1.07,8.85,-0.27,0.08,-0.15
3721,-2.64,1.07,8.85,-0.25,0.11,-0.16
3726,-2.64,1.07,8.85,-0.25,0.06,-0.18
3732,-2.64,1.07,8.85,-0.24,0.03,-0.16
3736,-2.64,1.07,8.85,-0.25,0.00,-0.14
3741,-2.64,1.07,8.85,-0.24,-0.02,-0.14
3746,-2.64,1.07,8.85,-0.25,0.00,-0.11
3751,-0.15,1.49,8.62,-0.25,0.00,-0.11
3756,-0.15,1.49,8.62,-0.20,0.08,-0.10
3761,-0.15,1.49,8.62,-0.18,0.09,-0.10
3766,-0.15,1.49,8.62,-0.22,0.13,-0.08
3771,-0.15,1.49,8.62,-0.22,0.10,-0.14
3776,-0.15,1.49,8.62,-0.26,0.08,-0.20
3781,-0.15,1.49,8.62,-0.29,0.02,-0.20
3786,0.15,-0.69,11.42,-0.29,0.02,-0.20
3791,0.15,-0.69,11.42,-0.33,-0.07,-0.20
3796,0.15,-0.69,11.42,-0.31,-0.08,-0.22
3801,0.15,-0.69,11.42,-0.26,-0.04,-0.20
3806,0.15,-0.69,11.42,-0.24,0.05,-0.20
3811,0.15,-0.69,11.42,-0.22,0.13,-0.23
3816,0.15,-0.69,11.42,-0.19,0.18,-0.31
3822,-3.71,1.07,6.40,-0.19,0.18,-0.31
3826,-3.71,1.07,6.40,-0.19,0.14,-0.38
3831,-3.71,1.07,6.40,-0.23,0.05,-0.36
3836,-3.71,1.07,6.40,-0.28,-0.07,-0.33
3841,-3.71,1.07,6.40,-0.33,-0.18,-0.31
3846,-3.71,1.07,6.40,-0.34,-0.25,-0.27
3850,-3.71,1.07,6.40,-0.28,-0.21,-0.22
3856,2.22,0.38,10.80,-0.28,-0.21,-0.22
3861,2.22,0.38,10.80,-0.23,0.24,-0.21
3866,2.22,0.38,10.80,-0.17,0.30,-0.20
3871,2.22,0.38,10.80,-0.13,0.25,-0.19
3876,2.22,0.38,10.80,-0.11,0.15,-0.16
3881,2.22,0.38,10.80,-0.09,0.04,-0.10
3885,2.22,0.38,10.80,-0.07,-0.07,-0.02
3891,-0.08,-1.53,7.35,-0.07,-0.07,-0.02
3896,-0.08,-1.53,7.35,-0.07,-0.18,0.06
3901,-0.08,-1.53,7.35,-0.12,-0.19,0.04
3906,-0.08,-1.53,7.35,-0.14,-0.18,0.01
3911,-0.08,-1.53,7.35,-0.13,-0.12,-0.02
3916,-0.08,-1.53,7.35,-0.13,-0.01,-0.00
3921,-0.08,-1.53,7.35,-0.10,0.04,0.03
3926,-0.08,-1.53,7.35,-0.09,0.03,0.07
3931,-0.08,-1.53,7.35,-0.07,0.00,0.12
3936,-0.08,-1.53,7.35,-0.05,-0.00,0.19
3942,-0.08,-1.53,7.35,-0.05,0.03,0.22
3946,-0.08,-1.53,7.35,-0.05,0.04,0.22
3951,-0.08,-1.53,7.35,-0.04,0.04,0.22
3956,-0.08,-1.53,7.35,-0.04,-0.00,0.24
3961,-0.08,-1.53,7.35,-0.02,-0.05,0.31
3966,-0.08,-1.53,7.35,0.02,-0.05,0.38
3971,-0.08,-1.53,7.35,0.05,-0.03,0.40
3976,-1.38,-0.38,7.93,0.05,-0.03,0.40
3981,-1.38,-0.38,7.93,0.05,0.12,0.32
3986,-1.38,-0.38,7.93,0.05,0.17,0.27
3990,-1.38,-0.38,7.93,0.04,0.18,0.22
3996,-2.49,-1.23,7.20,0.04,0.18,0.22
4001,-2.49,-1.23,7.20,-0.06,-0.07,0.13
4006,-2.49,-1.23,7.20,-0.13,-0.28,0.11
4011,2.41,-1.00,9.81,-0.13,-0.28,0.11
4016,2.41,-1.00,9.81,-0.10,-0.35,0.10
4021,2.41,-1.00,9.81,-0.10,-0.03,0.10
4026,2.41,-1.00,9.81,-0.14,0.33,0.08
4031,2.41,-1.00,9.81,-0.12,0.39,0.05
4036,2.41,-1.00,9.81,-0.06,0.28,0.04
4040,2.41,-1.00,9.81,-0.05,0.19,0.07
4046,-1.76,0.42,11.98,-0.05,0.19,0.07
4051,-1.76,0.42,11.98,-0.07,0.04,0.17
4056,-1.76,0.42,11.98,-0.06,-0.02,0.20
4061,-1.76,0.42,11.98,-0.06,-0.07,0.20
4066,-1.76,0.42,11.98,-0.10,-0.08,0.15
4071,-1.76,0.42,11.98,-0.13,-0.03,0.10
4075,-1.76,0.42,11.98,-0.14,0.02,0.01
4081,-0.84,2.14,8.01,-0.14,0.02,0.01
4086,-0.84,2.14,8.01,-0.23,-0.02,-0.12
4091,-0.84,2.14,8.01,-0.28,-0.05,-0.15
4096,-0.84,2.14,8.01,-0.28,-0.05,-0.21
4101,-0.84,2.14,8.01,-0.28,0.06,-0.27
4106,-0.84,2.14,8.01,-0.30,0.21,-0.31
4110,-0.84,2.14,8.01,-0.29,0.26,-0.39
4116,-3.75,0.04,6.78,-0.29,0.26,-0.39
4121,-3.75,0.04,6.78,-0.27,0.12,-0.52
4126,-3.75,0.04,6.78,-0.27,0.02,-0.54
4131,-3.75,0.04,6.78,-0.25,-0.07,-0.54
4136,-3.75,0.04,6.78,-0.23,-0.11,-0.52
4141,-3.75,0.04,6.78,-0.18,-0.03,-0.52
4145,-3.75,0.04,6.78,-0.17,0.11,-0.54
4151,-1.72,-0.08,10.53,-0.17,0.11,-0.54
4156,-1.72,-0.08,10.53,-0.13,0.17,-0.53
4161,-1.72,-0.08,10.53,-0.14,0.10,-0.53
4166,-1.72,-0.08,10.53,-0.17,0.00,-0.53
4171,-1.72,-0.08,10.53,-0.18,-0.05,-0.53
4176,-1.72,-0.08,10.53,-0.16,-0.03,-0.52
4181,-1.72,-0.08,10.53,-0.12,0.05,-0.51
4186,-1.72,-0.08,10.53,-0.08,0.14,-0.50
4191,-1.72,-0.08,10.53,-0.05,0.20,-0.51
4195,-1.72,-0.08,10.53,-0.02,0.21,-0.52
4201,-3.33,0.30,6.86,-0.02,0.21,-0.52
4206,-3.33,0.30,6.86,-0.05,0.07,-0.55
4211,-3.33,0.30,6.86,-0.09,-0.03,-0.59
4215,-3.33,0.30,6.86,-0.10,-0.15,-0.62
4221,0.23,-0.11,11.54,-0.10,-0.15,-0.62
4226,0.23,-0.11,11.54,-0.11,-0.29,-0.56
4230,0.23,-0.11,11.54,-0.06,-0.21,-0.52
4236,2.80,0.11,12.49,-0.06,-0.21,-0.52
4241,2.80,0.11,12.49,-0.05,0.18,-0.48
4246,2.80,0.11,12.49,0.02,0.16,-0.43
4250,2.80,0.11,12.49,0.07,0.08,-0.40
4257,-0.96,-1.23,7.82,0.07,0.08,-0.40
4261,-0.96,-1.23,7.82,0.11,-0.03,-0.30
4265,-0.96,-1.23,7.82,0.13,-0.05,-0.28
4271,-1.42,-2.18,8.04,0.13,-0.05,-0.28
4276,-1.42,-2.18,8.04,0.18,-0.06,-0.22
4281,-1.42,-2.18,8.04,0.20,-0.04,-0.20
4286,-1.42,-2.18,8.04,0.20,-0.01,-0.19
4291,-1.46,-0.96,8.89,0.20,-0.01,-0.19
4296,-1.46,-0.96,8.89,0.18,-0.10,-0.18
4300,-1.46,-0.96,8.89,0.17,-0.15,-0.19
4306,2.14,-2.45,9.96,0.17,-0.15,-0.19
4311,2.14,-2.45,9.96,0.20,-0.01,-0.12
4316,2.14,-2.45,9.96,0.24,0.05,-0.08
4321,2.14,-2.45,9.96,0.28,0.04,-0.03
4326,-2.57,-1.19,9.77,0.28,0.04,-0.03
4331,-2.57,-1.19,9.77,0.29,-0.01,-0.00
4335,-2.57,-1.19,9.77,0.29,-0.04,0.00
4341,0.50,-2.30,10.80,0.29,-0.04,0.00
4346,0.50,-2.30,10.80,0.30,-0.12,0.06
4350,0.50,-2.30,10.80,0.31,-0.09,0.08
4356,0.50,-2.30,10.80,0.33,-0.02,0.12
4361,0.50,-2.30,10.80,0.34,0.02,0.14
4366,0.50,-2.30,10.80,0.35,0.00,0.15
4370,0.50,-2.30,10.80,0.34,-0.03,0.16
4376,-1.88,-1.00,9.42,0.34,-0.03,0.16
4381,-1.88,-1.00,9.42,0.36,-0.05,0.22
4385,-1.88,-1.00,9.42,0.36,-0.09,0.24
4391,-1.88,-1.00,9.42,0.36,-0.13,0.27
4396,-1.88,-1.00,9.42,0.36,-0.12,0.28
4401,-1.88,-1.00,9.42,0.33,-0.05,0.30
4405,-1.88,-1.00,9.42,0.34,-0.02,0.32
4411,-0.57,-1.07,6.02,0.34,-0.02,0.32
4416,-0.57,-1.07,6.02,0.36,-0.02,0.37
4420,-0.57,-1.07,6.02,0.34,-0.01,0.38
4426,-0.57,-1.07,6.02,0.31,-0.02,0.39
4431,-0.57,-1.07,6.02,0.33,-0.08,0.40
4436,-0.57,-1.07,6.02,0.34,-0.13,0.42
4440,-0.57,-1.07,6.02,0.36,-0.13,0.46
4446,-0.61,-1.61,9.58,0.36,-0.13,0.46
4451,-0.61,-1.61,9.58,0.36,-0.05,0.49
4455,-0.61,-1.61,9.58,0.37,-0.08,0.48
4461,0.46,-1.04,8.78,0.37,-0.08,0.48
4466,0.46,-1.04,8.78,0.38,-0.11,0.49
4471,0.46,-1.04,8.78,0.37,-0.05,0.50
4476,0.46,-1.04,8.78,0.34,0.01,0.49
4481,-1.91,-0.61,9.20,0.34,0.01,0.49
4486,-1.91,-0.61,9.20,0.32,-0.04,0.46
4490,-1.91,-0.61,9.20,0.31,-0.09,0.45
4496,-2.03,-1.07,10.00,0.31,-0.09,0.45
4501,-2.03,-1.07,10.00,0.28,-0.05,0.40
4506,-2.03,-1.07,10.00,0.28,-0.07,0.39
4511,-2.03,-1.07,10.00,0.28,-0.10,0.38
4516,-0.61,-0.19,9.69,0.28,-0.10,0.38
4521,-0.61,-0.19,9.69,0.24,-0.06,0.33
4525,-0.61,-0.19,9.69,0.22,-0.03,0.31
4531,-0.61,0.69,8.32,0.22,-0.03,0.31
4536,-0.61,0.69,8.32,0.20,-0.03,0.31
4540,-0.61,0.69,8.32,0.17,-0.03,0.30
4546,-0.61,0.69,8.32,0.16,-0.04,0.29
4551,1.00,-0.04,11.41,0.16,-0.04,0.29
4556,1.00,-0.04,11.41,0.13,-0.03,0.34
4560,1.00,-0.04,11.41,0.13,0.04,0.37
4566,0.00,0.30,10.27,0.13,0.04,0.37
4571,0.00,0.30,10.27,0.15,0.02,0.40
4575,0.00,0.30,10.27,0.16,0.01,0.43
4581,0.00,0.30,10.27,0.15,0.03,0.46
4586,-3.18,1.34,7.09,0.15,0.03,0.46
4591,-3.18,1.34,7.09,0.12,0.02,0.47
4595,-3.18,1.34,7.09,0.09,-0.05,0.47
4601,-0.19,0.38,10.04,0.09,-0.05,0.47
4605,-0.19,0.38,10.04,0.01,-0.23,0.45
4610,-0.19,0.38,10.04,0.01,-0.25,0.45
4616,-0.19,0.38,10.04,-0.01,-0.12,0.44
4621,-0.19,0.38,10.04,-0.05,0.07,0.42
4626,-0.19,0.38,10.04,-0.06,0.15,0.41
4631,-0.19,0.38,10.04,-0.05,0.11,0.40
4636,-1.61,0.23,9.00,-0.05,0.11,0.40
4641,-1.61,0.23,9.00,-0.04,-0.00,0.38
4645,-1.61,0.23,9.00,-0.04,0.00,0.39
4651,-1.61,0.23,9.00,-0.05,0.04,0.38
4656,-1.61,0.23,9.00,-0.05,0.06,0.37
4661,-1.61,0.23,9.00,-0.04,0.06,0.36
4666,-1.61,0.23,9.00,-0.04,0.04,0.34
4671,-2.11,-0.84,8.12,-0.04,0.04,0.34
4676,-2.11,-0.84,8.12,-0.06,-0.04,0.31
4680,-2.11,-0.84,8.12,-0.07,-0.08,0.28
4686,0.80,-1.53,8.42,-0.07,-0.08,0.28
4691,0.80,-1.53,8.42,-0.10,0.04,0.25
4695,0.80,-1.53,8.42,-0.11,0.09,0.22
4701,0.80,-1.53,8.42,-0.11,0.05,0.22
4706,0.00,-0.50,9.69,-0.11,0.05,0.22
4711,0.00,-0.50,9.69,-0.10,-0.04,0.23
4715,0.00,-0.50,9.69,-0.11,0.00,0.22
4721,1.30,-0.57,11.22,-0.11,0.00,0.22
4725,1.30,-0.57,11.22,-0.13,0.05,0.20
4730,1.30,-0.57,11.22,-0.13,0.03,0.20
4736,1.30,-0.57,11.22,-0.12,0.04,0.21
4741,1.27,0.19,10.61,-0.12,0.04,0.21
4746,1.27,0.19,10.61,-0.12,0.11,0.23
4750,1.27,0.19,10.61,-0.13,0.13,0.23
4756,-1.34,0.65,10.53,-0.13,0.13,0.23
4761,-1.34,0.65,10.53,-0.14,0.12,0.19
4765,-1.34,0.65,10.53,-0.15,0.09,0.21
4771,-1.34,0.65,10.53,-0.17,0.03,0.23
4776,1.88,0.69,10.34,-0.17,0.03,0.23
4781,1.88,0.69,10.34,-0.19,-0.03,0.23
4785,1.88,0.69,10.34,-0.21,0.07,0.20
4791,0.42,0.46,8.12,-0.21,0.07,0.20
4796,0.42,0.46,8.12,-0.24,0.20,0.20
4800,0.42,0.46,8.12,-0.25,0.15,0.20
4806,0.42,0.46,8.12,-0.25,0.10,0.20
4811,-1.27,0.19,10.23,-0.25,0.10,0.20
4816,-1.27,0.19,10.23,-0.25,0.06,0.18
4821,-1.27,0.19,10.23,-0.23,0.06,0.19
4826,0.42,-0.96,9.58,-0.23,0.06,0.19
4831,0.42,-0.96,9.58,-0.21,0.09,0.22
4835,0.42,-0.96,9.58,-0.20,0.11,0.22
4841,0.30,-1.15,9.20,-0.20,0.11,0.22
4845,0.30,-1.15,9.20,-0.20,0.08,0.21
4850,0.30,-1.15,9.20,-0.20,0.08,0.21
4855,0.30,-1.15,9.20,-0.22,0.12,0.21
4860,0.08,-0.92,10.77,-0.22,0.12,0.21
4866,0.08,-0.92,10.77,-0.24,0.14,0.20
4870,0.08,-0.92,10.77,-0.26,0.13,0.16
4876,0.08,-0.92,10.77,-0.27,0.10,0.16
4881,0.08,-0.92,10.77,-0.25,0.09,0.16
4886,0.08,-0.92,10.77,-0.25,0.08,0.13
4891,0.08,-0.92,10.77,-0.26,0.06,0.13
4896,0.46,0.00,9.16,-0.26,0.06,0.13
4901,0.46,0.00,9.16,-0.28,0.04,0.09
4905,0.46,0.00,9.16,-0.30,0.08,0.05
4911,-0.77,0.15,8.46,-0.30,0.08,0.05
4916,-0.77,0.15,8.46,-0.32,0.09,-0.00
4920,-0.77,0.15,8.46,-0.32,0.05,-0.01
4926,-0.77,0.15,8.46,-0.33,0.06,-0.03
4831,0.42,-0.96,9.58,-0.21,0.09,0.22
4835,0.42,-0.96,9.58,-0.20,0.11,0.22
4841,0.30,-1.15,9.20,-0.20,0.11,0.22
4845,0.30,-1.15,9.20,-0.20,0.08,0.21
4850,0.30,-1.15,9.20,-0.20,0.08,0.21
4855,0.30,-1.15,9.20,-0.22,0.12,0.21
4860,0.08,-0.92,10.77,-0.22,0.12,0.21
4866,0.08,-0.92,10.77,-0.24,0.14,0.20
4870,0.08,-0.92,10.77,-0.26,0.13,0.16
4876,0.08,-0.92,10.77,-0.27,0.10,0.16
4881,0.08,-0.92,10.77,-0.25,0.09,0.16
4886,0.08,-0.92,10.77,-0.25,0.08,0.13
4891,0.08,-0.92,10.77,-0.26,0.06,0.13
4896,0.46,0.00,9.16,-0.26,0.06,0.13
4901,0.46,0.00,9.16,-0.28,0.04,0.09
