timestamp,accX,accY,accZ,gyroX,gyroY,gyroZ
Right
7,2.45,2.53,8.85,-0.01,0.00,0.00
19,2.45,2.53,8.85,0.00,0.00,-0.00
21,2.45,0.34,10.57,0.00,0.00,-0.00
22,2.45,0.34,10.57,-0.05,0.03,-0.27
26,-3.68,0.50,6.63,-0.05,0.03,-0.27
31,-3.68,0.50,6.63,-0.09,0.13,-0.26
37,-4.67,1.53,6.86,-0.09,0.13,-0.26
41,-0.69,-1.53,7.66,-0.09,0.13,-0.26
46,-1.99,0.15,8.39,-0.09,0.13,-0.26
51,0.27,-1.57,10.00,-0.09,0.13,-0.26
57,0.46,-0.34,10.57,-0.09,0.13,-0.26
61,2.41,-1.91,13.14,-0.09,0.13,-0.26
66,2.91,-0.84,13.18,-0.09,0.13,-0.26
72,2.91,-0.84,13.18,-0.06,0.09,-0.21
76,-0.30,-2.14,11.49,-0.06,0.09,-0.21
81,0.34,-1.88,10.91,-0.06,0.09,-0.21
87,-0.42,-1.27,11.26,-0.06,0.09,-0.21
91,2.18,-0.34,12.26,-0.06,0.09,-0.21
96,2.30,-0.04,11.45,-0.06,0.09,-0.21
101,0.19,0.15,9.93,-0.06,0.09,-0.21
107,0.19,0.15,9.93,-0.01,0.06,-0.18
111,-1.34,-0.19,7.70,-0.01,0.06,-0.18
116,-0.38,-0.69,7.74,-0.01,0.06,-0.18
122,1.49,-1.34,9.38,-0.01,0.06,-0.18
126,0.96,-0.11,10.49,-0.01,0.06,-0.18
131,1.80,-0.38,9.84,-0.01,0.06,-0.18
136,-0.65,-0.38,8.35,-0.01,0.06,-0.18
142,-0.65,-0.38,8.35,-0.04,0.09,-0.20
146,-0.42,-0.92,8.73,-0.04,0.09,-0.20
151,-1.30,-0.61,8.88,-0.04,0.09,-0.20
157,-1.30,-0.61,8.88,0.01,-0.04,-0.16
162,-0.77,-0.08,7.59,0.01,-0.04,-0.16
166,-0.77,-0.08,7.59,0.01,-0.14,-0.15
171,0.65,-0.23,9.50,0.01,-0.14,-0.15
177,2.49,-1.00,9.65,0.01,-0.14,-0.15
182,1.72,-0.42,10.65,0.01,-0.14,-0.15
186,1.72,-0.42,10.65,0.01,-0.03,-0.15
191,1.65,-1.65,8.50,0.01,-0.03,-0.15
197,1.65,-1.65,8.50,0.03,-0.04,-0.13
202,3.37,-1.68,10.23,0.03,-0.04,-0.13
206,0.84,-0.19,9.88,0.03,-0.04,-0.13
211,1.27,-1.84,10.65,0.03,-0.04,-0.13
216,-0.19,-1.30,9.85,0.03,-0.04,-0.13
221,-1.91,-0.92,9.16,0.03,-0.04,-0.13
227,-1.91,-0.92,9.16,0.08,0.11,-0.12
232,-4.21,-0.46,9.54,0.08,0.11,-0.12
236,-4.21,-0.46,9.54,0.09,0.08,-0.07
241,-1.61,0.19,8.24,0.09,0.08,-0.07
246,-0.50,0.34,7.01,0.09,0.08,-0.07
251,0.54,0.04,8.89,0.09,0.08,-0.07
257,1.91,0.23,8.04,0.09,0.08,-0.07
261,3.48,-0.46,10.30,0.09,0.08,-0.07
266,5.36,-1.15,10.65,0.09,0.08,-0.07
271,4.98,-1.53,9.12,0.09,0.08,-0.07
277,5.67,-0.96,9.61,0.09,0.08,-0.07
281,2.84,-1.99,10.19,0.09,0.08,-0.07
286,-6.13,-0.57,10.42,0.09,0.08,-0.07
291,-14.90,-0.96,9.88,0.09,0.08,-0.07
297,-10.73,-2.45,13.21,0.09,0.08,-0.07
302,-8.08,1.61,12.30,0.09,0.08,-0.07
306,-8.08,1.61,12.30,0.12,0.20,-0.24
311,-8.08,1.61,12.30,0.11,0.02,-0.30
316,3.14,1.46,10.30,0.11,0.02,-0.30
321,6.05,0.80,8.31,0.11,0.02,-0.30
327,11.96,-0.42,7.93,0.11,0.02,-0.30
331,11.07,-1.68,8.04,0.11,0.02,-0.30
336,5.90,0.77,7.17,0.11,0.02,-0.30
341,0.27,0.77,7.55,0.11,0.02,-0.30
347,-6.16,0.80,6.09,0.11,0.02,-0.30
351,-8.12,1.00,5.17,0.11,0.02,-0.30
356,-6.66,2.68,7.93,0.11,0.02,-0.30
362,-5.25,4.25,7.43,0.11,0.02,-0.30
366,1.53,3.95,7.77,0.11,0.02,-0.30
371,4.02,2.61,6.59,0.11,0.02,-0.30
376,3.91,0.88,6.36,0.11,0.02,-0.30
382,6.40,-3.29,9.89,0.11,0.02,-0.30
387,4.02,-5.71,15.82,0.11,0.02,-0.30
391,4.02,-5.71,15.82,0.19,0.38,-0.05
396,-2.22,-2.45,13.45,0.19,0.38,-0.05
401,1.00,0.84,9.54,0.19,0.38,-0.05
406,4.41,0.11,11.91,0.19,0.38,-0.05
412,1.57,0.19,10.27,0.19,0.38,-0.05
416,-0.80,-2.26,9.04,0.19,0.38,-0.05
421,-0.23,-3.26,8.54,0.19,0.38,-0.05
426,0.54,-3.41,7.20,0.19,0.38,-0.05
432,-0.92,-2.68,9.96,0.19,0.38,-0.05
436,-2.95,-0.80,9.20,0.19,0.38,-0.05
441,-4.14,-0.57,9.08,0.19,0.38,-0.05
446,-6.21,-0.19,8.08,0.19,0.38,-0.05
452,-5.79,-0.92,8.92,0.19,0.38,-0.05
457,-0.11,-1.46,9.46,0.19,0.38,-0.05
461,-0.11,-1.46,9.46,0.22,-0.23,0.19
466,3.71,-2.26,8.23,0.22,-0.23,0.19
471,0.80,-0.57,7.36,0.22,-0.23,0.19
476,-0.04,-0.54,8.35,0.22,-0.23,0.19
481,-1.84,-1.38,6.79,0.22,-0.23,0.19
487,-1.80,-1.38,6.97,0.22,-0.23,0.19
492,-4.06,-1.19,7.74,0.22,-0.23,0.19
496,-4.06,-1.19,7.74,0.29,0.03,0.51
501,-1.23,-0.84,8.01,0.29,0.03,0.51
506,-1.23,-0.80,8.32,0.29,0.03,0.51
511,-0.15,-0.73,8.81,0.29,0.03,0.51
517,2.30,-2.99,9.73,0.29,0.03,0.51
521,1.65,-1.46,10.96,0.29,0.03,0.51
526,1.88,-1.27,11.04,0.29,0.03,0.51
532,2.38,-2.53,10.27,0.29,0.03,0.51
536,-1.15,-1.04,10.54,0.29,0.03,0.51
541,-0.92,-2.49,10.96,0.29,0.03,0.51
546,0.42,-2.18,10.49,0.29,0.03,0.51
551,-1.00,-1.04,9.85,0.29,0.03,0.51
557,-1.80,-1.15,8.66,0.29,0.03,0.51
562,1.42,-0.19,5.86,0.29,0.03,0.51
566,1.42,-0.19,5.86,0.23,-0.15,0.65
571,1.42,-0.19,5.86,0.23,-0.14,0.61
576,-0.65,-1.61,9.08,0.23,-0.14,0.61
581,-0.73,-2.11,11.26,0.23,-0.14,0.61
587,-1.04,-2.61,11.60,0.23,-0.14,0.61
591,-0.19,-1.99,11.95,0.23,-0.14,0.61
597,-1.07,-1.95,10.77,0.23,-0.14,0.61
601,-1.07,-1.95,10.77,0.30,-0.13,0.68
606,3.41,-1.76,10.61,0.30,-0.13,0.68
611,4.14,-0.84,11.80,0.30,-0.13,0.68
616,4.14,-0.84,11.80,0.32,-0.09,0.62
621,5.82,-0.92,13.91,0.32,-0.09,0.62
626,5.82,-0.92,13.91,0.31,0.02,0.56
633,-2.38,-0.57,10.95,0.31,0.02,0.56
636,-2.38,-0.57,10.95,0.26,0.10,0.49
641,-1.04,0.57,10.19,0.26,0.10,0.49
647,-1.61,0.96,8.08,0.26,0.10,0.49
651,-1.61,0.96,8.08,0.15,-0.13,0.28
657,-1.04,1.61,8.77,0.15,-0.13,0.28
662,-0.61,1.99,9.38,0.15,-0.13,0.28
666,-0.61,1.99,9.38,0.05,-0.15,0.12
671,-0.61,1.99,9.38,0.03,-0.09,0.04
676,3.91,0.88,12.64,0.03,-0.09,0.04
682,1.30,1.88,11.04,0.03,-0.09,0.04
686,1.30,1.88,11.04,0.00,0.04,-0.15
692,1.30,1.88,11.04,-0.01,0.05,-0.15
697,1.91,2.91,9.89,-0.01,0.05,-0.15
701,1.91,2.91,9.89,-0.01,-0.06,-0.24
706,1.91,2.91,9.89,-0.03,-0.03,-0.30
711,2.26,4.29,10.00,-0.03,-0.03,-0.30
717,2.91,3.29,9.61,-0.03,-0.03,-0.30
721,2.91,3.29,9.61,-0.06,0.09,-0.38
726,-0.80,2.64,7.70,-0.06,0.09,-0.38
731,0.04,3.22,7.39,-0.06,0.09,-0.38
737,-0.46,2.45,8.27,-0.06,0.09,-0.38
742,-0.46,2.45,8.27,-0.13,0.01,-0.55
746,6.21,1.68,13.79,-0.13,0.01,-0.55
751,-0.61,2.30,11.68,-0.13,0.01,-0.55
757,-6.05,2.76,10.39,-0.13,0.01,-0.55
761,-6.32,1.68,7.24,-0.13,0.01,-0.55
766,-3.98,1.34,7.93,-0.13,0.01,-0.55
771,-2.61,3.87,8.58,-0.13,0.01,-0.55
777,-1.84,3.37,6.82,-0.13,0.01,-0.55
781,2.84,1.84,10.23,-0.13,0.01,-0.55
787,2.84,1.53,8.42,-0.13,0.01,-0.55
791,2.84,1.53,8.42,-0.23,-0.38,-0.94
796,4.83,-0.96,10.15,-0.23,-0.38,-0.94
801,2.11,-0.80,9.04,-0.23,-0.38,-0.94
807,-0.54,-1.07,8.62,-0.23,-0.38,-0.94
811,-0.54,-1.07,8.62,-0.14,0.45,-0.80
816,-1.80,-0.69,8.46,-0.14,0.45,-0.80
822,-0.96,0.04,9.23,-0.14,0.45,-0.80
826,-0.96,0.04,9.23,-0.03,-0.11,-0.60
831,-0.96,0.04,9.23,-0.07,-0.22,-0.64
836,-1.84,-1.00,9.92,-0.07,-0.22,-0.64
842,-0.80,-2.80,11.07,-0.07,-0.22,-0.64
846,0.23,-3.91,8.54,-0.07,-0.22,-0.64
851,-0.84,-4.94,8.73,-0.07,-0.22,-0.64
857,-1.07,-3.48,9.61,-0.07,-0.22,-0.64
861,-1.07,-3.48,9.61,0.15,0.04,-0.12
866,-0.11,-3.87,10.61,0.15,0.04,-0.12
872,-1.38,-3.79,9.43,0.15,0.04,-0.12
876,-1.38,-3.79,9.43,0.23,0.03,0.13
882,-2.49,-4.45,7.36,0.23,0.03,0.13
887,-3.26,-4.94,7.36,0.23,0.03,0.13
891,-3.26,-4.94,7.36,0.35,0.05,0.54
896,-3.26,-4.94,7.36,0.39,-0.01,0.69
901,-3.52,-3.98,6.71,0.39,-0.01,0.69
907,-3.68,-4.94,8.12,0.39,-0.01,0.69
911,-3.68,-4.94,8.12,0.46,-0.18,1.01
917,-0.54,-5.52,12.52,0.46,-0.18,1.01
922,0.11,-4.37,11.45,0.46,-0.18,1.01
927,0.11,-4.37,11.45,0.59,-0.11,1.22
931,0.11,-4.37,11.45,0.59,-0.08,1.30
936,-1.11,-4.86,8.93,0.59,-0.08,1.30
942,-2.14,-4.71,8.27,0.59,-0.08,1.30
946,-2.14,-4.71,8.27,0.59,-0.03,1.53
952,-2.14,-4.71,8.27,0.63,-0.10,1.60
957,0.08,-3.26,11.76,0.63,-0.10,1.60
961,0.08,-3.26,11.76,0.59,-0.01,1.57
966,0.08,-3.26,11.76,0.60,0.05,1.63
971,-0.57,-3.14,10.96,0.60,0.05,1.63
977,0.77,-3.37,10.77,0.60,0.05,1.63
981,0.77,-3.37,10.77,0.66,-0.19,1.78
986,-3.75,-2.03,7.47,0.66,-0.19,1.78
991,-3.87,-1.61,6.89,0.66,-0.19,1.78
997,-3.10,-3.29,8.16,0.66,-0.19,1.78
1002,-3.10,-3.29,8.16,0.56,-0.12,1.96
1006,-0.88,0.00,6.82,0.56,-0.12,1.96
1011,-1.95,-3.14,5.52,0.56,-0.12,1.96
1017,0.15,-1.88,7.86,0.56,-0.12,1.96
1021,3.10,-0.80,9.16,0.56,-0.12,1.96
1027,6.51,-4.64,13.57,0.56,-0.12,1.96
1031,6.51,-4.64,13.57,0.57,-0.13,1.96
1037,6.51,-4.64,13.57,0.54,-0.07,1.87
1042,0.57,-2.38,13.29,0.54,-0.07,1.87
1046,0.57,-2.38,13.29,0.55,0.06,1.83
1051,0.57,-2.38,13.29,0.60,-0.03,1.87
1056,-0.92,2.87,12.91,0.60,-0.03,1.87
1062,1.84,-2.18,11.34,0.60,-0.03,1.87
1066,1.84,-2.18,11.34,0.38,-0.09,1.61
1071,1.84,-2.18,11.34,0.37,-0.02,1.46
1076,3.45,-1.07,7.70,0.37,-0.02,1.46
1081,3.45,-1.07,7.70,0.34,0.06,1.43
1087,-0.46,-1.49,8.01,0.34,0.06,1.43
1094,-0.46,-1.49,8.01,0.29,0.11,1.42
1097,-1.38,0.50,8.04,0.29,0.11,1.42
1101,-1.38,0.50,8.04,0.18,-0.05,1.22
1106,0.61,-0.46,10.49,0.18,-0.05,1.22
1111,-0.38,-0.15,9.54,0.18,-0.05,1.22
1117,-2.61,1.42,6.89,0.18,-0.05,1.22
1122,-2.61,1.42,6.89,0.13,0.07,1.02
1126,1.95,-0.08,8.62,0.13,0.07,1.02
1132,3.91,2.34,9.23,0.13,0.07,1.02
1136,3.91,2.34,9.23,0.11,-0.11,0.79
1141,0.61,1.46,10.88,0.11,-0.11,0.79
1147,1.15,1.23,9.88,0.11,-0.11,0.79
1151,1.15,1.23,9.88,-0.02,0.15,0.58
1157,1.61,0.50,10.15,-0.02,0.15,0.58
1162,2.87,1.80,11.30,-0.02,0.15,0.58
1167,1.80,3.95,10.65,-0.02,0.15,0.58
1171,1.80,3.95,10.65,-0.12,0.24,0.21
1177,4.18,2.14,9.73,-0.12,0.24,0.21
1182,4.41,2.87,10.92,-0.12,0.24,0.21
1186,4.41,2.87,10.92,-0.13,0.12,-0.11
1192,4.41,2.87,10.92,-0.18,0.27,-0.16
1198,-0.30,2.26,9.69,-0.18,0.27,-0.16
1201,-0.30,2.26,9.69,-0.24,0.26,-0.24
1206,-0.30,2.26,9.69,-0.27,0.13,-0.32
1212,-0.30,2.26,9.69,-0.28,0.03,-0.42
1217,1.53,1.34,10.88,-0.28,0.03,-0.42
1221,1.53,1.34,10.88,-0.24,0.09,-0.48
1226,1.53,1.34,10.88,-0.28,0.18,-0.48
1232,1.53,1.34,10.88,-0.31,0.16,-0.52
1237,3.41,1.04,8.23,-0.31,0.16,-0.52
1241,3.41,1.04,8.23,-0.30,0.00,-0.63
1246,1.38,1.42,9.30,-0.30,0.00,-0.63
1252,1.84,0.54,9.92,-0.30,0.00,-0.63
1256,1.84,0.54,9.92,-0.28,0.19,-0.61
1262,1.38,-0.27,10.91,-0.28,0.19,-0.61
1267,1.15,0.42,10.65,-0.28,0.19,-0.61
1273,1.15,0.42,10.65,-0.22,0.11,-0.57
1277,1.15,0.42,10.65,-0.23,0.15,-0.58
1282,1.15,0.42,10.65,-0.20,0.16,-0.51
1288,0.11,-0.30,8.70,-0.20,0.16,-0.51
1291,0.11,-0.30,8.70,-0.16,0.08,-0.36
1296,0.11,-0.30,8.70,-0.16,0.05,-0.32
1302,-1.42,-0.08,8.42,-0.16,0.05,-0.32
1306,-1.42,-0.08,8.42,-0.16,0.04,-0.21
1311,-1.42,-0.08,8.42,-0.16,0.04,-0.15
1317,-3.71,1.46,8.46,-0.16,0.04,-0.15
1322,-5.05,4.41,7.59,-0.16,0.04,-0.15
1326,-5.05,4.41,7.59,-0.17,0.09,0.10
1332,-5.05,4.41,7.59,-0.21,-0.01,0.23
1337,3.29,-3.41,10.41,-0.21,-0.01,0.23
1342,3.29,-3.41,10.41,-0.08,-0.33,0.30
1346,3.29,-3.41,10.41,0.09,-0.29,0.37
1352,3.29,-3.41,10.41,0.22,-0.04,0.59
1357,4.02,-4.94,11.07,0.22,-0.04,0.59
1362,4.02,-4.94,11.07,0.36,0.17,0.78
1367,4.02,-4.94,11.07,0.40,0.08,0.84
1372,1.38,6.78,9.61,0.40,0.08,0.84
1377,1.38,6.78,9.61,0.19,0.14,0.74
1382,1.38,6.78,9.61,0.04,0.26,0.65
1387,-3.10,-2.34,9.42,0.04,0.26,0.65
1392,-7.32,-3.83,8.50,0.04,0.26,0.65
1397,-7.32,-3.83,8.50,-0.07,0.09,0.46
1402,-7.32,-3.83,8.50,-0.05,-0.04,0.46
1407,0.11,-11.49,12.87,-0.05,-0.04,0.46
1412,0.11,-11.49,12.87,0.20,-0.47,0.70
1417,0.11,-11.49,12.87,0.33,-0.49,0.63
1423,6.32,-2.76,10.31,0.33,-0.49,0.63
1426,6.32,-2.76,10.31,0.20,0.32,0.56
1431,6.32,-2.76,10.31,0.11,0.56,0.57
1437,-7.55,-2.41,4.94,0.11,0.56,0.57
1442,-6.36,-3.98,7.24,0.11,0.56,0.57
1446,-6.36,-3.98,7.24,0.16,0.12,0.92
1452,-6.36,-3.98,7.24,0.23,-0.12,1.08
1456,-0.04,-2.14,11.15,0.23,-0.12,1.08
1462,0.08,-0.69,10.27,0.23,-0.12,1.08
1466,0.08,-0.69,10.27,0.40,-0.50,1.17
1472,0.08,-0.69,10.27,0.43,-0.28,1.26
1477,8.04,1.72,14.29,0.43,-0.28,1.26
1482,8.04,1.72,14.29,0.32,0.30,1.20
1486,8.04,1.72,14.29,0.28,0.33,1.20
1491,8.04,1.72,14.29,0.25,0.24,1.20
1497,-4.06,0.04,9.73,0.25,0.24,1.20
1501,-4.06,0.04,9.73,0.18,0.19,1.19
1506,-4.06,0.04,9.73,0.18,0.22,1.21
1511,-0.46,0.73,7.97,0.18,0.22,1.21
1516,-0.46,0.73,7.97,0.20,0.19,1.29
1522,-0.46,0.73,7.97,0.20,0.15,1.33
1528,-0.46,0.73,7.97,0.16,0.13,1.32
1532,-0.46,0.73,7.97,0.13,0.10,1.46
1537,-0.46,0.73,7.97,0.13,0.06,1.54
1542,-4.60,-0.27,9.00,0.13,0.06,1.54
1547,-1.00,-2.84,9.34,0.13,0.06,1.54
1551,-1.00,-2.84,9.34,0.14,-0.19,1.64
1556,-1.00,-2.84,9.34,0.17,-0.26,1.59
1562,-1.38,-0.73,9.92,0.17,-0.26,1.59
1566,-1.38,-0.73,9.92,0.14,0.06,1.51
1572,-1.38,-0.73,9.92,0.12,0.21,1.54
1578,-0.57,1.38,9.43,0.12,0.21,1.54
1582,-0.57,1.38,9.43,0.08,0.04,1.46
1587,-0.57,1.38,9.43,0.05,-0.02,1.42
1592,-0.57,1.38,9.43,-0.01,0.10,1.34
1597,-0.84,0.96,12.41,-0.01,0.10,1.34
1602,-0.84,0.96,12.41,-0.06,0.22,1.24
1606,-0.84,0.96,12.41,-0.05,0.10,1.18
1611,-0.84,0.96,12.41,-0.06,-0.00,1.11
1617,1.00,0.65,9.42,-0.06,-0.00,1.11
1622,1.00,0.65,9.42,-0.10,0.22,1.05
1627,1.00,0.65,9.42,-0.18,0.35,1.05
1632,-2.18,3.14,7.74,-0.18,0.35,1.05
1637,-2.18,3.14,7.74,-0.27,0.22,0.94
1642,-2.18,3.14,7.74,-0.31,0.08,0.85
1646,4.52,-2.14,13.29,-0.31,0.08,0.85
1651,4.29,-2.57,13.71,-0.31,0.08,0.85
1656,4.29,-2.57,13.71,-0.19,-0.04,0.71
1662,4.29,-2.57,13.71,-0.17,0.16,0.71
1668,4.29,-2.57,13.71,-0.17,0.36,0.71
1671,4.29,-2.57,13.71,-0.21,0.29,0.58
1676,4.29,-2.57,13.71,-0.27,0.21,0.51
1682,0.80,2.72,9.12,-0.27,0.21,0.51
1686,0.80,2.72,9.12,-0.38,0.26,0.34
1692,0.80,2.72,9.12,-0.42,0.33,0.26
1697,1.15,2.45,9.54,-0.42,0.33,0.26
1702,-0.15,2.49,7.24,-0.42,0.33,0.26
1706,-0.15,2.49,7.24,-0.43,0.33,0.20
1711,-0.15,2.49,7.24,-0.52,0.35,0.21
1717,-2.68,3.33,7.20,-0.52,0.35,0.21
1722,-2.68,3.33,7.20,-0.54,0.28,0.17
1726,-2.68,3.33,7.20,-0.55,0.19,0.14
1732,-2.68,3.33,7.20,-0.55,0.13,0.16
1738,-2.68,0.92,2.57,-0.55,0.13,0.16
1741,-2.68,0.92,2.57,-0.55,0.09,0.25
1746,-2.68,0.92,2.57,-0.53,0.00,0.31
1752,-2.68,0.92,2.57,-0.45,-0.13,0.36
1756,-2.68,0.92,2.57,-0.32,-0.13,0.30
1761,-2.68,0.92,2.57,-0.33,0.16,0.15
1767,6.89,-1.57,18.88,-0.33,0.16,0.15
1773,0.65,-0.69,14.94,-0.33,0.16,0.15
1776,0.65,-0.69,14.94,-0.33,0.57,-0.17
1782,0.65,-0.69,14.94,-0.41,0.50,-0.20
1787,-6.82,4.14,2.61,-0.41,0.50,-0.20
1792,-6.82,4.14,2.61,-0.68,0.45,-0.35
1796,-6.82,4.14,2.61,-0.82,0.41,-0.42
1801,-1.72,4.06,4.21,-0.82,0.41,-0.42
1807,-0.04,2.41,7.66,-0.82,0.41,-0.42
1811,-0.04,2.41,7.66,-0.79,-0.02,-0.39
1817,-0.04,2.41,7.66,-0.70,-0.11,-0.36
1822,1.72,-2.26,14.21,-0.70,-0.11,-0.36
1827,1.72,-2.26,14.21,-0.48,-0.06,-0.22
1832,1.72,-2.26,14.21,-0.38,0.07,-0.15
1837,2.68,1.72,10.39,-0.38,0.07,-0.15
1842,2.68,1.72,10.39,-0.42,0.25,-0.18
1847,2.68,1.72,10.39,-0.45,0.23,-0.21
1851,2.68,1.72,10.39,-0.57,0.21,-0.24
1858,0.00,3.26,3.33,-0.57,0.21,-0.24
1861,0.00,3.26,3.33,-0.74,0.14,-0.32
1867,0.00,3.26,3.33,-0.78,0.09,-0.43
1872,0.00,3.26,3.33,-0.76,0.07,-0.50
1877,0.00,3.26,3.33,-0.74,0.07,-0.51
1882,0.00,3.26,3.33,-0.67,0.09,-0.49
1887,1.57,0.11,10.84,-0.67,0.09,-0.49
1893,2.84,0.46,11.46,-0.67,0.09,-0.49
1896,2.84,0.46,11.46,-0.56,-0.00,-0.51
1902,2.84,0.46,11.46,-0.57,0.07,-0.59
1907,1.23,1.53,9.61,-0.57,0.07,-0.59
1912,1.23,1.53,9.61,-0.67,0.34,-0.71
1916,1.23,1.53,9.61,-0.71,0.34,-0.79
1922,-1.15,0.96,9.50,-0.71,0.34,-0.79
1927,-1.07,1.42,10.11,-0.71,0.34,-0.79
1931,-1.07,1.42,10.11,-0.75,0.15,-1.02
1936,-1.07,1.42,10.11,-0.75,0.12,-1.10
1941,4.79,1.61,11.04,-0.75,0.12,-1.10
1948,4.79,1.61,11.04,-0.75,0.08,-1.12
1952,2.30,2.45,10.61,-0.75,0.08,-1.12
1958,-0.11,1.91,8.96,-0.75,0.08,-1.12
1961,-0.11,1.91,8.96,-0.79,0.40,-1.31
1966,-0.11,1.91,8.96,-0.78,0.44,-1.29
1971,-0.11,1.91,8.96,-0.77,0.34,-1.24
1977,-1.30,5.86,5.36,-0.77,0.34,-1.24
1981,-1.30,5.86,5.36,-0.79,0.21,-1.15
1987,-1.30,5.86,5.36,-0.78,0.21,-1.12
1991,-1.30,5.86,5.36,-0.77,0.23,-1.02
1998,-3.71,2.68,1.61,-0.77,0.23,-1.02
2002,-3.71,2.68,1.61,-0.72,0.20,-0.80
2007,-3.71,2.68,1.61,-0.68,0.10,-0.70
2012,1.11,-4.06,11.26,-0.68,0.10,-0.70
2016,1.11,-4.06,11.26,-0.47,-0.29,-0.44
2022,1.11,-4.06,11.26,-0.43,-0.38,-0.39
2026,6.74,-2.99,20.38,-0.43,-0.38,-0.39
2033,8.70,-1.27,20.19,-0.43,-0.38,-0.39
2037,8.70,-1.27,20.19,-0.41,0.18,-0.57
2042,8.70,-1.27,20.19,-0.46,0.43,-0.62
2047,-2.53,-1.65,8.78,-0.46,0.43,-0.62
2051,-2.53,-1.65,8.78,-0.48,0.41,-0.64
2057,-2.53,-1.65,8.78,-0.54,0.37,-0.65
2062,-4.17,-1.65,2.26,-0.54,0.37,-0.65
2066,-4.17,-1.65,2.26,-0.62,0.18,-0.69
2071,-4.17,-1.65,2.26,-0.59,0.04,-0.70
2077,-4.17,-1.65,2.26,-0.55,-0.13,-0.64
2082,2.26,-4.64,8.32,-0.55,-0.13,-0.64
2086,2.26,-4.64,8.32,-0.37,-0.27,-0.62
2091,2.26,-4.64,8.32,-0.36,0.05,-0.62
2097,-10.19,-2.11,8.31,-0.36,0.05,-0.62
2101,-10.19,-2.11,8.31,-0.35,0.63,-0.50
2106,-10.19,-2.11,8.31,-0.28,0.49,-0.46
2112,-10.19,-2.11,8.31,-0.28,0.21,-0.36
2118,2.49,1.46,8.77,-0.28,0.21,-0.36
2121,2.49,1.46,8.77,-0.38,-0.28,-0.54
2127,2.49,1.46,8.77,-0.44,-0.44,-0.53
2132,6.93,1.80,13.14,-0.44,-0.44,-0.53
2137,6.93,1.80,13.14,-0.31,-0.49,-0.40
2142,6.93,1.80,13.14,-0.38,-0.06,-0.65
2146,6.93,1.80,13.14,-0.47,0.37,-0.65
2151,0.73,1.07,10.07,-0.47,0.37,-0.65
2156,0.73,1.07,10.07,-0.42,0.47,-0.58
2162,0.73,1.07,10.07,-0.36,0.35,-0.61
2167,1.72,2.49,9.93,-0.36,0.35,-0.61
2171,1.72,2.49,9.93,-0.47,0.02,-0.60
2177,1.72,2.49,9.93,-0.52,-0.01,-0.65
2182,1.72,2.49,9.93,-0.53,0.01,-0.73
2186,1.72,2.49,9.93,-0.54,0.04,-0.75
2191,1.72,2.49,9.93,-0.53,0.14,-0.73
2197,1.72,2.49,9.93,-0.51,0.26,-0.71
2202,-2.87,-1.04,5.55,-0.51,0.26,-0.71
2206,-2.87,-1.04,5.55,-0.45,0.24,-0.59
2212,-2.87,-1.04,5.55,-0.42,0.11,-0.56
2217,-2.87,-1.04,5.55,-0.46,-0.09,-0.59
2222,-2.87,-1.04,5.55,-0.49,-0.23,-0.68
2227,-2.87,-1.04,5.55,-0.40,-0.21,-0.77
2232,-2.87,-1.04,5.55,-0.42,0.04,-0.76
2237,-2.80,-1.19,8.24,-0.42,0.04,-0.76
2242,-2.80,-1.19,8.24,-0.43,0.40,-0.83
2247,-2.80,-1.19,8.24,-0.36,0.35,-0.83
2252,-2.80,-1.19,8.24,-0.41,0.25,-0.77
2257,-2.80,-1.19,8.24,-0.41,0.07,-0.68
2261,-2.80,-1.19,8.24,-0.44,-0.11,-0.70
2267,-2.80,-1.19,8.24,-0.49,-0.19,-0.87
2272,1.95,-1.53,12.60,-0.49,-0.19,-0.87
2276,1.95,-1.53,12.60,-0.45,0.19,-0.91
2282,1.95,-1.53,12.60,-0.42,0.42,-0.85
2287,1.95,-1.53,12.60,-0.32,0.45,-0.88
2291,1.95,-1.53,12.60,-0.30,0.39,-0.83
2297,1.95,-1.53,12.60,-0.32,0.31,-0.70
2302,1.95,-1.53,12.60,-0.38,0.22,-0.63
2307,-0.88,3.79,2.53,-0.38,0.22,-0.63
2311,-0.88,3.79,2.53,-0.47,-0.09,-0.72
2317,-0.88,3.79,2.53,-0.48,-0.25,-0.74
2322,-0.88,3.79,2.53,-0.44,-0.34,-0.70
2327,-0.88,3.79,2.53,-0.34,-0.33,-0.63
2332,-0.88,3.79,2.53,-0.25,-0.13,-0.57
2336,-0.88,3.79,2.53,-0.24,0.20,-0.60
2342,2.03,-1.84,15.71,-0.24,0.20,-0.60
2347,2.03,-1.84,15.71,-0.31,0.61,-0.75
2351,2.03,-1.84,15.71,-0.31,0.60,-0.73
2357,2.03,-1.84,15.71,-0.31,0.51,-0.66
2362,2.03,-1.84,15.71,-0.36,0.41,-0.66
2367,2.03,-1.84,15.71,-0.40,0.41,-0.78
2372,2.03,-1.84,15.71,-0.43,0.34,-0.80
2377,2.03,-1.84,15.71,-0.39,0.15,-0.69
2382,2.03,-1.84,15.71,-0.36,-0.06,-0.64
2386,2.03,-1.84,15.71,-0.37,-0.23,-0.69
2391,2.03,-1.84,15.71,-0.39,-0.28,-0.74
2396,3.71,-1.95,6.25,-0.39,-0.28,-0.74
2402,3.71,-1.95,6.25,-0.38,-0.25,-0.74
2407,3.71,-1.95,6.25,-0.32,-0.09,-0.66
2412,-2.99,-0.73,9.73,-0.32,-0.09,-0.66
2416,-2.99,-0.73,9.73,-0.30,0.47,-0.59
2422,-2.99,-0.73,9.73,-0.30,0.36,-0.53
2427,-0.84,2.34,7.24,-0.30,0.36,-0.53
2432,-0.84,2.34,7.24,-0.35,0.06,-0.59
2437,-0.84,2.34,7.24,-0.38,-0.03,-0.67
2442,-0.84,2.34,7.24,-0.38,-0.08,-0.65
2446,-0.84,2.34,7.24,-0.35,-0.05,-0.61
2451,-0.84,2.34,7.24,-0.30,0.01,-0.55
2457,-0.84,2.34,7.24,-0.28,0.06,-0.50
2462,2.57,-0.42,10.84,-0.28,0.06,-0.50
2467,2.57,-0.42,10.84,-0.24,0.02,-0.56
2472,2.57,-0.42,10.84,-0.29,0.06,-0.67
2477,2.57,-0.42,10.84,-0.32,0.12,-0.71
2481,2.57,-0.42,10.84,-0.34,0.14,-0.74
2486,2.57,-0.42,10.84,-0.35,0.12,-0.80
2492,2.57,-0.42,10.84,-0.34,0.10,-0.83
2498,1.80,-2.18,10.00,-0.34,0.10,-0.83
2501,1.80,-2.18,10.00,-0.31,0.12,-0.80
2506,1.80,-2.18,10.00,-0.31,0.15,-0.84
2512,1.80,-2.18,10.00,-0.34,0.17,-0.88
2516,1.80,-2.18,10.00,-0.36,0.20,-0.89
2521,1.80,-2.18,10.00,-0.40,0.24,-0.92
2526,1.80,-2.18,10.00,-0.43,0.23,-0.93
2532,1.80,-2.18,10.00,-0.37,0.16,-0.88
2537,1.80,-2.18,10.00,-0.38,0.11,-0.88
2542,1.80,-2.18,10.00,-0.40,0.11,-0.91
2547,1.80,-2.18,10.00,-0.36,0.06,-0.82
2551,1.80,-2.18,10.00,-0.27,-0.05,-0.72
2557,1.80,-2.18,10.00,-0.25,-0.12,-0.83
2561,1.80,-2.18,10.00,-0.25,-0.01,-1.01
2567,5.79,-1.53,18.27,-0.25,-0.01,-1.01
2571,5.79,-1.53,18.27,-0.32,0.40,-1.14
2577,5.79,-1.53,18.27,-0.34,0.38,-1.28
2582,5.79,-1.53,18.27,-0.38,0.34,-1.37
2586,5.79,-1.53,18.27,-0.43,0.34,-1.36
2592,5.79,-1.53,18.27,-0.47,0.33,-1.36
2596,5.79,-1.53,18.27,-0.52,0.31,-1.43
2602,-1.00,0.19,5.10,-0.52,0.31,-1.43
2606,-1.00,0.19,5.10,-0.50,0.25,-1.52
2611,-1.00,0.19,5.10,-0.46,0.22,-1.50
2616,-1.00,0.19,5.10,-0.40,0.18,-1.54
2621,-1.49,-0.30,8.24,-0.40,0.18,-1.54
2628,-1.49,-0.30,8.24,-0.39,0.19,-1.60
2632,-1.49,-0.30,8.24,-0.34,0.31,-1.54
2637,-1.49,-0.30,8.24,-0.35,0.31,-1.55
2642,-1.49,-0.30,8.24,-0.39,0.32,-1.62
2647,-1.49,-0.30,8.24,-0.43,0.36,-1.64
2652,-1.49,-0.30,8.24,-0.41,0.37,-1.60
2656,-1.49,-0.30,8.24,-0.42,0.36,-1.58
2661,-1.49,-0.30,8.24,-0.41,0.30,-1.56
2666,-1.49,-0.30,8.24,-0.40,0.24,-1.58
2672,2.57,2.45,14.29,-0.40,0.24,-1.58
2676,2.57,2.45,14.29,-0.37,0.16,-1.57
2682,2.57,2.45,14.29,-0.33,0.19,-1.54
2687,3.60,-1.99,11.34,-0.33,0.19,-1.54
2691,3.60,-1.99,11.34,-0.33,0.45,-1.45
2697,3.60,-1.99,11.34,-0.30,0.46,-1.41
2702,3.60,-1.99,11.34,-0.27,0.41,-1.38
2706,3.60,-1.99,11.34,-0.27,0.35,-1.35
2711,3.60,-1.99,11.34,-0.23,0.32,-1.33
2716,3.60,-1.99,11.34,-0.22,0.39,-1.37
2722,4.75,-1.30,13.02,-0.22,0.39,-1.37
2726,4.75,-1.30,13.02,-0.23,0.48,-1.33
2731,4.75,-1.30,13.02,-0.22,0.47,-1.35
2736,4.75,-1.30,13.02,-0.22,0.46,-1.28
2741,0.96,-6.02,8.77,-0.22,0.46,-1.28
2748,0.96,-6.02,8.77,-0.17,0.44,-1.16
2752,0.96,-6.02,8.77,-0.09,0.45,-1.05
2757,0.96,-6.02,8.77,-0.04,0.46,-0.97
2762,0.96,-6.02,8.77,-0.03,0.52,-0.95
2767,0.96,-6.02,8.77,0.01,0.55,-0.85
2772,0.96,-6.02,8.77,0.06,0.51,-0.75
2776,0.96,-6.02,8.77,0.09,0.46,-0.69
2782,0.96,-6.02,8.77,0.13,0.45,-0.62
2786,0.96,-6.02,8.77,0.15,0.43,-0.50
2792,0.04,-3.64,8.78,0.15,0.43,-0.50
2796,0.04,-3.64,8.78,0.18,0.37,-0.44
2802,0.04,-3.64,8.78,0.17,0.40,-0.43
2807,0.04,-3.64,8.78,0.16,0.45,-0.39
2811,0.04,-3.64,8.78,0.16,0.48,-0.38
2816,0.04,-3.64,8.78,0.16,0.53,-0.34
2821,0.04,-3.64,8.78,0.18,0.53,-0.28
2827,-7.55,-2.45,5.94,0.18,0.53,-0.28
2832,-7.55,-2.45,5.94,0.21,0.48,-0.10
2837,-7.55,-2.45,5.94,0.18,0.39,-0.07
2842,-7.55,-2.45,5.94,0.19,0.25,-0.04
2847,-7.55,-2.45,5.94,0.22,0.09,-0.04
2852,-7.55,-2.45,5.94,0.23,-0.04,-0.01
2856,-7.55,-2.45,5.94,0.22,-0.10,0.04
2862,6.70,-2.34,13.14,0.22,-0.10,0.04
2866,6.70,-2.34,13.14,0.36,0.05,0.05
2871,6.70,-2.34,13.14,0.30,0.38,-0.04
2877,6.70,-2.34,13.14,0.22,0.65,-0.11
2882,6.70,-2.34,13.14,0.21,0.63,-0.13
2886,6.70,-2.34,13.14,0.26,0.45,-0.14
2892,6.70,-2.34,13.14,0.17,0.35,-0.22
2897,6.70,-2.34,13.14,0.12,0.38,-0.32
2902,6.70,-2.34,13.14,0.06,0.36,-0.32
2906,6.70,-2.34,13.14,0.01,0.18,-0.23
2912,6.70,-2.34,13.14,-0.08,-0.07,-0.29
2916,6.70,-2.34,13.14,-0.18,-0.25,-0.50
2922,6.70,-2.34,13.14,-0.12,-0.34,-0.65
2926,6.70,-2.34,13.14,0.01,-0.05,-0.61
2932,0.15,-3.98,10.57,0.01,-0.05,-0.61
2937,0.15,-3.98,10.57,-0.13,0.79,-0.62
2941,0.15,-3.98,10.57,0.00,0.64,-0.66
2947,0.15,-3.98,10.57,0.01,0.37,-0.72
2952,0.15,-3.98,10.57,-0.04,0.14,-0.80
2957,0.15,-3.98,10.57,-0.07,-0.03,-0.89
2961,0.15,-3.98,10.57,-0.07,0.07,-1.06
2967,5.25,-1.72,9.42,-0.07,0.07,-1.06
2971,5.25,-1.72,9.42,-0.17,0.70,-1.13
2976,5.25,-1.72,9.42,-0.18,0.73,-1.17
2982,3.68,0.96,5.02,-0.18,0.73,-1.17
2987,3.68,0.96,5.02,-0.17,0.52,-1.22
2992,3.68,0.96,5.02,-0.22,0.69,-1.30
2996,3.68,0.96,5.02,-0.30,1.03,-1.37
3002,-18.88,-0.54,12.11,-0.30,1.03,-1.37
3006,-18.88,-0.54,12.11,-0.09,1.22,-1.22
3011,-18.88,-0.54,12.11,0.02,1.19,-1.01
3016,-21.64,1.00,12.72,0.02,1.19,-1.01
3022,-21.64,1.00,12.72,0.08,1.12,-0.77
3027,-21.64,1.00,12.72,0.17,0.76,-0.51
3032,-21.64,1.00,12.72,0.11,-0.69,-0.33
3037,-21.64,1.00,12.72,-0.03,-1.22,-0.56
3042,-21.64,1.00,12.72,-0.12,-1.46,-0.84
3046,-21.64,1.00,12.72,-0.21,-1.38,-1.05
3052,6.82,-6.55,13.48,-0.21,-1.38,-1.05
3057,6.82,-6.55,13.48,-0.01,-0.24,-0.88
3062,6.82,-6.55,13.48,-0.23,0.52,-0.92
3066,6.82,-6.55,13.48,-0.37,0.70,-1.11
3072,6.63,-2.49,14.13,-0.37,0.70,-1.11
3076,6.63,-2.49,14.13,-0.24,0.05,-1.31
3081,6.63,-2.49,14.13,-0.24,-0.26,-1.41
3087,6.24,-4.98,9.92,-0.24,-0.26,-1.41
3092,6.24,-4.98,9.92,-0.11,0.02,-1.33
3096,6.24,-4.98,9.92,-0.15,0.41,-1.25
3102,6.24,-4.98,9.92,-0.14,0.55,-1.27
3107,1.91,-2.68,9.04,-0.14,0.55,-1.27
3112,1.91,-2.68,9.04,-0.12,0.30,-1.32
3116,1.91,-2.68,9.04,-0.19,0.22,-1.33
3122,3.41,-0.77,10.49,-0.19,0.22,-1.33
3127,3.41,-0.77,10.49,-0.25,0.09,-1.49
3131,3.41,-0.77,10.49,-0.21,0.15,-1.55
3137,3.41,-0.77,10.49,-0.19,0.35,-1.52
3141,3.41,-0.77,10.49,-0.16,0.60,-1.50
3147,3.41,-0.77,10.49,-0.11,0.71,-1.49
3151,3.41,-0.77,10.49,-0.04,0.74,-1.43
3157,-9.88,-1.27,10.41,-0.04,0.74,-1.43
3162,-9.88,-1.27,10.41,0.05,0.72,-1.21
3166,-9.88,-1.27,10.41,0.10,0.62,-1.12
3171,-9.88,-1.27,10.41,0.14,0.44,-1.06
3176,0.15,-0.30,10.38,0.14,0.44,-1.06
3182,0.15,-0.30,10.38,0.20,0.19,-1.01
3187,0.15,-0.30,10.38,0.22,-0.19,-0.88
3192,4.02,-3.68,6.55,0.22,-0.19,-0.88
3197,4.02,-3.68,6.55,0.30,0.00,-0.74
3201,4.02,-3.68,6.55,0.29,0.46,-0.65
3207,-5.86,-3.45,10.54,0.29,0.46,-0.65
3212,-5.86,-3.45,10.54,0.33,0.89,-0.51
3217,-5.86,-3.45,10.54,0.37,0.79,-0.40
3222,-5.86,-3.45,10.54,0.34,0.60,-0.33
3227,-2.72,1.07,9.27,0.34,0.60,-0.33
3232,-2.72,1.07,9.27,0.27,0.21,-0.30
3236,-2.72,1.07,9.27,0.29,0.04,-0.27
3242,-0.57,-4.45,8.01,0.29,0.04,-0.27
3247,-0.57,-4.45,8.01,0.35,-0.09,-0.04
3251,-0.57,-4.45,8.01,0.38,-0.05,0.08
3257,-0.57,-4.45,8.01,0.38,0.02,0.15
3262,0.34,-0.08,12.38,0.38,0.02,0.15
3267,0.34,-0.08,12.38,0.36,0.10,0.12
3271,0.34,-0.08,12.38,0.34,0.16,0.03
3277,0.54,-1.84,10.23,0.34,0.16,0.03
3281,0.54,-1.84,10.23,0.24,0.34,-0.01
3286,0.54,-1.84,10.23,0.23,0.33,-0.02
3292,0.54,-1.84,10.23,0.25,0.26,-0.01
3297,0.15,-4.21,9.54,0.25,0.26,-0.01
3302,0.15,-4.21,9.54,0.28,0.23,0.04
3306,0.15,-4.21,9.54,0.28,0.27,0.02
3312,1.04,-3.56,9.00,0.28,0.27,0.02
3317,1.04,-3.56,9.00,0.28,0.22,-0.05
3321,1.04,-3.56,9.00,0.27,0.22,-0.09
3327,1.04,-3.56,9.00,0.26,0.21,-0.08
3332,-0.77,-3.22,7.89,0.26,0.21,-0.08
3337,-0.77,-3.22,7.89,0.23,0.19,-0.14
3341,-0.77,-3.22,7.89,0.22,0.19,-0.15
3347,-0.11,-3.22,7.78,0.22,0.19,-0.15
3352,-0.11,-3.22,7.78,0.20,0.20,-0.24
3356,-0.11,-3.22,7.78,0.19,0.22,-0.26
3361,-0.11,-3.22,7.78,0.19,0.17,-0.31
3367,-1.61,-1.04,8.66,0.19,0.17,-0.31
3372,-1.61,-1.04,8.66,0.15,0.17,-0.39
3377,-1.61,-1.04,8.66,0.14,0.17,-0.38
3382,-0.61,0.46,10.45,0.14,0.17,-0.38
3387,-0.61,0.46,10.45,0.13,0.17,-0.41
3391,-0.61,0.46,10.45,0.11,0.18,-0.39
3397,-0.61,0.46,10.45,0.11,0.18,-0.40
3401,-0.61,0.46,10.45,0.08,0.21,-0.48
3407,-0.61,0.46,10.45,0.06,0.22,-0.50
3412,-0.61,0.46,10.45,0.09,0.25,-0.52
3417,-0.54,2.57,13.29,0.09,0.25,-0.52
3422,-0.54,2.57,13.29,0.03,0.34,-0.58
3426,-0.54,2.57,13.29,-0.01,0.38,-0.60
3432,-0.54,2.57,13.29,-0.04,0.37,-0.64
3437,-0.54,2.57,13.29,-0.07,0.31,-0.66
3442,-0.54,2.57,13.29,-0.07,0.26,-0.68
3446,-0.54,2.57,13.29,-0.07,0.23,-0.71
3452,2.11,1.99,11.19,-0.07,0.23,-0.71
3457,2.11,1.99,11.19,-0.04,0.23,-0.69
3461,2.11,1.99,11.19,-0.04,0.25,-0.77
3467,-1.76,0.57,10.77,-0.04,0.25,-0.77
3472,-1.76,0.57,10.77,-0.03,0.43,-0.80
3476,-1.76,0.57,10.77,-0.04,0.49,-0.79
3482,-1.76,0.57,10.77,-0.08,0.49,-0.79
3487,-5.21,0.65,7.66,-0.08,0.49,-0.79
3492,-5.21,0.65,7.66,-0.15,0.41,-0.83
3496,-5.21,0.65,7.66,-0.14,0.30,-0.81
3502,-4.86,1.27,6.82,-0.14,0.30,-0.81
3506,-4.86,1.27,6.82,-0.14,0.17,-0.81
3511,-4.86,1.27,6.82,-0.13,0.13,-0.74
3516,-4.86,1.27,6.82,-0.11,0.14,-0.70
3521,-2.30,0.46,7.43,-0.11,0.14,-0.70
3527,-2.30,0.46,7.43,-0.11,0.16,-0.71
3532,-2.30,0.46,7.43,-0.04,0.25,-0.58
3537,-2.30,0.46,7.43,-0.05,0.31,-0.53
3541,-2.30,0.46,7.43,-0.04,0.28,-0.44
3546,-2.30,0.46,7.43,-0.04,0.20,-0.37
3552,-2.30,0.46,7.43,-0.03,0.14,-0.35
3557,-0.57,-0.77,7.17,-0.03,0.14,-0.35
3562,-0.57,-0.77,7.17,-0.00,-0.10,-0.18
3567,-0.57,-0.77,7.17,0.02,-0.18,-0.16
3572,6.89,-2.41,17.78,0.02,-0.18,-0.16
3577,6.89,-2.41,17.78,0.12,0.05,-0.26
3581,6.89,-2.41,17.78,0.08,0.36,-0.33
3587,6.89,-2.41,17.78,0.07,0.47,-0.36
3592,-1.95,-3.10,8.04,0.07,0.47,-0.36
3596,-1.95,-3.10,8.04,0.04,0.36,-0.31
3601,-1.95,-3.10,8.04,-0.02,0.36,-0.29
3607,-1.95,-0.27,3.06,-0.02,0.36,-0.29
3612,-1.95,-0.27,3.06,-0.12,0.20,-0.27
3616,-1.95,-0.27,3.06,-0.12,0.07,-0.34
3621,-1.95,-0.27,3.06,-0.08,-0.12,-0.35
3627,3.37,-4.83,9.54,-0.08,-0.12,-0.35
3631,3.37,-4.83,9.54,0.04,-0.40,-0.22
3637,3.37,-4.83,9.54,0.19,-0.32,-0.26
3642,4.52,-5.32,14.09,0.19,-0.32,-0.26
3647,4.52,-5.32,14.09,0.13,0.36,-0.32
3651,4.52,-5.32,14.09,0.11,0.42,-0.37
3657,1.15,-1.76,8.54,0.11,0.42,-0.37
3661,1.15,-1.76,8.54,0.03,0.10,-0.42
3666,1.15,-1.76,8.54,-0.04,0.03,-0.55
3672,1.15,-1.76,8.54,-0.09,0.04,-0.66
3677,-0.73,-2.26,9.08,-0.09,0.04,-0.66
3681,-0.73,-2.26,9.08,-0.09,0.16,-0.69
3686,-0.73,-2.26,9.08,-0.06,0.14,-0.69
3692,-0.73,-2.26,9.08,-0.05,0.11,-0.69
3697,-0.73,-2.26,9.08,-0.04,0.06,-0.66
3702,-0.73,-2.26,9.08,-0.04,-0.02,-0.62
3707,-0.73,-2.26,9.08,-0.05,-0.09,-0.64
3712,0.54,0.30,7.66,-0.05,-0.09,-0.64
3717,0.54,0.30,7.66,-0.07,-0.11,-0.68
3721,0.54,0.30,7.66,-0.06,-0.04,-0.68
3727,2.64,0.04,13.33,-0.06,-0.04,-0.68
3732,2.64,0.04,13.33,-0.04,0.05,-0.77
3736,2.64,0.04,13.33,-0.04,0.02,-0.80
3741,2.64,0.04,13.33,-0.05,-0.03,-0.83
3747,6.82,1.38,13.79,-0.05,-0.03,-0.83
3751,6.82,1.38,13.79,-0.02,-0.14,-0.89
3757,6.82,1.38,13.79,-0.07,-0.04,-1.06
3762,9.42,1.38,14.78,-0.07,-0.04,-1.06
3767,9.42,1.38,14.78,-0.18,0.23,-1.27
3771,9.42,1.38,14.78,-0.20,0.25,-1.41
3777,9.42,1.38,14.78,-0.24,0.28,-1.52
3782,3.10,-0.46,9.69,-0.24,0.28,-1.52
3786,3.10,-0.46,9.69,-0.26,0.30,-1.56
3792,3.10,-0.46,9.69,-0.29,0.31,-1.64
3797,0.80,3.37,9.61,-0.29,0.31,-1.64
3802,0.80,3.37,9.61,-0.35,0.33,-1.75
3806,0.80,3.37,9.61,-0.35,0.32,-1.82
3811,0.80,3.37,9.61,-0.34,0.34,-1.91
3816,-2.57,-1.72,4.02,-0.34,0.34,-1.91
3821,-2.57,-1.72,4.02,-0.31,0.47,-1.85
3827,-2.57,-1.72,4.02,-0.21,0.45,-1.72
3832,-1.65,0.88,10.31,-0.21,0.45,-1.72
3837,-1.65,0.88,10.31,-0.15,0.39,-1.69
3841,-1.65,0.88,10.31,-0.14,0.41,-1.71
3846,-3.68,-2.18,17.58,-0.14,0.41,-1.71
3852,-5.67,-0.96,16.28,-0.14,0.41,-1.71
3856,-5.67,-0.96,16.28,-0.01,0.55,-1.71
3862,-5.67,-0.96,16.28,0.05,0.54,-1.57
3867,-1.07,-0.19,11.26,0.05,0.54,-1.57
3871,-1.07,-0.19,11.26,0.03,0.41,-1.39
3876,-1.07,-0.19,11.26,-0.03,0.32,-1.40
3882,4.10,1.38,8.73,-0.03,0.32,-1.40
3886,4.10,1.38,8.73,-0.08,0.33,-1.57
3891,4.10,1.38,8.73,-0.04,0.61,-1.49
3896,4.10,1.38,8.73,-0.03,0.93,-1.40
3902,-6.97,-2.11,14.02,-0.03,0.93,-1.40
3906,-6.97,-2.11,14.02,0.07,1.03,-1.33
3911,-6.97,-2.11,14.02,0.16,0.94,-1.18
3917,-4.18,-2.87,11.22,0.16,0.94,-1.18
3921,-4.18,-2.87,11.22,0.24,0.74,-1.00
3926,-4.18,-2.87,11.22,0.27,0.60,-0.92
3932,-4.18,-2.87,11.22,0.31,0.43,-0.81
3936,-4.18,-2.87,11.22,0.34,0.32,-0.68
3941,-4.18,-2.87,11.22,0.35,0.24,-0.55
3946,-4.18,-2.87,11.22,0.39,0.16,-0.45
3952,-4.18,-2.87,11.22,0.40,0.12,-0.37
3956,-4.18,-2.87,11.22,0.34,0.13,-0.35
3961,-4.18,-2.87,11.22,0.38,0.24,-0.40
3966,-4.18,-2.87,11.22,0.38,0.42,-0.45
3972,2.99,-3.83,14.10,0.38,0.42,-0.45
3976,2.99,-3.83,14.10,0.38,0.60,-0.44
3981,2.99,-3.83,14.10,0.40,0.50,-0.40
3987,1.65,-3.14,8.84,0.40,0.50,-0.40
3991,1.65,-3.14,8.84,0.42,0.50,-0.29
3996,1.65,-3.14,8.84,0.40,0.61,-0.24
4001,1.65,-3.14,8.84,0.39,0.64,-0.19
4007,-1.72,-2.76,7.51,0.39,0.64,-0.19
4011,-1.72,-2.76,7.51,0.42,0.56,-0.14
4017,-1.72,-2.76,7.51,0.46,0.54,-0.12
4022,-8.62,-6.63,7.32,0.46,0.54,-0.12
4026,-8.62,-6.63,7.32,0.55,0.58,0.05
4031,-8.62,-6.63,7.32,0.65,0.49,0.23
4037,-8.62,-6.63,7.32,0.70,0.38,0.31
4041,-8.62,-6.63,7.32,0.65,0.25,0.31
4046,-8.62,-6.63,7.32,0.67,0.10,0.30
4051,-8.62,-6.63,7.32,0.66,-0.03,0.28
4057,0.30,-4.64,8.54,0.66,-0.03,0.28
4061,0.30,-4.64,8.54,0.61,0.24,0.13
4066,0.30,-4.64,8.54,0.52,0.51,0.19
4072,0.30,-4.64,8.54,0.49,0.57,0.19
4076,0.30,-4.64,8.54,0.47,0.45,0.19
4081,0.30,-4.64,8.54,0.43,0.28,0.22
4086,0.30,-4.64,8.54,0.42,0.15,0.21
4092,0.30,-4.64,8.54,0.44,0.06,0.18
4096,0.30,-4.64,8.54,0.55,0.04,0.23
4101,0.30,-4.64,8.54,0.57,0.20,0.29
4106,-3.03,-3.64,7.97,0.57,0.20,0.29
4112,-1.27,-1.27,6.59,0.57,0.20,0.29
4116,-1.27,-1.27,6.59,0.62,0.08,0.56
4121,-1.27,-1.27,6.59,0.58,-0.09,0.54
4127,2.03,0.57,10.53,0.58,-0.09,0.54
4131,2.03,0.57,10.53,0.53,-0.05,0.42
4136,2.03,0.57,10.53,0.44,0.24,0.37
4142,0.54,-2.87,10.69,0.44,0.24,0.37
4146,-2.57,-2.87,9.34,0.44,0.24,0.37
4151,-2.57,-2.87,9.34,0.48,0.05,0.24
4157,-2.57,-2.87,9.34,0.46,-0.02,0.25
4161,-2.57,-2.87,9.34,0.44,0.01,0.23
4166,-2.57,-2.87,9.34,0.39,0.10,0.16
4171,-2.57,-2.87,9.34,0.35,0.16,0.12
4177,-2.07,-0.38,4.86,0.35,0.16,0.12
4181,-0.50,-0.30,6.51,0.35,0.16,0.12
4186,-0.50,-0.30,6.51,0.32,-0.13,0.18
4192,-0.50,-0.30,6.51,0.31,-0.24,0.13
4196,-0.50,-0.30,6.51,0.36,-0.23,0.12
4201,-0.50,-0.30,6.51,0.36,-0.07,0.10
4206,-0.50,-0.30,6.51,0.34,0.08,0.05
4212,-0.50,-0.30,6.51,0.33,0.08,0.03
4216,2.41,-1.00,9.69,0.33,0.08,0.03
4221,2.41,-1.00,9.69,0.34,-0.14,-0.05
4226,2.41,-1.00,9.69,0.29,-0.04,-0.13
4232,2.64,-1.19,9.58,0.29,-0.04,-0.13
4236,2.64,-1.19,9.58,0.23,0.12,-0.21
4241,2.64,-1.19,9.58,0.23,0.06,-0.27
4247,-4.45,-0.11,7.20,0.23,0.06,-0.27
4251,-4.45,-0.11,7.20,0.17,0.07,-0.29
4256,-4.45,-0.11,7.20,0.20,0.02,-0.23
4262,-4.45,-0.11,7.20,0.21,-0.06,-0.21
4266,-4.45,-0.11,7.20,0.22,-0.13,-0.24
4271,-4.45,-0.11,7.20,0.24,-0.17,-0.25
4276,-4.45,-0.11,7.20,0.24,-0.07,-0.28
4282,3.03,-2.07,11.80,0.24,-0.07,-0.28
4286,3.03,-2.07,11.80,0.25,0.13,-0.27
4291,3.03,-2.07,11.80,0.27,0.09,-0.28
4297,3.03,-2.07,11.80,0.26,0.04,-0.30
4301,3.03,-2.07,11.80,0.22,0.01,-0.29
4306,3.03,-2.07,11.80,0.21,-0.01,-0.29
4312,3.03,-2.07,11.80,0.19,-0.02,-0.33
4316,3.03,-2.07,11.80,0.17,0.00,-0.36
4321,3.03,-2.07,11.80,0.15,-0.02,-0.34
4326,3.03,-2.07,11.80,0.15,-0.10,-0.30
4332,3.03,-2.07,11.80,0.21,-0.15,-0.30
4336,3.03,-2.07,11.80,0.22,-0.07,-0.31
4341,3.03,-2.07,11.80,0.21,0.09,-0.26
4346,3.03,-2.07,11.80,0.21,0.16,-0.22
4352,3.03,-2.07,11.80,0.23,0.12,-0.21
4356,3.03,-2.07,11.80,0.25,0.04,-0.21
4361,3.03,-2.07,11.80,0.23,-0.01,-0.16
4366,1.27,-0.23,9.50,0.23,-0.01,-0.16
4372,0.50,0.04,9.42,0.23,-0.01,-0.16
4376,0.50,0.04,9.42,0.22,0.01,-0.18
4382,0.50,0.04,9.42,0.21,0.10,-0.13
4386,0.50,0.04,9.42,0.21,0.07,-0.09
4391,0.50,0.04,9.42,0.22,0.03,-0.10
4396,0.50,0.04,9.42,0.21,0.06,-0.12
4402,-3.22,-2.11,9.93,0.21,0.06,-0.12
4406,-3.22,-2.11,9.93,0.21,0.06,0.04
4411,-3.22,-2.11,9.93,0.24,-0.03,0.05
4417,-3.22,-2.11,9.93,0.21,-0.09,-0.01
4422,-3.22,-2.11,9.93,0.20,-0.13,-0.03
4426,0.00,-1.49,10.65,0.20,-0.13,-0.03
4431,0.00,-1.49,10.65,0.21,0.04,0.01
4437,-1.91,-1.38,8.70,0.21,0.04,0.01
4441,0.38,-0.65,6.63,0.21,0.04,0.01
4446,-1.00,0.50,5.98,0.21,0.04,0.01
4452,-1.00,0.50,5.98,0.19,-0.02,0.10
4457,-1.00,0.50,5.98,0.14,0.08,0.07
4461,-3.83,-1.00,3.45,0.14,0.08,0.07
4466,-3.83,-1.00,3.45,0.14,0.08,0.18
4472,-3.83,-1.00,3.45,0.16,0.04,0.18
4476,2.76,-0.19,14.60,0.16,0.04,0.18
4481,7.20,2.14,20.65,0.16,0.04,0.18
4486,7.20,2.14,20.65,0.30,-0.41,0.38
4492,9.69,0.34,25.17,0.30,-0.41,0.38
4496,9.69,0.34,25.17,0.18,0.16,0.06
4502,9.69,0.34,25.17,0.12,0.49,-0.01
4506,9.69,0.34,25.17,0.22,0.49,-0.09
4511,9.69,0.34,25.17,0.29,0.39,-0.16
4516,9.69,0.34,25.17,0.25,0.30,-0.13
4521,9.69,0.34,25.17,0.12,0.25,-0.06
4527,-7.23,6.51,-0.61,0.12,0.25,-0.06
4532,-7.23,6.51,-0.61,-0.20,0.15,-0.30
4536,-5.17,1.00,6.40,-0.20,0.15,-0.30
4541,-5.17,1.00,6.40,-0.15,-0.03,-0.47
4546,-5.17,1.00,6.40,-0.01,-0.08,-0.28
4551,-5.17,1.00,6.40,0.09,-0.16,0.01
4557,-5.17,1.00,6.40,0.14,-0.22,0.19
4562,-5.17,1.00,6.40,0.16,-0.23,0.17
4566,4.83,-1.34,12.53,0.16,-0.23,0.17
4572,4.83,-1.34,12.53,0.11,0.04,0.03
4577,4.83,-1.34,12.53,0.10,0.18,0.02
4582,-1.49,-1.30,6.89,0.10,0.18,0.02
4586,-2.53,-0.77,8.01,0.10,0.18,0.02
4592,-2.53,-0.77,8.01,0.09,-0.04,0.04
4597,-2.53,-0.77,8.01,0.05,-0.05,0.00
4601,-1.30,-0.42,9.96,0.05,-0.05,0.00
4606,0.11,-0.30,9.04,0.05,-0.05,0.00
4612,0.11,-0.30,9.04,-0.05,0.09,-0.22
4617,0.11,-0.30,9.04,-0.01,0.05,-0.24
4621,-2.99,-0.77,7.43,-0.01,0.05,-0.24
4626,-2.99,-0.77,7.43,0.00,0.02,-0.13
4631,-2.99,-0.77,7.43,0.03,-0.07,-0.03
4637,-2.99,-0.77,7.43,0.01,-0.13,-0.08
4642,4.10,-2.61,14.48,0.01,-0.13,-0.08
4646,0.92,-3.45,14.78,0.01,-0.13,-0.08
4651,1.19,-4.18,13.98,0.01,-0.13,-0.08
4656,1.19,-4.18,13.98,0.02,0.23,-0.33
4662,-0.96,-1.99,11.46,0.02,0.23,-0.33
4666,-2.84,-0.34,9.20,0.02,0.23,-0.33
4671,-2.61,-0.27,7.86,0.02,0.23,-0.33
4676,-2.11,-0.08,6.63,0.02,0.23,-0.33
4682,-2.11,-0.08,6.63,-0.05,0.14,-0.45
4686,-2.41,-1.15,5.90,-0.05,0.14,-0.45
4692,-2.41,-1.15,5.90,-0.11,0.11,-0.48
4697,-2.41,-1.15,5.90,-0.07,0.01,-0.44
4701,-5.55,0.34,13.11,-0.07,0.01,-0.44
4706,-6.13,0.57,12.68,-0.07,0.01,-0.44
4712,-6.13,0.57,12.68,0.06,0.22,-0.34
4717,-6.13,0.57,12.68,0.06,0.13,-0.23
4721,4.02,2.76,8.36,0.06,0.13,-0.23
4726,5.75,0.50,7.86,0.06,0.13,-0.23
4732,5.75,0.50,7.86,-0.03,-0.22,-0.32
4736,-3.60,-4.45,8.46,-0.03,-0.22,-0.32
4741,-1.99,-4.71,7.81,-0.03,-0.22,-0.32
4746,-0.61,-2.95,8.89,-0.03,-0.22,-0.32
4752,-0.61,-2.95,8.89,0.06,0.05,-0.25
4756,1.11,0.38,13.79,0.06,0.05,-0.25
4761,2.53,0.57,13.67,0.06,0.05,-0.25
4767,2.53,0.57,13.67,0.07,-0.04,-0.34
4771,2.34,0.77,10.53,0.07,-0.04,-0.34
4776,2.64,-0.19,9.23,0.07,-0.04,-0.34
4782,2.11,-0.42,7.93,0.07,-0.04,-0.34
4786,1.38,-1.95,7.81,0.07,-0.04,-0.34
4791,1.19,-1.19,8.16,0.07,-0.04,-0.34
4797,1.19,-1.19,8.16,0.02,0.04,-0.48
4802,1.19,-1.19,8.16,0.01,0.08,-0.50
4806,0.38,0.96,10.99,0.01,0.08,-0.50
4811,0.61,0.92,10.80,0.01,0.08,-0.50
4817,1.07,0.84,10.54,0.01,0.08,-0.50
4821,-2.49,0.19,8.01,0.01,0.08,-0.50
4826,-4.25,-0.11,6.40,0.01,0.08,-0.50
4832,-4.25,-0.11,6.40,-0.10,0.14,-0.78
4837,-4.25,-0.11,6.40,-0.10,0.08,-0.74
4841,-0.34,0.34,9.65,-0.10,0.08,-0.74
4846,1.34,0.23,10.61,-0.10,0.08,-0.74
4852,1.34,0.23,10.61,-0.04,-0.01,-0.74
4857,1.34,0.23,10.61,-0.02,0.08,-0.75
4861,1.07,-1.00,11.57,-0.02,0.08,-0.75
4866,1.07,-1.11,10.69,-0.02,0.08,-0.75
4872,1.65,-0.57,9.61,-0.02,0.08,-0.75
4876,0.11,0.65,8.96,-0.02,0.08,-0.75
4881,-2.30,0.88,8.35,-0.02,0.08,-0.75
4887,-2.30,0.88,8.35,0.03,0.26,-0.82
4891,-4.56,1.80,8.50,0.03,0.26,-0.82
4896,-6.59,1.65,5.98,0.03,0.26,-0.82
4901,-8.31,2.30,4.75,0.03,0.26,-0.82
4906,-8.31,2.30,4.75,-0.04,0.18,-0.75
4911,-8.31,2.30,4.75,0.01,0.07,-0.67
4917,-8.31,2.30,4.75,0.10,-0.08,-0.57
4922,-8.31,2.30,4.75,0.12,-0.22,-0.54
4826,-4.25,-0.11,6.40,0.01,0.08,-0.50
4832,-4.25,-0.11,6.40,-0.10,0.14,-0.78
4837,-4.25,-0.11,6.40,-0.10,0.08,-0.74
4841,-0.34,0.34,9.65,-0.10,0.08,-0.74
4846,1.34,0.23,10.61,-0.10,0.08,-0.74
4852,1.34,0.23,10.61,-0.04,-0.01,-0.74
4857,1.34,0.23,10.61,-0.02,0.08,-0.75
4861,1.07,-1.00,11.57,-0.02,0.08,-0.75
4866,1.07,-1.11,10.69,-0.02,0.08,-0.75
4872,1.65,-0.57,9.61,-0.02,0.08,-0.75
4876,0.11,0.65,8.96,-0.02,0.08,-0.75
4881,-2.30,0.88,8.35,-0.02,0.08,-0.75
4887,-2.30,0.88,8.35,0.03,0.26,-0.82
4891,-4.56,1.80,8.50,0.03,0.26,-0.82
4896,-6.59,1.65,5.98,0.03,0.26,-0.82
