timestamp,accX,accY,accZ,gyroX,gyroY,gyroZ
Right
6,-1.00,-3.79,8.88,-0.04,0.02,-0.24
17,-0.92,-3.87,8.96,-0.04,0.02,-0.24
19,-0.92,-3.87,8.96,-0.38,0.11,-0.78
26,-0.92,-3.87,8.96,-0.33,0.01,-0.69
28,-0.92,-3.87,8.96,-0.27,-0.04,-0.65
31,-0.27,-1.46,10.95,-0.27,-0.04,-0.65
36,0.19,-1.61,11.19,-0.27,-0.04,-0.65
41,0.19,-1.61,11.19,-0.18,-0.09,-0.56
46,0.19,-1.61,11.19,-0.13,-0.10,-0.50
51,0.19,-1.61,11.19,-0.07,-0.11,-0.47
56,0.19,-1.61,11.19,-0.04,-0.11,-0.44
62,0.19,-1.61,11.19,-0.05,0.02,-0.47
66,-1.00,-0.84,6.79,-0.05,0.02,-0.47
71,-4.45,1.68,4.45,-0.05,0.02,-0.47
77,-4.45,1.68,4.45,-0.17,0.12,-0.45
82,-4.45,1.68,4.45,-0.22,0.10,-0.44
86,-1.53,0.80,8.46,-0.22,0.10,-0.44
91,-0.84,-0.23,9.61,-0.22,0.10,-0.44
97,-0.84,-0.23,9.61,-0.23,-0.17,-0.43
102,-0.84,-0.23,9.61,-0.20,-0.27,-0.47
106,2.07,-2.72,12.79,-0.20,-0.27,-0.47
111,0.92,-2.99,9.58,-0.20,-0.27,-0.47
116,1.19,-2.87,8.08,-0.20,-0.27,-0.47
121,1.19,-2.87,8.08,0.02,0.05,-0.26
127,1.19,-2.87,8.08,0.03,-0.08,-0.24
137,1.19,-2.87,8.08,-0.00,-0.11,-0.25
142,0.96,-0.15,10.15,-0.00,-0.11,-0.25
146,0.61,-2.61,10.45,-0.00,-0.11,-0.25
151,0.54,-2.80,10.41,-0.00,-0.11,-0.25
156,0.54,-2.80,10.41,0.01,-0.03,-0.21
162,0.54,-2.80,10.41,0.04,-0.04,-0.19
166,0.54,-2.80,10.41,0.05,0.00,-0.16
171,-2.22,-1.84,8.62,0.05,0.00,-0.16
176,-2.95,-1.42,9.04,0.05,0.00,-0.16
182,-2.95,-1.42,9.04,0.04,-0.02,-0.09
186,3.10,-1.53,11.99,0.04,-0.02,-0.09
191,3.22,-2.34,12.87,0.04,-0.02,-0.09
197,3.22,-2.34,12.87,0.11,-0.01,-0.06
202,3.22,-2.34,12.87,0.13,0.13,-0.04
206,-1.53,-5.05,11.26,0.13,0.13,-0.04
211,-1.49,-5.13,10.96,0.13,0.13,-0.04
217,-1.49,-5.13,10.96,0.21,0.06,0.02
222,-1.49,-5.13,10.96,0.21,0.05,0.07
226,-0.65,-2.34,11.64,0.21,0.05,0.07
231,0.34,-1.68,10.84,0.21,0.05,0.07
236,0.34,-1.68,10.84,0.20,0.02,0.04
241,0.34,-1.68,10.84,0.20,0.03,0.05
247,0.34,-1.68,10.84,0.19,0.01,0.05
252,0.34,-1.68,10.84,0.18,0.01,0.06
256,-0.73,-3.60,6.24,0.18,0.01,0.06
261,-2.18,-2.26,5.10,0.18,0.01,0.06
266,-2.18,-2.26,5.10,0.16,0.11,0.13
272,-2.18,-2.26,5.10,0.13,0.11,0.15
276,-2.72,-1.11,7.01,0.13,0.11,0.15
281,-2.07,-0.73,8.54,0.13,0.11,0.15
286,-2.07,-0.73,8.54,0.17,-0.09,0.23
291,-2.07,-0.73,8.54,0.18,-0.14,0.25
296,-2.07,-0.73,8.54,0.21,-0.19,0.35
302,-2.07,-0.73,8.54,0.26,-0.14,0.39
306,2.34,-3.83,8.92,0.26,-0.14,0.39
311,2.53,-2.30,7.62,0.26,-0.14,0.39
317,2.53,-2.30,7.62,0.31,0.01,0.50
322,2.53,-2.30,7.62,0.29,-0.03,0.49
326,-0.50,-0.11,8.81,0.29,-0.03,0.49
331,-2.07,0.96,8.31,0.29,-0.03,0.49
337,-2.07,0.96,8.31,0.17,0.07,0.42
341,-0.38,0.77,8.36,0.17,0.07,0.42
346,1.04,0.46,8.62,0.17,0.07,0.42
351,1.04,0.46,8.62,0.09,-0.06,0.31
357,1.04,0.46,8.62,0.06,-0.11,0.26
362,1.04,0.46,8.62,0.05,-0.06,0.20
366,0.88,-1.00,13.49,0.05,-0.06,0.20
371,0.34,-0.04,11.34,0.05,-0.06,0.20
376,-1.04,0.54,11.15,0.05,-0.06,0.20
381,-1.04,0.54,11.15,0.06,0.11,0.11
387,-1.04,0.54,11.15,0.03,0.11,0.10
391,-1.04,0.54,11.15,0.02,0.13,0.10
396,-3.29,2.76,6.32,0.02,0.13,0.10
401,-2.91,2.30,5.10,0.02,0.13,0.10
406,-2.91,2.30,5.10,-0.10,0.15,0.10
411,-2.11,2.22,6.63,-0.10,0.15,0.10
416,-2.91,1.53,7.51,-0.10,0.15,0.10
421,-2.91,1.53,7.51,-0.14,-0.06,0.21
427,-2.91,1.53,7.51,-0.12,-0.12,0.26
432,1.84,-2.03,18.04,-0.12,-0.12,0.26
436,2.84,-2.14,16.70,-0.12,-0.12,0.26
441,1.23,-2.87,13.87,-0.12,-0.12,0.26
446,-0.54,-2.64,12.22,-0.12,-0.12,0.26
451,-0.54,-2.64,12.22,0.03,0.09,0.24
457,-0.54,-2.64,12.22,0.00,0.14,0.22
461,-5.17,1.04,4.21,0.00,0.14,0.22
466,-3.56,1.38,4.60,0.00,0.14,0.22
471,-3.56,1.38,4.60,-0.26,0.08,0.22
477,-3.56,1.38,4.60,-0.32,-0.01,0.19
482,-3.56,1.38,4.60,-0.35,-0.12,0.13
486,2.87,-4.18,10.57,-0.35,-0.12,0.13
491,2.72,-3.95,11.49,-0.35,-0.12,0.13
497,2.72,-3.95,11.49,-0.15,-0.31,0.16
501,6.05,-3.87,13.75,-0.15,-0.31,0.16
506,5.44,-1.53,11.49,-0.15,-0.31,0.16
511,5.44,-1.53,11.49,0.00,0.01,0.24
516,2.03,-0.23,8.46,0.00,0.01,0.24
521,-0.69,1.46,5.98,0.00,0.01,0.24
527,-0.69,1.46,5.98,-0.14,0.10,0.13
531,-3.45,0.92,4.79,-0.14,0.10,0.13
536,-2.03,1.23,5.78,-0.14,0.10,0.13
541,-1.76,1.34,6.86,-0.14,0.10,0.13
547,-1.76,1.34,6.86,-0.32,0.05,0.11
551,2.38,0.42,9.80,-0.32,0.05,0.11
556,1.61,0.42,10.84,-0.32,0.05,0.11
561,1.61,0.42,10.84,-0.27,-0.19,0.00
566,2.26,-0.27,12.38,-0.27,-0.19,0.00
571,1.91,0.77,12.26,-0.27,-0.19,0.00
577,1.91,0.77,12.26,-0.21,0.14,0.05
582,1.91,0.77,12.26,-0.21,0.19,-0.02
586,-0.42,2.41,9.85,-0.21,0.19,-0.02
591,-0.61,2.34,9.12,-0.21,0.19,-0.02
596,0.23,2.18,9.08,-0.21,0.19,-0.02
601,-0.69,2.87,9.23,-0.21,0.19,-0.02
606,-2.22,2.14,9.00,-0.21,0.19,-0.02
611,-2.99,1.95,8.66,-0.21,0.19,-0.02
616,-1.88,1.84,8.89,-0.21,0.19,-0.02
621,-2.91,2.91,8.58,-0.21,0.19,-0.02
626,-0.04,1.99,11.07,-0.21,0.19,-0.02
631,-0.04,1.99,11.07,-0.51,0.04,-0.50
636,2.95,2.45,11.57,-0.51,0.04,-0.50
641,3.64,1.27,13.33,-0.51,0.04,-0.50
647,3.68,-0.27,11.49,-0.51,0.04,-0.50
651,-3.03,1.99,7.86,-0.51,0.04,-0.50
656,-3.68,1.38,7.21,-0.51,0.04,-0.50
661,-3.26,0.96,7.39,-0.51,0.04,-0.50
666,-3.26,0.96,7.39,-0.58,0.29,-0.87
671,-1.99,3.07,10.69,-0.58,0.29,-0.87
676,1.72,2.26,12.72,-0.58,0.29,-0.87
682,4.41,2.07,12.99,-0.58,0.29,-0.87
686,0.61,1.99,13.59,-0.58,0.29,-0.87
691,1.95,0.04,10.61,-0.58,0.29,-0.87
696,3.37,-0.38,9.88,-0.58,0.29,-0.87
701,3.37,-0.38,9.88,-0.49,0.11,-1.06
706,3.37,-0.38,9.88,-0.52,0.19,-1.05
711,-1.68,0.69,5.67,-0.52,0.19,-1.05
716,-3.79,2.49,5.67,-0.52,0.19,-1.05
721,-2.38,2.80,7.16,-0.52,0.19,-1.05
726,0.69,2.91,8.78,-0.52,0.19,-1.05
731,-1.42,2.76,10.34,-0.52,0.19,-1.05
736,-2.03,0.92,11.64,-0.52,0.19,-1.05
741,0.38,0.00,11.91,-0.52,0.19,-1.05
746,-0.04,0.46,11.30,-0.52,0.19,-1.05
751,-1.46,0.80,15.48,-0.52,0.19,-1.05
756,-1.46,0.80,15.48,-0.40,0.16,-0.91
761,3.71,-0.11,11.11,-0.40,0.16,-0.91
766,2.26,-0.23,11.04,-0.40,0.16,-0.91
771,1.88,0.00,9.42,-0.40,0.16,-0.91
776,1.88,0.00,9.42,-0.44,0.11,-1.00
781,1.88,0.00,9.42,-0.47,0.27,-1.02
786,-2.03,0.00,8.04,-0.47,0.27,-1.02
791,-2.41,-0.11,8.66,-0.47,0.27,-1.02
796,-2.91,1.00,10.15,-0.47,0.27,-1.02
802,-1.68,0.92,10.73,-0.47,0.27,-1.02
807,0.30,-1.46,10.19,-0.47,0.27,-1.02
811,0.30,-1.46,10.19,-0.31,0.17,-0.81
816,-2.49,-2.91,9.20,-0.31,0.17,-0.81
821,-2.49,-2.91,9.20,-0.26,0.20,-0.71
827,-3.22,-2.45,7.36,-0.26,0.20,-0.71
831,-3.22,-2.45,7.36,-0.19,0.11,-0.46
836,0.38,-1.68,9.31,-0.19,0.11,-0.46
841,-0.61,-1.68,9.61,-0.19,0.11,-0.46
846,-1.61,-0.50,10.15,-0.19,0.11,-0.46
851,0.46,-1.23,9.39,-0.19,0.11,-0.46
857,-0.19,-1.95,9.27,-0.19,0.11,-0.46
862,-2.91,-3.07,9.12,-0.19,0.11,-0.46
866,-2.91,-3.07,9.12,-0.18,0.18,-0.36
871,-2.91,-3.07,9.12,-0.14,0.12,-0.29
876,-0.19,-2.26,11.72,-0.14,0.12,-0.29
881,1.19,-3.56,12.18,-0.14,0.12,-0.29
887,4.33,-2.91,11.98,-0.14,0.12,-0.29
891,0.88,-3.18,10.88,-0.14,0.12,-0.29
896,-0.15,-2.87,9.20,-0.14,0.12,-0.29
901,-0.61,-3.37,7.55,-0.14,0.12,-0.29
906,-3.10,-2.53,7.01,-0.14,0.12,-0.29
911,-1.57,-0.61,6.25,-0.14,0.12,-0.29
916,-1.57,-0.61,6.25,-0.16,0.13,-0.28
921,0.50,0.27,9.46,-0.16,0.13,-0.28
926,2.84,-0.96,10.11,-0.16,0.13,-0.28
931,3.71,-1.88,10.19,-0.16,0.13,-0.28
936,1.42,-1.57,10.65,-0.16,0.13,-0.28
942,-1.19,-2.11,8.31,-0.16,0.13,-0.28
947,2.34,-2.41,8.39,-0.16,0.13,-0.28
951,2.34,-2.41,8.39,-0.04,0.06,-0.10
956,0.19,0.96,9.54,-0.04,0.06,-0.10
961,1.99,0.65,10.27,-0.04,0.06,-0.10
966,1.30,1.68,10.53,-0.04,0.06,-0.10
971,-0.42,1.88,10.77,-0.04,0.06,-0.10
977,0.15,0.34,11.15,-0.04,0.06,-0.10
981,-1.80,-0.73,10.38,-0.04,0.06,-0.10
986,-1.80,-0.73,10.38,-0.15,0.21,-0.27
991,-1.80,-0.73,10.38,-0.15,0.18,-0.26
996,-1.49,-0.08,8.88,-0.15,0.18,-0.26
1001,-1.88,0.46,7.17,-0.15,0.18,-0.26
1006,2.03,-0.19,9.27,-0.15,0.18,-0.26
1011,3.37,-0.34,8.77,-0.15,0.18,-0.26
1016,0.19,-0.73,9.96,-0.15,0.18,-0.26
1021,2.26,-2.18,10.88,-0.15,0.18,-0.26
1027,2.14,-2.57,10.46,-0.15,0.18,-0.26
1031,-3.33,-1.95,9.42,-0.15,0.18,-0.26
1036,-3.33,-1.95,9.42,-0.23,0.27,-0.51
1041,2.45,0.38,9.93,-0.23,0.27,-0.51
1046,1.57,1.23,10.23,-0.23,0.27,-0.51
1051,0.84,0.61,9.77,-0.23,0.27,-0.51
1057,1.00,0.15,8.58,-0.23,0.27,-0.51
1061,-5.21,-0.34,5.29,-0.23,0.27,-0.51
1066,-0.77,-0.54,10.88,-0.23,0.27,-0.51
1071,2.03,0.23,11.45,-0.23,0.27,-0.51
1077,2.72,3.68,10.96,-0.23,0.27,-0.51
1081,0.80,2.22,15.32,-0.23,0.27,-0.51
1087,5.21,-1.19,13.21,-0.23,0.27,-0.51
1091,5.21,-1.19,13.21,-0.27,-0.01,-0.83
1096,-4.37,-0.65,7.82,-0.27,-0.01,-0.83
1101,-1.72,-1.68,6.24,-0.27,-0.01,-0.83
1106,0.77,0.54,5.44,-0.27,-0.01,-0.83
1111,-1.38,1.19,6.36,-0.27,-0.01,-0.83
1116,1.61,2.30,9.20,-0.27,-0.01,-0.83
1121,1.61,2.30,9.20,-0.41,0.13,-0.68
1126,1.61,2.30,9.20,-0.39,-0.02,-0.81
1132,2.61,1.95,14.18,-0.39,-0.02,-0.81
1137,6.74,-0.92,18.96,-0.39,-0.02,-0.81
1141,6.74,-0.92,18.96,-0.13,0.30,-0.99
1146,-1.68,-1.72,8.46,-0.13,0.30,-0.99
1151,-2.07,-0.27,1.61,-0.13,0.30,-0.99
1157,-9.73,3.60,-2.68,-0.13,0.30,-0.99
1161,-9.73,3.60,-2.68,-0.49,0.54,-1.06
1166,-3.10,3.98,-0.77,-0.49,0.54,-1.06
1171,-0.92,3.95,2.45,-0.49,0.54,-1.06
1177,1.04,2.99,7.59,-0.49,0.54,-1.06
1181,6.28,-0.69,14.52,-0.49,0.54,-1.06
1186,5.67,-2.72,16.93,-0.49,0.54,-1.06
1191,3.22,-5.67,21.30,-0.49,0.54,-1.06
1197,3.10,-7.97,20.72,-0.49,0.54,-1.06
1201,-0.88,-4.33,15.74,-0.49,0.54,-1.06
1206,-1.99,-1.91,10.03,-0.49,0.54,-1.06
1211,-1.68,0.77,11.41,-0.49,0.54,-1.06
1218,0.80,3.26,9.16,-0.49,0.54,-1.06
1222,1.99,5.90,7.73,-0.49,0.54,-1.06
1226,1.99,5.90,7.73,-0.41,0.12,-1.08
1231,1.99,5.90,7.73,-0.49,0.10,-1.19
1236,0.69,-1.49,7.09,-0.49,0.10,-1.19
1242,1.38,-2.80,8.12,-0.49,0.10,-1.19
1246,1.38,-2.80,8.12,-0.32,0.21,-1.01
1251,1.38,-2.80,8.12,-0.24,0.33,-0.93
1256,-2.22,-1.65,10.00,-0.24,0.33,-0.93
1262,1.57,0.04,10.15,-0.24,0.33,-0.93
1266,1.57,0.04,10.15,-0.06,0.26,-0.67
1271,-0.50,-1.80,10.46,-0.06,0.26,-0.67
1277,5.44,-2.95,10.50,-0.06,0.26,-0.67
1281,5.44,-2.95,10.50,-0.02,-0.21,-0.65
1286,2.45,-2.03,10.27,-0.02,-0.21,-0.65
1291,2.49,-3.87,12.34,-0.02,-0.21,-0.65
1297,2.22,-3.60,13.25,-0.02,-0.21,-0.65
1302,-2.41,-2.26,15.52,-0.02,-0.21,-0.65
1306,1.65,-1.80,16.59,-0.02,-0.21,-0.65
1312,6.44,-1.72,18.62,-0.02,-0.21,-0.65
1316,6.44,-1.72,18.62,-0.10,0.10,-0.86
1321,6.05,-4.37,18.70,-0.10,0.10,-0.86
1327,9.39,-6.36,16.93,-0.10,0.10,-0.86
1331,9.39,-6.36,16.93,-0.04,0.52,-1.15
1336,9.39,-6.36,16.93,-0.12,0.84,-1.25
1341,2.57,-5.25,8.28,-0.12,0.84,-1.25
1346,2.57,-5.25,8.28,-0.12,0.88,-1.29
1353,-5.86,-3.60,3.68,-0.12,0.88,-1.29
1358,-7.47,2.07,6.66,-0.12,0.88,-1.29
1361,-7.47,2.07,6.66,-0.21,0.63,-0.98
1366,-7.47,2.07,6.66,-0.18,0.48,-1.04
1372,-7.47,2.07,6.66,-0.11,0.26,-1.03
1377,2.38,-2.14,5.67,-0.11,0.26,-1.03
1381,2.38,-2.14,5.67,0.11,-0.23,-0.68
1386,2.38,-2.14,5.67,0.14,-0.30,-0.56
1391,2.38,-2.14,5.67,0.17,-0.29,-0.45
1397,4.48,0.80,11.80,0.17,-0.29,-0.45
1401,4.48,0.80,11.80,0.17,0.54,-0.44
1406,-6.70,2.07,9.61,0.17,0.54,-0.44
1411,-7.78,1.84,8.58,0.17,0.54,-0.44
1417,-8.27,3.41,9.08,0.17,0.54,-0.44
1421,-8.27,3.41,9.08,0.02,0.50,-0.32
1426,-0.61,-0.50,10.30,0.02,0.50,-0.32
1431,-0.15,-0.84,10.53,0.02,0.50,-0.32
1437,2.22,-2.53,10.50,0.02,0.50,-0.32
1441,3.10,-4.02,10.04,0.02,0.50,-0.32
1447,1.99,-4.14,11.03,0.02,0.50,-0.32
1451,1.99,-4.14,11.03,0.20,-0.07,-0.36
1456,2.38,-1.61,14.21,0.20,-0.07,-0.36
1461,1.19,-2.80,13.21,0.20,-0.07,-0.36
1467,1.91,-2.99,12.45,0.20,-0.07,-0.36
1471,1.91,-2.99,12.45,0.15,0.35,-0.61
1476,3.22,0.46,10.46,0.15,0.35,-0.61
1482,2.11,-0.57,8.46,0.15,0.35,-0.61
1486,2.11,-0.57,8.46,0.01,0.36,-0.81
1492,2.11,-0.57,8.46,-0.02,0.50,-0.77
1497,-5.02,-1.72,5.13,-0.02,0.50,-0.77
1501,-5.02,-1.72,5.13,-0.03,0.66,-0.71
1506,-5.02,-1.72,5.13,-0.05,0.66,-0.69
1511,-5.02,-1.72,5.13,-0.04,0.59,-0.65
1517,-7.39,0.27,5.59,-0.04,0.59,-0.65
1521,-7.39,0.27,5.59,0.04,0.22,-0.53
1526,-7.39,0.27,5.59,0.10,-0.08,-0.43
1531,3.37,-0.27,6.97,0.10,-0.08,-0.43
1537,4.48,-0.61,7.97,0.10,-0.08,-0.43
1541,4.48,-0.61,7.97,0.19,-0.68,-0.28
1546,8.73,-2.26,19.00,0.19,-0.68,-0.28
1552,9.73,-0.69,17.20,0.19,-0.68,-0.28
1556,9.73,-0.69,17.20,0.18,0.41,-0.46
1561,3.45,-1.23,14.17,0.18,0.41,-0.46
1566,5.02,-0.27,14.60,0.18,0.41,-0.46
1571,5.02,-0.27,14.60,0.11,-0.04,-0.70
1576,5.02,-0.27,14.60,0.04,-0.12,-0.84
1581,6.09,-1.04,10.45,0.04,-0.12,-0.84
1587,6.32,-2.03,9.84,0.04,-0.12,-0.84
1591,6.32,-2.03,9.84,-0.07,0.12,-1.02
1596,3.41,-4.10,9.42,-0.07,0.12,-1.02
1602,3.60,-4.21,10.45,-0.07,0.12,-1.02
1606,3.60,-4.21,10.45,-0.01,0.31,-1.17
1611,3.60,-4.21,10.45,0.04,0.30,-1.16
1616,-0.57,-2.64,10.11,0.04,0.30,-1.16
1621,-0.57,-2.64,10.11,0.09,0.32,-1.12
1628,-0.57,-2.64,10.11,0.11,0.30,-1.10
1631,-0.57,-2.64,10.11,0.11,0.21,-1.10
1637,-0.04,0.46,8.70,0.11,0.21,-1.10
1641,-0.04,0.46,8.70,0.09,0.16,-1.07
1646,-0.04,0.46,8.70,0.08,0.21,-1.09
1652,-0.04,0.46,8.70,0.09,0.28,-1.10
1657,-3.91,-1.23,10.69,0.09,0.28,-1.10
1661,-3.91,-1.23,10.69,0.14,0.51,-0.99
1666,-3.56,1.19,12.02,0.14,0.51,-0.99
1671,-2.45,2.38,12.60,0.14,0.51,-0.99
1677,-2.30,2.41,12.34,0.14,0.51,-0.99
1681,-2.30,2.41,12.34,0.19,0.46,-0.88
1686,-1.76,0.73,12.26,0.19,0.46,-0.88
1691,-3.37,0.27,12.72,0.19,0.46,-0.88
1697,-2.49,-0.77,12.72,0.19,0.46,-0.88
1701,-3.91,-0.73,12.03,0.19,0.46,-0.88
1707,-3.26,-0.27,10.57,0.19,0.46,-0.88
1712,-3.26,-0.27,10.57,0.32,0.47,-0.36
1716,-3.26,-0.27,10.57,0.30,0.41,-0.28
1722,-1.11,0.46,6.20,0.30,0.41,-0.28
1726,-1.11,0.46,6.20,0.26,0.15,-0.16
1731,-1.11,0.46,6.20,0.26,0.05,-0.09
1736,2.41,-3.79,8.31,0.26,0.05,-0.09
1742,1.80,-4.33,9.96,0.26,0.05,-0.09
1746,1.80,-4.33,9.96,0.43,0.04,0.05
1752,1.80,-4.33,9.96,0.49,0.49,0.05
1757,-0.27,-6.36,12.48,0.49,0.49,0.05
1761,-0.27,-6.36,12.48,0.52,0.59,0.04
1766,-0.27,-6.36,12.48,0.50,0.47,0.05
1771,-0.27,-6.36,12.48,0.47,0.40,0.05
1777,-4.56,-4.02,8.28,0.47,0.40,0.05
1782,-4.56,-4.02,8.28,0.35,0.43,0.04
1787,-4.56,-4.02,8.28,0.32,0.41,0.07
1792,-2.45,-3.95,9.58,0.32,0.41,0.07
1797,-2.45,-3.95,9.58,0.35,0.29,0.08
1802,-2.45,-3.95,9.58,0.39,0.26,0.11
1808,-0.04,-5.02,10.00,0.39,0.26,0.11
1811,-0.04,-5.02,10.00,0.53,0.27,0.26
1816,-0.04,-5.02,10.00,0.55,0.31,0.32
1821,-1.53,-1.42,9.12,0.55,0.31,0.32
1827,-2.18,-0.19,8.35,0.55,0.31,0.32
1832,-2.18,-0.19,8.35,0.48,0.32,0.39
1837,-2.18,-0.19,8.35,0.44,0.28,0.39
1841,0.57,0.96,9.96,0.44,0.28,0.39
1847,1.53,0.54,9.96,0.44,0.28,0.39
1852,1.53,0.54,9.96,0.36,0.11,0.39
1857,1.53,0.54,9.96,0.34,0.11,0.36
1862,-1.23,-1.23,8.58,0.34,0.11,0.36
1866,-1.23,-1.23,8.58,0.26,0.21,0.28
1871,-1.23,-1.23,8.58,0.24,0.24,0.28
1876,-2.18,0.34,6.47,0.24,0.24,0.28
1881,-2.18,0.34,6.47,0.22,0.22,0.29
1887,-2.18,0.34,6.47,0.16,0.11,0.23
1891,-2.18,0.34,6.47,0.12,0.04,0.18
1897,-0.42,-0.34,5.40,0.12,0.04,0.18
1902,-0.42,-0.34,5.40,0.09,-0.08,0.09
1906,-0.42,-0.34,5.40,0.05,-0.08,0.05
1911,-0.42,-0.34,5.40,0.03,-0.05,0.05
1917,-3.75,1.27,1.88,0.03,-0.05,0.05
1921,-3.75,1.27,1.88,-0.04,-0.03,0.10
1926,-3.75,1.27,1.88,-0.11,-0.13,0.08
1932,14.29,-0.38,25.44,-0.11,-0.13,0.08
1937,14.29,-0.38,25.44,0.16,-0.21,-0.14
1942,14.29,-0.38,25.44,0.20,0.33,-0.50
1947,12.72,-6.02,29.69,0.20,0.33,-0.50
1952,12.72,-6.02,29.69,0.25,0.55,-0.83
1956,12.72,-6.02,29.69,0.17,0.51,-0.97
1962,-7.13,0.84,3.64,0.17,0.51,-0.97
1967,-6.86,5.36,-0.04,0.17,0.51,-0.97
1971,-6.86,5.36,-0.04,-0.42,0.85,-0.86
1976,-6.86,5.36,-0.04,-0.57,0.81,-0.92
1982,-2.34,9.85,0.23,-0.57,0.81,-0.92
1987,-2.34,9.85,0.23,-0.67,0.41,-1.30
1992,-2.34,9.85,0.23,-0.55,0.14,-1.32
1998,1.00,-3.95,11.30,-0.55,0.14,-1.32
2002,1.00,-3.95,11.30,-0.13,-0.25,-0.86
2006,1.00,-3.95,11.30,0.02,-0.28,-0.62
2011,1.00,-3.95,11.30,0.09,-0.21,-0.50
2017,1.19,-0.38,12.26,0.09,-0.21,-0.50
2022,1.19,-0.38,12.26,0.07,-0.05,-0.54
2026,1.19,-0.38,12.26,0.00,0.09,-0.65
2031,1.19,-0.38,12.26,-0.09,0.34,-0.77
2037,-1.30,2.41,11.07,-0.09,0.34,-0.77
2041,-1.30,2.41,11.07,-0.19,0.40,-0.90
2046,-1.30,2.41,11.07,-0.23,0.31,-0.95
2053,-3.91,0.30,11.15,-0.23,0.31,-0.95
2056,-3.91,0.30,11.15,-0.26,0.31,-1.07
2061,-3.91,0.30,11.15,-0.25,0.31,-1.09
2067,-0.38,0.19,11.80,-0.25,0.31,-1.09
2071,-0.38,0.19,11.80,-0.23,0.30,-1.13
2077,-0.38,0.19,11.80,-0.22,0.31,-1.17
2081,-0.42,-2.11,10.69,-0.22,0.31,-1.17
2087,1.57,-1.49,11.22,-0.22,0.31,-1.17
2091,1.57,-1.49,11.22,-0.15,0.32,-1.07
2096,1.57,-1.49,11.22,-0.13,0.34,-1.11
2102,0.00,-1.27,10.77,-0.13,0.34,-1.11
2106,0.00,-1.27,10.77,-0.11,0.40,-1.13
2112,0.00,-1.27,10.77,-0.09,0.46,-1.10
2116,-1.42,0.08,9.80,-0.09,0.46,-1.10
2122,-1.57,-0.08,9.65,-0.09,0.46,-1.10
2126,-1.57,-0.08,9.65,-0.02,0.62,-0.95
2131,-1.57,-0.08,9.65,-0.02,0.57,-0.85
2136,-0.77,0.50,6.62,-0.02,0.57,-0.85
2142,-0.77,0.50,6.62,-0.02,0.47,-0.78
2147,-0.77,0.50,6.62,-0.04,0.40,-0.76
2153,-0.77,0.50,6.62,-0.03,0.36,-0.64
2156,-0.77,0.50,6.62,0.01,0.53,-0.57
2162,-0.77,0.50,6.62,0.07,0.79,-0.43
2166,-0.77,0.50,6.62,0.19,0.92,-0.19
2172,-8.46,0.96,16.16,0.19,0.92,-0.19
2176,-8.46,0.96,16.16,0.28,0.50,0.21
2181,-8.46,0.96,16.16,0.25,-0.03,0.22
2186,13.29,0.61,7.62,0.25,-0.03,0.22
2193,9.58,-1.53,6.78,0.25,-0.03,0.22
2196,9.58,-1.53,6.78,0.07,-0.79,-0.14
2201,0.54,-8.23,10.61,0.07,-0.79,-0.14
2207,-1.72,-5.52,7.59,0.07,-0.79,-0.14
2211,-1.72,-5.52,7.59,-0.06,0.82,0.20
2217,-1.72,-5.52,7.59,-0.00,0.76,0.17
2222,0.11,-3.83,12.64,-0.00,0.76,0.17
2226,0.11,-3.83,12.64,0.05,0.16,0.07
2232,0.11,-3.83,12.64,0.12,-0.17,0.04
2236,0.11,-3.83,12.64,0.21,-0.37,0.08
2242,1.15,-7.43,7.16,0.21,-0.37,0.08
2246,1.15,-7.43,7.16,0.39,-0.24,0.29
2251,1.15,-7.43,7.16,0.34,0.25,0.41
2257,-1.84,-3.22,4.37,0.34,0.25,0.41
2261,-1.84,-3.22,4.37,0.22,0.33,0.39
2267,-1.84,-3.22,4.37,0.10,0.18,0.30
2271,-1.84,-3.22,4.37,0.05,0.03,0.16
2278,-1.15,-2.18,11.84,0.05,0.03,0.16
2281,-1.15,-2.18,11.84,0.01,-0.21,-0.11
2286,-1.15,-2.18,11.84,0.04,-0.26,-0.15
2291,-1.15,-2.18,11.84,0.10,-0.12,-0.17
2298,4.06,-0.61,8.58,0.10,-0.12,-0.17
2302,4.06,-0.61,8.58,0.06,0.20,-0.20
2306,-0.96,0.57,7.55,0.06,0.20,-0.20
2313,-0.61,1.80,8.82,0.06,0.20,-0.20
2316,-0.61,1.80,8.82,-0.07,0.11,-0.33
2321,-0.61,1.80,8.82,-0.09,0.12,-0.38
2327,1.07,2.07,11.19,-0.09,0.12,-0.38
2331,1.07,2.07,11.19,-0.10,0.12,-0.51
2336,1.07,2.07,11.19,-0.09,0.12,-0.53
2341,1.53,2.14,9.27,-0.09,0.12,-0.53
2347,1.19,2.61,8.78,-0.09,0.12,-0.53
2352,1.19,2.61,8.78,-0.13,0.11,-0.57
2356,1.19,2.61,8.78,-0.18,0.11,-0.64
2362,-1.88,1.49,9.50,-0.18,0.11,-0.64
2366,-1.88,1.49,9.50,-0.24,0.15,-0.75
2371,-1.88,1.49,9.50,-0.27,0.15,-0.80
2377,0.38,2.11,10.35,-0.27,0.15,-0.80
2382,0.38,2.11,10.35,-0.29,0.08,-0.92
2387,0.38,2.11,10.35,-0.28,0.04,-0.97
2391,0.38,2.11,10.35,-0.27,0.00,-1.00
2397,3.10,1.57,12.26,-0.27,0.00,-1.00
2401,3.10,1.57,12.26,-0.24,0.11,-1.10
2406,3.10,1.57,12.26,-0.28,0.32,-1.16
2411,3.10,1.57,12.26,-0.28,0.43,-1.19
2418,-2.22,2.14,10.57,-0.28,0.43,-1.19
2422,-2.22,2.14,10.57,-0.31,0.39,-1.25
2427,2.11,5.48,10.57,-0.31,0.39,-1.25
2432,1.57,2.91,9.96,-0.31,0.39,-1.25
2436,1.57,2.91,9.96,-0.38,0.19,-1.41
2442,1.57,2.91,9.96,-0.36,0.17,-1.42
2447,2.61,-0.04,9.80,-0.36,0.17,-1.42
2451,2.61,-0.04,9.80,-0.29,0.24,-1.37
2456,2.61,-0.04,9.80,-0.30,0.33,-1.38
2461,-0.77,1.49,10.88,-0.30,0.33,-1.38
2467,-1.84,1.76,10.65,-0.30,0.33,-1.38
2471,-1.84,1.76,10.65,-0.28,0.38,-1.36
2476,-1.84,1.76,10.65,-0.26,0.36,-1.37
2482,3.10,2.14,9.65,-0.26,0.36,-1.37
2486,3.10,2.14,9.65,-0.27,0.24,-1.31
2491,3.10,2.14,9.65,-0.30,0.24,-1.32
2496,3.10,2.14,9.65,-0.30,0.28,-1.31
2501,-0.65,-1.49,9.00,-0.30,0.28,-1.31
2507,-0.65,-1.49,9.00,-0.28,0.30,-1.24
2511,-0.65,-1.49,9.00,-0.18,0.25,-1.15
2517,2.64,-1.19,14.98,-0.18,0.25,-1.15
2521,2.64,-1.19,14.98,-0.10,0.19,-1.16
2527,2.64,-1.19,14.98,-0.07,0.23,-1.16
2532,2.64,-1.19,14.98,-0.07,0.34,-1.18
2537,2.64,-1.19,14.98,-0.07,0.47,-1.15
2542,2.64,-1.19,14.98,-0.06,0.54,-1.10
2546,2.64,-1.19,14.98,-0.05,0.58,-1.03
2552,-2.72,-2.14,8.54,-0.05,0.58,-1.03
2557,-2.72,-2.14,8.54,-0.05,0.47,-0.90
2561,-2.72,-2.14,8.54,-0.04,0.39,-0.89
2566,-2.72,-2.14,8.54,-0.04,0.30,-0.88
2572,-0.08,-2.84,9.54,-0.04,0.30,-0.88
2576,-0.08,-2.84,9.54,0.08,0.19,-0.71
2581,-0.08,-2.84,9.54,0.15,0.19,-0.65
2587,1.68,-6.17,13.14,0.15,0.19,-0.65
2591,1.68,-6.17,13.14,0.26,0.21,-0.55
2596,1.68,-6.17,13.14,0.31,0.27,-0.52
2602,-3.29,-5.02,7.39,0.31,0.27,-0.52
2606,-3.29,-5.02,7.39,0.31,0.40,-0.39
2611,-3.29,-5.02,7.39,0.31,0.41,-0.30
2616,-3.29,-5.02,7.39,0.27,0.38,-0.29
2621,-1.53,-2.84,7.59,0.27,0.38,-0.29
2626,-1.53,-2.84,7.59,0.25,0.21,-0.31
2631,-1.53,-2.84,7.59,0.28,0.16,-0.30
2637,-1.53,-2.84,7.59,0.33,0.11,-0.24
2641,-1.53,-2.84,7.59,0.40,0.12,-0.19
2646,-1.53,-2.84,7.59,0.48,0.18,-0.16
2651,-1.53,-2.84,7.59,0.50,0.24,-0.10
2657,-0.88,-4.48,11.68,0.50,0.24,-0.10
2661,-0.88,-4.48,11.68,0.52,0.31,-0.04
2666,-0.88,-4.48,11.68,0.47,0.34,-0.09
2672,-0.88,-4.48,11.68,0.41,0.33,-0.08
2676,-0.88,-4.48,11.68,0.41,0.29,-0.04
2681,-0.88,-4.48,11.68,0.39,0.26,-0.05
2686,-0.88,-4.48,11.68,0.39,0.18,-0.04
2692,-1.34,-3.98,5.82,0.39,0.18,-0.04
2696,-1.34,-3.98,5.82,0.41,0.08,-0.05
2702,-1.34,-3.98,5.82,0.44,0.06,-0.03
2707,-0.69,-3.75,9.16,0.44,0.06,-0.03
2711,-0.69,-3.75,9.16,0.52,0.10,0.02
2716,-0.69,-3.75,9.16,0.50,0.21,-0.02
2722,-0.69,-3.75,9.16,0.48,0.27,-0.02
2726,-0.69,-3.75,9.16,0.45,0.27,-0.04
2731,-0.69,-3.75,9.16,0.44,0.23,-0.06
2736,-0.69,-3.75,9.16,0.39,0.18,-0.08
2742,0.38,-1.23,9.00,0.39,0.18,-0.08
2746,0.38,-1.23,9.00,0.39,0.06,-0.11
2751,0.38,-1.23,9.00,0.39,0.04,-0.12
2757,0.38,-1.23,9.00,0.35,0.08,-0.13
2761,0.38,-1.23,9.00,0.33,0.12,-0.16
2766,0.38,-1.23,9.00,0.32,0.15,-0.20
2771,0.38,-1.23,9.00,0.30,0.17,-0.27
2776,-0.73,0.73,9.73,0.30,0.17,-0.27
2781,-0.73,0.73,9.73,0.26,0.18,-0.31
2788,-0.73,0.73,9.73,0.25,0.16,-0.30
2792,-0.73,0.73,9.73,0.20,0.05,-0.33
2796,-0.73,0.73,9.73,0.17,0.01,-0.35
2801,-0.73,0.73,9.73,0.18,-0.05,-0.36
2806,-0.73,0.73,9.73,0.19,-0.06,-0.40
2812,3.37,-1.27,12.83,0.19,-0.06,-0.40
2816,3.37,-1.27,12.83,0.21,0.34,-0.50
2821,3.37,-1.27,12.83,0.22,0.36,-0.51
2827,3.37,-1.27,12.83,0.22,0.30,-0.50
2831,3.37,-1.27,12.83,0.20,0.26,-0.48
2836,3.37,-1.27,12.83,0.16,0.21,-0.50
2841,3.37,-1.27,12.83,0.13,0.16,-0.55
2848,0.61,0.96,8.46,0.13,0.16,-0.55
2852,0.61,0.96,8.46,0.11,0.08,-0.56
2856,0.61,0.96,8.46,0.13,0.07,-0.54
2861,0.61,0.96,8.46,0.16,0.08,-0.54
2866,0.61,0.96,8.46,0.16,0.11,-0.55
2871,0.61,0.96,8.46,0.16,0.16,-0.54
2876,0.61,0.96,8.46,0.17,0.21,-0.52
2882,-1.49,-0.80,8.70,0.17,0.21,-0.52
2886,-1.49,-0.80,8.70,0.19,0.12,-0.52
2891,-1.49,-0.80,8.70,0.19,0.06,-0.55
2897,-1.49,-0.80,8.70,0.20,0.01,-0.55
2901,-1.49,-0.80,8.70,0.21,-0.01,-0.55
2906,-1.49,-0.80,8.70,0.21,0.03,-0.60
2911,-1.49,-0.80,8.70,0.21,0.19,-0.64
2917,-2.11,-2.80,10.53,0.21,0.19,-0.64
2921,-2.11,-2.80,10.53,0.23,0.36,-0.63
2926,-2.11,-2.80,10.53,0.22,0.32,-0.62
2932,-2.11,-2.80,10.53,0.21,0.26,-0.63
2936,-2.11,-2.80,10.53,0.18,0.20,-0.64
2941,-2.11,-2.80,10.53,0.18,0.10,-0.66
2947,-2.11,-2.80,10.53,0.19,0.05,-0.68
2952,-2.11,-2.80,10.53,0.20,0.08,-0.69
2956,-2.11,-2.80,10.53,0.21,0.15,-0.64
2961,-2.11,-2.80,10.53,0.23,0.21,-0.58
2966,-3.60,-1.76,10.00,0.23,0.21,-0.58
2971,-3.60,-1.76,10.00,0.27,0.30,-0.51
2976,-3.60,-1.76,10.00,0.26,0.26,-0.43
2981,-3.60,-1.76,10.00,0.26,0.19,-0.40
2986,-3.60,-1.76,10.00,0.24,0.12,-0.40
2991,-3.60,-1.76,10.00,0.24,0.03,-0.37
2996,-3.60,-1.76,10.00,0.27,-0.01,-0.31
3002,0.77,-1.46,11.19,0.27,-0.01,-0.31
3006,0.77,-1.46,11.19,0.30,0.03,-0.22
3011,0.77,-1.46,11.19,0.35,0.11,-0.19
3016,0.77,-1.46,11.19,0.38,0.20,-0.16
3021,0.77,-1.46,11.19,0.38,0.28,-0.11
3027,0.77,-1.46,11.19,0.36,0.30,-0.04
3031,0.77,-1.46,11.19,0.34,0.25,0.02
3037,-3.41,1.42,4.79,0.34,0.25,0.02
3041,-3.41,1.42,4.79,0.25,0.00,0.02
3046,-3.41,1.42,4.79,0.24,-0.12,0.03
3052,-3.41,1.42,4.79,0.25,-0.19,0.06
3056,-3.41,1.42,4.79,0.28,-0.21,0.09
3061,-3.41,1.42,4.79,0.32,-0.18,0.14
3066,-3.41,1.42,4.79,0.37,-0.14,0.20
3072,1.38,-2.34,13.91,0.37,-0.14,0.20
3076,1.38,-2.34,13.91,0.39,-0.08,0.22
3082,1.38,-2.34,13.91,0.36,0.01,0.11
3086,1.38,-2.34,13.91,0.33,0.11,0.04
3091,1.38,-2.34,13.91,0.29,0.16,0.02
3096,1.38,-2.34,13.91,0.25,0.20,0.01
3101,1.38,-2.34,13.91,0.23,0.21,0.03
3107,-1.99,1.23,8.66,0.23,0.21,0.03
3111,-1.99,1.23,8.66,0.13,0.20,-0.05
3116,-1.99,1.23,8.66,0.10,0.18,-0.10
3122,-1.99,1.23,8.66,0.10,0.09,-0.09
3127,-1.99,1.23,8.66,0.12,0.01,-0.09
3131,-1.99,1.23,8.66,0.12,-0.06,-0.10
3137,-1.99,1.23,8.66,0.13,-0.08,-0.12
3141,-1.99,1.23,8.66,0.13,-0.05,-0.14
3146,-1.99,1.23,8.66,0.11,0.02,-0.16
3151,-1.99,1.23,8.66,0.10,0.06,-0.19
3157,-1.99,1.23,8.66,0.10,0.07,-0.23
3161,-1.99,1.23,8.66,0.08,0.10,-0.32
3166,-1.99,1.23,8.66,0.04,0.14,-0.42
3171,-1.99,1.23,8.66,0.03,0.17,-0.45
3176,-1.99,1.23,8.66,0.02,0.18,-0.49
3181,-1.99,1.23,8.66,-0.03,0.16,-0.54
3186,-1.99,1.23,8.66,-0.05,0.13,-0.61
3192,-0.42,1.57,9.93,-0.05,0.13,-0.61
3196,-0.42,1.57,9.93,-0.08,0.06,-0.72
3202,-0.42,1.57,9.93,-0.09,0.05,-0.76
3206,-0.42,1.57,9.93,-0.08,0.05,-0.78
3212,3.64,0.46,10.27,-0.08,0.05,-0.78
3216,3.64,0.46,10.27,-0.09,0.02,-0.86
3221,3.64,0.46,10.27,-0.10,0.03,-0.91
3227,4.52,-0.69,11.72,-0.10,0.03,-0.91
3231,4.52,-0.69,11.72,-0.05,0.13,-0.95
3236,5.05,-0.38,13.21,-0.05,0.13,-0.95
3242,5.05,-0.38,13.21,-0.04,0.23,-1.01
3247,0.08,-0.96,10.80,-0.04,0.23,-1.01
3251,0.08,-0.96,10.80,-0.03,0.39,-1.10
3256,0.08,-0.96,10.80,-0.02,0.40,-1.09
3262,-1.04,1.27,10.50,-0.02,0.40,-1.09
3266,-1.04,1.27,10.50,-0.05,0.34,-1.12
3271,-1.04,1.27,10.50,-0.06,0.29,-1.13
3277,-1.04,1.27,10.50,-0.05,0.26,-1.15
3281,-1.04,1.27,10.50,-0.03,0.25,-1.14
3286,-1.04,1.27,10.50,-0.02,0.28,-1.09
3291,-1.04,1.27,10.50,0.01,0.34,-1.02
3297,-4.60,1.04,8.70,0.01,0.34,-1.02
3301,-4.60,1.04,8.70,0.05,0.38,-0.90
3306,-4.60,1.04,8.70,0.07,0.35,-0.84
3312,-4.60,1.04,8.70,0.07,0.29,-0.79
3316,-4.60,1.04,8.70,0.07,0.17,-0.76
3321,-4.60,1.04,8.70,0.08,0.05,-0.73
3326,-4.60,1.04,8.70,0.09,-0.01,-0.69
3332,-0.50,-0.30,10.04,0.09,-0.01,-0.69
3336,-0.50,-0.30,10.04,0.11,0.14,-0.59
3341,-0.50,-0.30,10.04,0.17,0.25,-0.49
3347,-0.50,-0.30,10.04,0.18,0.30,-0.41
3352,-0.50,-0.30,10.04,0.18,0.26,-0.38
3356,-0.50,-0.30,10.04,0.17,0.18,-0.40
3361,-0.50,-0.30,10.04,0.17,0.12,-0.42
3367,1.04,-1.30,11.57,0.17,0.12,-0.42
3371,1.04,-1.30,11.57,0.16,0.13,-0.35
3376,1.04,-1.30,11.57,0.17,0.19,-0.31
3382,1.04,-1.30,11.57,0.19,0.24,-0.29
3386,1.04,-1.30,11.57,0.21,0.25,-0.26
3391,1.04,-1.30,11.57,0.24,0.24,-0.20
3396,1.04,-1.30,11.57,0.26,0.20,-0.15
3402,-1.84,-3.37,5.98,0.26,0.20,-0.15
3406,-1.84,-3.37,5.98,0.25,0.01,-0.08
3411,-1.84,-3.37,5.98,0.27,-0.08,-0.07
3417,2.30,-5.55,10.77,0.27,-0.08,-0.07
3421,2.30,-5.55,10.77,0.36,-0.23,0.02
3426,2.30,-5.55,10.77,0.44,-0.15,0.05
3431,2.30,-5.55,10.77,0.47,0.10,0.07
3437,-1.84,-3.87,12.26,0.47,0.10,0.07
3441,-1.84,-3.87,12.26,0.48,0.31,0.05
3446,-1.84,-3.87,12.26,0.42,0.26,0.06
3452,-3.26,-2.07,6.89,0.42,0.26,0.06
3456,-3.26,-2.07,6.89,0.37,0.13,0.10
3462,-3.26,-2.07,6.89,0.33,0.06,0.11
3466,-3.26,-2.07,6.89,0.32,-0.01,0.14
3472,-4.29,-2.95,8.12,0.32,-0.01,0.14
3477,-4.29,-2.95,8.12,0.39,-0.01,0.15
3481,-4.29,-2.95,8.12,0.42,-0.00,0.23
3487,-5.48,-2.91,9.34,0.42,-0.00,0.23
3491,-5.48,-2.91,9.34,0.50,-0.02,0.38
3496,-5.48,-2.91,9.34,0.50,-0.09,0.41
3502,-5.48,-2.91,9.34,0.49,-0.13,0.42
3507,-1.88,-2.38,9.31,0.49,-0.13,0.42
3511,-1.88,-2.38,9.31,0.45,-0.11,0.41
3516,-1.88,-2.38,9.31,0.45,-0.08,0.43
3522,-1.04,-3.10,7.97,0.45,-0.08,0.43
3526,-1.04,-3.10,7.97,0.44,-0.06,0.44
3531,-1.04,-3.10,7.97,0.43,-0.05,0.41
3536,-1.04,-3.10,7.97,0.41,0.00,0.34
3542,-1.91,-2.80,8.70,0.41,0.00,0.34
3546,-1.91,-2.80,8.70,0.39,-0.01,0.33
3551,-1.91,-2.80,8.70,0.39,-0.03,0.29
3557,-0.08,-3.03,9.61,0.39,-0.03,0.29
3561,-0.08,-3.03,9.61,0.40,-0.11,0.29
3566,-0.08,-3.03,9.61,0.41,-0.08,0.26
3572,-0.08,-3.03,9.61,0.40,-0.02,0.21
3576,-0.08,-3.03,9.61,0.41,0.03,0.20
3582,-0.08,-3.03,9.61,0.41,0.07,0.15
3586,-0.08,-3.03,9.61,0.43,0.09,0.12
3591,-0.34,-1.76,8.81,0.43,0.09,0.12
3596,-0.34,-1.76,8.81,0.42,0.06,0.14
3601,-0.34,-1.76,8.81,0.36,0.05,0.09
3607,-0.34,-1.76,8.81,0.32,0.04,0.04
3611,-0.34,-1.76,8.81,0.28,-0.01,0.02
3616,-0.34,-1.76,8.81,0.26,-0.05,-0.03
3621,-0.34,-1.76,8.81,0.25,-0.08,-0.06
3627,0.42,-1.61,7.93,0.25,-0.08,-0.06
3631,0.42,-1.61,7.93,0.29,-0.10,-0.04
3636,0.42,-1.61,7.93,0.29,-0.11,-0.04
3642,2.07,1.00,8.89,0.29,-0.11,-0.04
3646,2.07,1.00,8.89,0.25,-0.09,-0.07
3651,2.07,1.00,8.89,0.25,-0.08,-0.10
3657,2.07,1.00,8.89,0.26,-0.02,-0.18
3662,2.49,-0.08,11.15,0.26,-0.02,-0.18
3666,2.49,-0.08,11.15,0.26,0.11,-0.20
3671,2.49,-0.08,11.15,0.24,0.14,-0.18
3677,0.19,1.53,9.50,0.24,0.14,-0.18
3681,0.19,1.53,9.50,0.20,0.06,-0.21
3686,0.19,1.53,9.50,0.18,-0.03,-0.26
3692,0.19,1.53,9.50,0.14,-0.11,-0.29
3697,3.22,1.00,9.65,0.14,-0.11,-0.29
3702,3.22,1.00,9.65,0.10,-0.17,-0.28
3706,3.22,1.00,9.65,0.10,-0.13,-0.33
3712,0.23,0.65,10.77,0.10,-0.13,-0.33
3716,0.23,0.65,10.77,0.08,0.15,-0.45
3721,0.23,0.65,10.77,0.09,0.23,-0.43
3727,0.23,0.65,10.77,0.13,0.23,-0.40
3732,-1.61,1.76,8.88,0.13,0.23,-0.40
3736,-1.61,1.76,8.88,0.09,0.08,-0.36
3741,-1.61,1.76,8.88,0.07,-0.02,-0.41
3747,0.92,-0.23,8.36,0.07,-0.02,-0.41
3752,0.92,-0.23,8.36,0.08,-0.11,-0.49
3756,0.92,-0.23,8.36,0.12,-0.04,-0.44
3762,0.92,-0.23,8.36,0.14,0.05,-0.35
3767,-2.57,-0.19,8.70,0.14,0.05,-0.35
3771,-2.57,-0.19,8.70,0.14,0.13,-0.33
3777,-2.57,-0.19,8.70,0.14,0.10,-0.38
3782,-1.15,-0.69,10.23,0.14,0.10,-0.38
3786,-1.15,-0.69,10.23,0.18,-0.01,-0.32
3791,-1.15,-0.69,10.23,0.18,-0.02,-0.28
3797,-1.15,-0.69,10.23,0.18,0.00,-0.27
3801,-1.15,-0.69,10.23,0.18,0.04,-0.28
3806,-1.15,-0.69,10.23,0.19,0.07,-0.26
3812,-1.15,-0.69,10.23,0.21,0.08,-0.22
3817,-0.54,-0.30,9.31,0.21,0.08,-0.22
3821,-0.54,-0.30,9.31,0.22,-0.01,-0.13
3826,-0.54,-0.30,9.31,0.19,-0.02,-0.15
3832,-0.54,-0.30,9.31,0.18,-0.04,-0.15
3836,-0.54,-0.30,9.31,0.17,-0.06,-0.09
3842,-0.54,-0.30,9.31,0.20,-0.07,-0.03
3847,-0.54,-0.30,9.31,0.22,-0.09,0.02
3852,3.45,-2.14,14.82,0.22,-0.09,0.02
3856,3.45,-2.14,14.82,0.29,-0.11,0.07
3861,3.45,-2.14,14.82,0.33,-0.04,0.02
3866,1.57,-2.87,12.26,0.33,-0.04,0.02
3872,0.34,-2.30,10.30,0.33,-0.04,0.02
3876,0.34,-2.30,10.30,0.36,0.17,0.13
3881,0.34,-2.30,10.30,0.31,0.20,0.11
3887,-1.57,0.46,5.86,0.31,0.20,0.11
3891,-1.57,0.46,5.86,0.21,0.07,0.12
3896,-1.57,0.46,5.86,0.20,-0.02,0.11
3902,-1.04,-1.07,8.01,0.20,-0.02,0.11
3906,-1.04,-1.07,8.01,0.21,-0.12,0.16
3911,-1.04,-1.07,8.01,0.23,-0.11,0.19
3916,-1.04,-1.07,8.01,0.26,-0.06,0.21
3922,-1.88,-1.49,9.12,0.26,-0.06,0.21
3926,-1.88,-1.49,9.12,0.29,-0.08,0.33
3931,-1.88,-1.49,9.12,0.32,-0.12,0.33
3937,0.54,0.69,9.43,0.32,-0.12,0.33
3941,0.54,0.69,9.43,0.28,-0.20,0.39
3946,0.54,0.69,9.43,0.26,-0.20,0.37
3951,0.54,0.69,9.43,0.27,-0.15,0.29
3957,-0.80,-0.69,11.19,0.27,-0.15,0.29
3961,-0.80,-0.69,11.19,0.20,0.14,0.20
3967,-0.80,-0.69,11.19,0.19,0.19,0.18
3972,-0.80,-0.69,11.19,0.17,0.12,0.19
3976,-0.80,-0.69,11.19,0.13,0.03,0.17
3981,-0.80,-0.69,11.19,0.10,-0.05,0.09
3986,-0.80,-0.69,11.19,0.08,-0.12,0.04
3992,-1.11,0.46,10.07,0.08,-0.12,0.04
3996,-1.11,0.46,10.07,0.08,-0.07,0.04
4001,-1.11,0.46,10.07,0.08,0.00,0.07
4007,-1.80,1.19,9.38,0.08,0.00,0.07
4011,-1.80,1.19,9.38,0.09,0.10,0.06
4016,-1.80,1.19,9.38,0.07,0.14,0.04
4022,-1.80,1.19,9.38,0.07,0.13,0.09
4026,-1.80,1.19,9.38,0.06,0.07,0.13
4031,-1.80,1.19,9.38,0.02,-0.02,0.12
4037,-1.80,1.19,9.38,-0.00,-0.11,0.06
4042,0.19,0.30,9.42,-0.00,-0.11,0.06
4046,0.19,0.30,9.42,-0.01,-0.20,0.02
4051,0.19,0.30,9.42,-0.01,-0.18,-0.01
4057,0.15,0.04,10.07,-0.01,-0.18,-0.01
4061,0.15,0.04,10.07,-0.01,-0.07,-0.05
4066,0.15,0.04,10.07,-0.02,-0.02,-0.11
4071,0.15,0.04,10.07,-0.04,0.01,-0.17
4077,1.57,-0.04,11.03,-0.04,0.01,-0.17
4081,1.57,-0.04,11.03,-0.04,0.00,-0.22
4086,1.57,-0.04,11.03,-0.04,0.01,-0.27
4092,1.57,-0.04,11.03,-0.05,0.05,-0.32
4096,1.57,-0.04,11.03,-0.06,0.09,-0.36
4101,1.57,-0.04,11.03,-0.07,0.11,-0.38
4106,1.57,-0.04,11.03,-0.10,0.10,-0.40
4112,0.50,1.42,8.31,-0.10,0.10,-0.40
4116,0.50,1.42,8.31,-0.13,0.02,-0.43
4121,0.50,1.42,8.31,-0.14,-0.01,-0.44
4127,2.87,0.04,8.39,-0.14,-0.01,-0.44
4131,2.87,0.04,8.39,-0.14,-0.06,-0.40
4136,2.87,0.04,8.39,-0.12,-0.05,-0.42
4141,2.87,0.04,8.39,-0.10,0.00,-0.45
4147,-1.07,-1.19,10.77,-0.10,0.00,-0.45
4151,-1.07,-1.19,10.77,-0.05,0.16,-0.40
4157,-1.07,-1.19,10.77,-0.03,0.19,-0.35
4162,-1.84,0.08,8.54,-0.03,0.19,-0.35
4166,-1.84,0.08,8.54,0.00,0.04,-0.30
4171,-1.84,0.08,8.54,0.00,-0.08,-0.30
4176,-1.84,0.08,8.54,0.02,-0.18,-0.29
4182,0.11,-0.15,8.50,0.02,-0.18,-0.29
4186,0.11,-0.15,8.50,-0.00,-0.13,-0.25
4191,0.11,-0.15,8.50,0.01,-0.05,-0.22
4197,-1.72,-0.73,9.54,0.01,-0.05,-0.22
4201,-1.72,-0.73,9.54,0.04,0.08,-0.20
4206,-1.72,-0.73,9.54,0.06,0.05,-0.16
4211,-1.72,-0.73,9.54,0.08,0.01,-0.14
4217,1.57,0.77,10.34,0.08,0.01,-0.14
4221,1.57,0.77,10.34,0.04,-0.07,-0.15
4227,1.57,0.77,10.34,0.02,-0.02,-0.13
4232,1.57,0.77,10.34,0.02,0.06,-0.12
4236,1.57,0.77,10.34,0.03,0.09,-0.07
4241,1.57,0.77,10.34,0.06,0.10,-0.02
4246,-3.18,-0.30,7.16,0.06,0.10,-0.02
4252,-3.37,-0.77,6.40,0.06,0.10,-0.02
4256,-3.37,-0.77,6.40,0.04,0.00,0.08
4261,-3.37,-0.77,6.40,0.03,-0.08,0.10
4267,-2.22,-1.15,8.58,0.03,-0.08,0.10
4271,-2.22,-1.15,8.58,0.07,-0.20,0.16
4276,-2.22,-1.15,8.58,0.10,-0.24,0.25
4282,0.08,-1.65,14.40,0.10,-0.24,0.25
4286,0.08,-1.65,14.40,0.16,-0.13,0.29
4291,0.08,-1.65,14.40,0.16,0.01,0.26
4296,0.08,-1.65,14.40,0.15,0.13,0.25
4302,-4.18,-1.27,7.85,0.15,0.13,0.25
4306,-4.18,-1.27,7.85,0.11,0.19,0.24
4311,-4.18,-1.27,7.85,0.08,0.11,0.25
4317,-2.11,-1.49,6.62,0.08,0.11,0.25
4321,-2.11,-1.49,6.62,0.04,-0.15,0.17
4326,-2.11,-1.49,6.62,0.02,-0.28,0.15
4332,-2.11,-1.49,6.62,0.04,-0.29,0.12
4336,-2.11,-1.49,6.62,0.08,-0.26,0.13
4341,-2.11,-1.49,6.62,0.15,-0.17,0.18
4347,-2.11,-1.49,6.62,0.16,0.02,0.20
4352,-2.11,-1.49,6.62,0.14,0.10,0.23
4356,-2.11,-1.49,6.62,0.12,0.08,0.22
4361,-2.11,-1.49,6.62,0.10,0.07,0.16
4366,-2.11,-1.49,6.62,0.07,0.03,0.12
4372,-1.68,-1.99,6.75,0.07,0.03,0.12
4376,-1.68,-1.99,6.75,0.07,-0.07,0.21
4381,-1.68,-1.99,6.75,0.09,-0.11,0.23
4387,-3.48,-2.22,8.70,0.09,-0.11,0.23
4391,-3.48,-2.22,8.70,0.08,-0.07,0.16
4396,-3.48,-2.22,8.70,0.09,-0.06,0.17
4402,-3.48,-2.22,8.70,0.09,-0.06,0.19
4406,-3.48,-2.22,8.70,0.09,-0.06,0.18
4411,-3.48,-2.22,8.70,0.11,-0.07,0.16
4416,-3.48,-2.22,8.70,0.12,-0.08,0.17
4422,-2.68,-2.14,8.82,0.12,-0.08,0.17
4426,-2.68,-2.14,8.82,0.11,-0.04,0.17
4431,-2.68,-2.14,8.82,0.10,-0.05,0.18
4437,-0.23,-2.07,11.22,0.10,-0.05,0.18
4441,-0.23,-2.07,11.22,0.13,-0.08,0.11
4446,-0.23,-2.07,11.22,0.13,-0.07,0.09
4451,-0.23,-2.07,11.22,0.15,-0.01,0.10
4457,-1.76,-1.07,9.46,0.15,-0.01,0.10
4461,-1.76,-1.07,9.46,0.13,0.05,0.10
4466,-1.76,-1.07,9.46,0.12,0.02,0.06
4472,-1.76,-1.07,9.46,0.10,-0.01,-0.01
4476,-1.76,-1.07,9.46,0.06,-0.02,-0.05
4481,-1.76,-1.07,9.46,0.07,-0.04,-0.04
4486,-1.76,-1.07,9.46,0.07,-0.03,-0.02
4492,-1.76,-1.07,9.46,0.07,-0.02,-0.03
4496,-1.76,-1.07,9.46,0.07,-0.04,-0.04
4502,-1.76,-1.07,9.46,0.06,-0.06,-0.05
4506,-1.76,-1.07,9.46,0.06,-0.08,-0.06
4511,-1.76,-1.07,9.46,0.06,-0.11,-0.07
4516,-1.76,-1.07,9.46,0.09,-0.11,-0.06
4522,-1.76,-1.07,9.46,0.13,-0.08,-0.07
4526,-1.76,-1.07,9.46,0.13,0.04,-0.11
4531,-1.76,-1.07,9.46,0.14,0.14,-0.16
4536,-1.76,-1.07,9.46,0.16,0.19,-0.23
4542,3.07,-2.11,12.49,0.16,0.19,-0.23
4546,3.07,-2.11,12.49,0.20,0.21,-0.35
4551,3.07,-2.11,12.49,0.07,0.31,-0.41
4557,3.07,-2.11,12.49,-0.04,0.37,-0.42
4561,3.07,-2.11,12.49,-0.12,0.33,-0.39
4566,3.07,-2.11,12.49,-0.16,0.25,-0.41
4571,3.07,-2.11,12.49,-0.25,0.19,-0.47
4577,-7.24,2.41,-2.11,-0.25,0.19,-0.47
4581,-4.09,1.72,2.11,-0.25,0.19,-0.47
4586,5.63,-0.61,12.10,-0.25,0.19,-0.47
4592,5.63,-0.61,12.10,-0.08,-0.68,-0.00
4596,5.63,-0.61,12.10,0.01,-1.02,0.10
4601,5.63,-0.61,12.10,0.21,-1.00,0.09
4606,5.63,-0.61,12.10,0.38,0.10,-0.06
4612,5.63,-0.61,12.10,0.34,0.98,-0.21
4616,5.63,-0.61,12.10,0.50,1.09,-0.38
4621,5.63,-0.61,12.10,0.41,0.98,-0.49
4626,5.63,-0.61,12.10,0.17,0.87,-0.50
4632,-7.59,2.07,-1.27,0.17,0.87,-0.50
4636,-7.59,2.07,-1.27,-0.28,0.41,-0.38
4642,-7.59,2.07,-1.27,-0.48,0.01,-0.48
4646,-7.59,2.07,-1.27,-0.57,-0.40,-0.76
4651,-7.59,2.07,-1.27,-0.43,-0.75,-1.05
4656,-7.59,2.07,-1.27,-0.29,-0.82,-1.19
4662,-7.59,2.07,-1.27,-0.10,-0.65,-1.07
4666,-7.59,2.07,-1.27,0.15,-0.32,-0.73
4671,-7.59,2.07,-1.27,0.21,0.08,-0.34
4676,-7.59,2.07,-1.27,0.23,0.40,-0.07
4682,-3.37,3.03,2.57,0.23,0.40,-0.07
4687,-3.37,3.03,2.57,0.18,0.44,0.03
4691,1.72,0.42,4.86,0.18,0.44,0.03
4696,1.72,0.42,4.86,0.14,-0.18,0.13
4701,1.72,0.42,4.86,0.11,-0.50,0.18
4706,1.72,0.42,4.86,0.05,-0.68,0.14
4712,1.72,0.42,4.86,0.19,-0.57,0.01
4716,1.72,0.42,4.86,0.31,-0.04,0.03
4721,1.72,0.42,4.86,0.29,0.58,0.02
4726,1.72,0.42,4.86,0.32,0.73,-0.07
4732,1.72,0.42,4.86,0.25,0.62,-0.11
4736,1.72,0.42,4.86,0.13,0.54,-0.14
4741,1.72,0.42,4.86,0.06,0.41,-0.10
4747,1.72,0.42,4.86,0.05,0.20,0.03
4751,-4.71,0.54,7.59,0.05,0.20,0.03
4756,-4.71,0.54,7.59,0.05,-0.22,0.10
4761,-4.71,0.54,7.59,0.07,-0.38,0.04
4766,1.34,-1.04,13.06,0.07,-0.38,0.04
4772,4.56,-2.07,11.22,0.07,-0.38,0.04
4776,4.56,-2.07,11.22,0.26,-0.39,0.44
4782,4.56,-2.07,11.22,0.25,-0.26,0.55
4787,4.56,-2.07,11.22,0.30,-0.15,0.57
4791,5.25,-2.14,9.61,0.30,-0.15,0.57
4796,5.25,-2.14,9.61,0.33,0.11,0.53
4802,-1.19,-1.65,5.66,0.33,0.11,0.53
4807,-1.19,-1.65,5.66,0.27,0.50,0.50
4811,-20.23,-0.23,2.30,0.27,0.50,0.50
4816,-20.23,-0.23,2.30,0.13,0.71,0.36
4821,-20.23,-0.23,2.30,0.12,0.72,0.37
4826,-2.99,-3.87,10.77,0.12,0.72,0.37
4831,-2.99,-3.87,10.77,0.15,0.00,0.56
4837,12.38,-2.26,14.21,0.15,0.00,0.56
4841,20.23,-4.86,17.32,0.15,0.00,0.56
4846,15.55,-3.48,29.61,0.15,0.00,0.56
4852,15.55,-3.48,29.61,0.54,-0.71,0.40
4857,15.55,-3.48,29.61,0.26,1.04,0.37
4861,-17.89,3.45,2.53,0.26,1.04,0.37
4866,-17.89,3.45,2.53,0.33,1.40,-0.00
4871,-17.89,3.45,2.53,0.18,1.12,-0.04
4876,-17.89,3.45,2.53,0.05,0.68,0.06
4881,-17.89,3.45,2.53,-0.12,0.13,0.16
4887,-17.89,3.45,2.53,-0.23,-0.46,0.17
4891,-17.89,3.45,2.53,-0.23,-0.96,0.04
4896,-17.89,3.45,2.53,-0.26,-1.16,-0.16
4902,-17.89,3.45,2.53,-0.25,-1.04,-0.27
4907,-17.89,3.45,2.53,-0.12,-0.61,-0.16
4911,-12.68,-0.38,7.51,-0.12,-0.61,-0.16
4916,-10.50,0.92,3.03,-0.12,-0.61,-0.16
4921,-10.50,0.92,3.03,0.10,0.85,0.38
4926,-10.50,0.92,3.03,0.09,0.63,0.41
4931,-10.50,0.92,3.03,0.07,0.14,0.47
4837,12.38,-2.26,14.21,0.15,0.00,0.56
4841,20.23,-4.86,17.32,0.15,0.00,0.56
4846,15.55,-3.48,29.61,0.15,0.00,0.56
4852,15.55,-3.48,29.61,0.54,-0.71,0.40
4857,15.55,-3.48,29.61,0.26,1.04,0.37
4861,-17.89,3.45,2.53,0.26,1.04,0.37
4866,-17.89,3.45,2.53,0.33,1.40,-0.00
4871,-17.89,3.45,2.53,0.18,1.12,-0.04
4876,-17.89,3.45,2.53,0.05,0.68,0.06
4881,-17.89,3.45,2.53,-0.12,0.13,0.16
4887,-17.89,3.45,2.53,-0.23,-0.46,0.17
4891,-17.89,3.45,2.53,-0.23,-0.96,0.04
4896,-17.89,3.45,2.53,-0.26,-1.16,-0.16
4902,-17.89,3.45,2.53,-0.25,-1.04,-0.27
