timestamp,accX,accY,accZ,gyroX,gyroY,gyroZ
Straight
7,-0.34,-0.96,10.07,0.13,0.05,0.21
19,-1.11,-1.19,8.32,0.13,0.05,0.21
20,-1.11,-1.19,8.32,0.17,-0.02,0.01
21,-1.11,-1.19,8.32,0.20,-0.09,-0.02
26,1.49,-1.42,11.30,0.20,-0.09,-0.02
31,1.49,-1.42,11.30,0.22,-0.06,-0.02
36,-1.38,-2.99,10.69,0.22,-0.06,-0.02
42,-1.61,-2.72,9.85,0.22,-0.06,-0.02
46,-1.61,-2.72,9.85,0.27,0.06,0.07
51,-1.61,-2.72,9.85,0.27,0.02,0.12
57,0.50,-0.61,8.89,0.27,0.02,0.12
61,0.50,-0.61,8.89,0.25,-0.13,0.13
66,0.50,-0.61,8.89,0.25,-0.18,0.12
71,0.27,-0.73,8.89,0.25,-0.18,0.12
77,-0.96,-1.04,9.08,0.25,-0.18,0.12
82,-0.96,-1.04,9.08,0.24,-0.07,0.19
86,-0.96,-1.04,9.08,0.25,-0.04,0.24
92,0.92,-1.15,10.31,0.25,-0.04,0.24
96,0.92,-1.15,10.31,0.28,-0.14,0.24
101,0.92,-1.15,10.31,0.30,-0.20,0.22
106,0.92,-1.15,10.31,0.31,-0.20,0.22
113,4.21,-2.84,11.68,0.31,-0.20,0.22
116,4.21,-2.84,11.68,0.33,-0.03,0.18
121,-1.88,-1.88,8.16,0.33,-0.03,0.18
126,-1.88,-1.88,8.16,0.30,0.26,0.18
132,-6.67,-0.34,5.98,0.30,0.26,0.18
136,-6.67,-0.34,5.98,0.21,0.37,0.25
142,-3.52,0.11,5.75,0.21,0.37,0.25
146,-3.52,0.11,5.75,0.17,0.03,0.31
151,-3.52,0.11,5.75,0.22,-0.22,0.30
156,-3.52,0.11,5.75,0.27,-0.44,0.32
162,4.60,-2.99,11.68,0.27,-0.44,0.32
166,4.60,-2.99,11.68,0.34,-0.44,0.34
171,4.60,-2.99,11.68,0.37,-0.25,0.37
177,-2.57,-2.84,10.00,0.37,-0.25,0.37
181,-2.57,-2.84,10.00,0.38,0.18,0.46
186,-2.57,-2.84,10.00,0.36,0.27,0.44
191,-2.57,-2.84,10.00,0.30,0.24,0.41
197,0.50,0.65,6.97,0.30,0.24,0.41
201,0.50,0.65,6.97,0.21,-0.05,0.31
206,0.50,0.65,6.97,0.20,-0.16,0.27
212,-0.30,-2.07,8.32,0.20,-0.16,0.27
216,-0.30,-2.07,8.32,0.27,-0.15,0.37
221,-0.30,-2.07,8.32,0.29,-0.06,0.42
226,-0.30,-2.07,8.32,0.27,-0.00,0.47
232,-2.26,0.61,9.80,0.27,-0.00,0.47
236,-2.26,0.61,9.80,0.27,0.00,0.39
241,-2.26,0.61,9.80,0.27,-0.08,0.38
248,1.34,-1.07,10.54,0.27,-0.08,0.38
251,1.34,-1.07,10.54,0.29,-0.23,0.39
256,1.34,-1.07,10.54,0.25,-0.19,0.35
261,0.46,0.11,10.95,0.25,-0.19,0.35
267,0.08,-0.30,9.08,0.25,-0.19,0.35
272,0.08,-0.30,9.08,0.18,0.07,0.23
276,0.08,-0.30,9.08,0.15,0.09,0.19
282,-0.73,-0.34,8.42,0.15,0.09,0.19
286,-0.73,-0.34,8.42,0.12,-0.02,0.14
291,-0.73,-0.34,8.42,0.13,-0.09,0.15
297,-0.73,-0.34,8.42,0.16,-0.12,0.14
301,-0.73,-0.34,8.42,0.17,-0.09,0.12
306,-0.73,-0.34,8.42,0.17,-0.01,0.08
311,-0.73,-0.34,8.42,0.17,0.08,0.10
317,-1.38,1.11,7.74,0.17,0.08,0.10
321,-1.38,1.11,7.74,0.15,0.07,0.16
326,-1.38,1.11,7.74,0.12,-0.02,0.16
332,2.80,0.77,8.01,0.12,-0.02,0.16
336,2.80,0.77,8.01,0.12,-0.21,0.09
341,2.80,0.77,8.01,0.11,-0.23,0.07
346,2.80,0.77,8.01,0.10,-0.18,0.07
352,-0.23,-0.54,9.96,0.10,-0.18,0.07
356,-0.23,-0.54,9.96,0.08,0.00,0.08
361,-0.23,-0.54,9.96,0.07,0.04,0.04
367,-0.23,-0.54,9.96,0.04,-0.03,0.01
371,-0.23,-0.54,9.96,0.10,-0.11,0.00
376,-0.23,-0.54,9.96,0.14,-0.15,-0.01
381,-0.23,-0.54,9.96,0.12,-0.09,-0.04
387,2.87,0.65,9.65,0.12,-0.09,-0.04
391,2.87,0.65,9.65,-0.06,0.05,0.01
396,2.87,0.65,9.65,-0.05,0.11,-0.04
402,1.68,-0.46,7.97,-0.05,0.11,-0.04
406,1.68,-0.46,7.97,0.10,0.08,-0.17
411,1.68,-0.46,7.97,0.13,0.05,-0.05
416,1.68,-0.46,7.97,0.13,-0.03,0.13
422,0.00,1.34,10.39,0.13,-0.03,0.13
426,0.00,1.34,10.39,0.13,-0.06,-0.03
431,0.00,1.34,10.39,0.12,-0.03,-0.08
436,-1.34,-2.18,7.35,0.12,-0.03,-0.08
441,-1.34,-2.18,7.35,0.14,0.00,0.17
446,-1.34,-2.18,7.35,0.17,-0.06,0.23
452,-1.34,-2.18,7.35,0.20,-0.13,0.21
456,-1.34,-2.18,7.35,0.21,-0.14,0.20
461,-1.34,-2.18,7.35,0.23,-0.11,0.23
466,-1.34,-2.18,7.35,0.23,-0.07,0.25
470,0.96,0.38,10.49,0.23,-0.07,0.25
476,0.96,0.38,10.49,0.21,0.00,0.16
482,1.30,-1.80,10.07,0.21,0.00,0.16
487,1.30,-1.80,10.07,0.17,0.06,0.23
491,1.30,-1.80,10.07,0.18,0.06,0.26
496,1.30,-1.80,10.07,0.15,0.07,0.26
501,1.30,-1.80,10.07,0.14,0.09,0.29
507,-1.46,-0.04,9.04,0.14,0.09,0.29
511,-1.46,-0.04,9.04,0.14,0.07,0.34
516,-1.46,-0.04,9.04,0.17,0.03,0.35
522,-1.46,-0.04,9.04,0.18,-0.02,0.38
526,-1.46,-0.04,9.04,0.20,-0.08,0.41
532,-1.46,-0.04,9.04,0.21,-0.12,0.43
536,-1.46,-0.04,9.04,0.20,-0.14,0.44
542,-1.34,-0.92,8.89,0.20,-0.14,0.44
546,-1.34,-0.92,8.89,0.21,-0.13,0.46
551,-1.34,-0.92,8.89,0.20,-0.12,0.44
557,-1.34,-0.92,8.89,0.18,-0.12,0.39
561,-1.34,-0.92,8.89,0.17,-0.09,0.34
566,-1.34,-0.92,8.89,0.17,-0.05,0.30
571,-1.34,-0.92,8.89,0.17,0.00,0.30
577,-2.34,-0.80,8.74,0.17,0.00,0.30
581,-2.34,-0.80,8.74,0.13,0.05,0.32
586,-2.34,-0.80,8.74,0.10,0.03,0.29
592,-2.34,-0.80,8.74,0.06,-0.00,0.26
596,-2.34,-0.80,8.74,0.06,-0.03,0.24
601,-2.34,-0.80,8.74,0.05,-0.02,0.24
606,-2.34,-0.80,8.74,0.06,-0.01,0.25
612,-1.15,0.15,8.66,0.06,-0.01,0.25
616,-1.15,0.15,8.66,0.07,-0.00,0.29
621,-1.15,0.15,8.66,0.08,-0.03,0.32
627,-0.69,1.04,8.04,0.08,-0.03,0.32
631,-0.69,1.04,8.04,0.08,-0.03,0.38
636,-0.69,1.04,8.04,0.07,-0.00,0.41
641,-0.69,1.04,8.04,0.07,-0.01,0.43
646,-0.69,1.04,8.04,0.07,-0.02,0.44
651,-0.69,1.04,8.04,0.07,-0.03,0.46
656,-0.69,1.04,8.04,0.05,-0.03,0.48
662,-0.08,1.19,11.34,0.05,-0.03,0.48
666,-0.08,1.19,11.34,0.02,-0.05,0.46
671,-0.08,1.19,11.34,-0.01,-0.04,0.46
676,-0.08,1.19,11.34,-0.01,-0.04,0.48
681,-0.08,1.19,11.34,-0.00,-0.03,0.50
686,-0.08,1.19,11.34,0.00,-0.01,0.53
691,-0.08,1.19,11.34,-0.01,0.01,0.56
696,-1.11,-0.08,10.00,-0.01,0.01,0.56
701,-1.11,-0.08,10.00,-0.04,0.07,0.55
706,-1.11,-0.08,10.00,-0.03,0.06,0.56
711,-1.11,-0.08,10.00,-0.03,0.04,0.57
716,-1.11,-0.08,10.00,-0.03,0.01,0.61
721,-1.11,-0.08,10.00,-0.03,-0.03,0.63
726,-1.11,-0.08,10.00,-0.03,-0.07,0.62
733,-0.19,-1.04,9.08,-0.03,-0.07,0.62
736,-0.19,-1.04,9.08,-0.07,-0.07,0.59
741,-0.19,-1.04,9.08,-0.07,-0.06,0.57
746,-0.19,-1.04,9.08,-0.06,-0.02,0.55
751,-0.19,-1.04,9.08,-0.07,0.00,0.55
756,-0.19,-1.04,9.08,-0.08,0.02,0.54
761,-0.19,-1.04,9.08,-0.09,-0.01,0.52
767,3.03,0.00,12.61,-0.09,-0.01,0.52
771,3.03,0.00,12.61,-0.05,0.00,0.52
776,3.03,0.00,12.61,-0.03,0.07,0.54
781,3.03,0.00,12.61,-0.09,0.17,0.57
786,3.03,0.00,12.61,-0.17,0.25,0.55
791,3.03,0.00,12.61,-0.21,0.27,0.49
796,3.03,0.00,12.61,-0.24,0.24,0.43
802,-0.84,2.22,8.58,-0.24,0.24,0.43
806,-0.84,2.22,8.58,-0.26,0.15,0.44
811,-0.84,2.22,8.58,-0.31,0.11,0.42
816,-0.84,2.22,8.58,-0.36,0.07,0.33
821,-0.84,2.22,8.58,-0.38,0.01,0.24
826,-0.84,2.22,8.58,-0.40,-0.02,0.20
831,-0.84,2.22,8.58,-0.39,-0.05,0.17
837,-1.07,-2.14,8.78,-0.39,-0.05,0.17
841,-1.07,-2.14,8.78,-0.38,-0.06,0.05
846,-1.07,-2.14,8.78,-0.35,-0.02,0.01
853,-1.07,-2.14,8.78,-0.34,0.14,-0.02
856,-1.07,-2.14,8.78,-0.32,0.17,-0.05
861,-1.07,-2.14,8.78,-0.33,0.11,-0.08
866,-1.07,-2.14,8.78,-0.34,0.06,-0.11
871,-1.07,-2.14,8.78,-0.37,0.07,-0.15
876,-1.07,-2.14,8.78,-0.39,0.09,-0.19
881,-1.07,-2.14,8.78,-0.41,0.12,-0.23
887,1.61,1.88,10.07,-0.41,0.12,-0.23
891,1.61,1.88,10.07,-0.38,0.13,-0.24
896,1.61,1.88,10.07,-0.37,0.14,-0.23
901,1.61,1.88,10.07,-0.37,0.15,-0.23
907,1.30,2.64,10.77,-0.37,0.15,-0.23
911,1.30,2.64,10.77,-0.40,0.21,-0.24
916,1.30,2.64,10.77,-0.41,0.27,-0.24
921,-2.22,3.87,6.93,-0.41,0.27,-0.24
926,-2.22,3.87,6.93,-0.46,0.33,-0.26
931,-2.22,3.87,6.93,-0.49,0.28,-0.26
936,-2.22,3.87,6.93,-0.51,0.18,-0.27
941,-2.22,3.87,6.93,-0.51,0.04,-0.27
946,-2.22,3.87,6.93,-0.48,-0.12,-0.27
951,-2.22,3.87,6.93,-0.46,-0.26,-0.27
957,1.80,-0.38,10.61,-0.46,-0.26,-0.27
961,1.80,-0.38,10.61,-0.39,-0.26,-0.27
966,1.80,-0.38,10.61,-0.38,-0.13,-0.27
971,1.80,-0.38,10.61,-0.39,0.03,-0.27
976,1.80,-0.38,10.61,-0.40,0.11,-0.28
981,1.80,-0.38,10.61,-0.42,0.10,-0.33
986,1.80,-0.38,10.61,-0.43,0.06,-0.37
990,-0.38,-0.42,9.04,-0.43,0.06,-0.37
996,-0.38,-0.42,9.04,-0.43,0.05,-0.39
1002,-0.61,-0.11,9.54,-0.43,0.05,-0.39
1007,-0.61,-0.11,9.54,-0.42,0.13,-0.41
1011,-0.61,-0.11,9.54,-0.42,0.11,-0.42
1016,-0.61,-0.11,9.54,-0.41,0.06,-0.41
1021,-0.61,-0.11,9.54,-0.38,0.01,-0.43
1027,-1.04,-1.11,8.62,-0.38,0.01,-0.43
1031,-1.04,-1.11,8.62,-0.34,-0.04,-0.43
1036,-1.04,-1.11,8.62,-0.32,-0.03,-0.42
1041,-1.04,-1.11,8.62,-0.30,-0.02,-0.42
1046,-1.04,-1.11,8.62,-0.30,0.00,-0.45
1051,-1.04,-1.11,8.62,-0.30,0.01,-0.47
1056,-1.04,-1.11,8.62,-0.29,-0.01,-0.49
1061,-1.04,-1.11,8.62,-0.29,-0.04,-0.50
1066,-1.04,-1.11,8.62,-0.29,-0.05,-0.53
1071,-1.04,-1.11,8.62,-0.27,-0.03,-0.54
1077,-1.04,-1.11,8.62,-0.27,0.02,-0.53
1081,-1.04,-1.11,8.62,-0.25,0.06,-0.52
1086,-1.04,-1.11,8.62,-0.24,0.09,-0.53
1091,-1.04,-1.11,8.62,-0.24,0.09,-0.53
1097,-1.65,-0.54,10.23,-0.24,0.09,-0.53
1101,-1.65,-0.54,10.23,-0.22,0.11,-0.57
1106,-1.65,-0.54,10.23,-0.22,0.12,-0.55
1112,-1.84,0.61,8.66,-0.22,0.12,-0.55
1116,-1.84,0.61,8.66,-0.21,0.10,-0.49
1121,-1.84,0.61,8.66,-0.21,0.03,-0.49
1126,-1.84,0.61,8.66,-0.21,-0.05,-0.51
1132,-0.11,-1.49,7.97,-0.21,-0.05,-0.51
1136,-0.11,-1.49,7.97,-0.16,-0.05,-0.48
1141,-0.11,-1.49,7.97,-0.15,0.01,-0.47
1147,-0.57,-0.57,9.20,-0.15,0.01,-0.47
1151,-0.57,-0.57,9.20,-0.15,0.05,-0.46
1156,-0.57,-0.57,9.20,-0.13,0.01,-0.47
1161,-0.57,-0.57,9.20,-0.10,-0.03,-0.46
1167,-0.88,0.11,9.27,-0.10,-0.03,-0.46
1171,-0.88,0.11,9.27,-0.06,0.06,-0.38
1176,-0.88,0.11,9.27,-0.06,0.12,-0.33
1182,-0.11,-0.30,8.50,-0.06,0.12,-0.33
1186,-0.11,-0.30,8.50,-0.06,0.06,-0.31
1191,-0.11,-0.30,8.50,-0.07,-0.00,-0.29
1197,-0.11,-0.30,8.50,-0.06,-0.05,-0.24
1202,1.15,0.15,10.27,-0.06,-0.05,-0.24
1206,1.15,0.15,10.27,-0.03,-0.08,-0.18
1211,1.15,0.15,10.27,-0.03,-0.07,-0.16
1217,1.23,-1.88,10.41,-0.03,-0.07,-0.16
1221,1.23,-1.88,10.41,-0.01,-0.01,-0.09
1226,1.23,-1.88,10.41,0.00,-0.00,-0.07
1231,1.23,-1.88,10.41,0.01,-0.02,-0.06
1237,1.27,-2.45,10.53,0.01,-0.02,-0.06
1241,1.27,-2.45,10.53,0.04,-0.06,-0.03
1246,1.27,-2.45,10.53,0.05,-0.07,-0.02
1252,1.19,-2.30,9.80,0.05,-0.07,-0.02
1256,1.19,-2.30,9.80,0.09,-0.03,0.00
1261,1.19,-2.30,9.80,0.10,-0.01,0.02
1267,1.19,-2.30,9.80,0.10,-0.00,0.04
1271,1.19,-2.30,9.80,0.10,-0.01,0.05
1277,1.19,-2.30,9.80,0.10,-0.01,0.04
1281,1.19,-2.30,9.80,0.09,0.02,0.04
1287,-0.69,-1.11,10.19,0.09,0.02,0.04
1291,-0.69,-1.11,10.19,0.11,0.10,0.07
1296,-0.69,-1.11,10.19,0.12,0.09,0.08
1302,-0.69,-1.11,10.19,0.11,0.04,0.09
1306,-0.69,-1.11,10.19,0.11,-0.02,0.11
1311,-0.69,-1.11,10.19,0.10,-0.05,0.10
1316,-0.69,-1.11,10.19,0.09,-0.07,0.10
1322,-1.65,-0.54,7.31,0.09,-0.07,0.10
1326,-1.65,-0.54,7.31,0.09,-0.06,0.09
1331,-1.65,-0.54,7.31,0.08,-0.09,0.09
1337,2.11,-0.84,10.99,0.08,-0.09,0.09
1341,2.11,-0.84,10.99,0.09,-0.22,0.08
1346,2.11,-0.84,10.99,0.11,-0.19,0.06
1352,2.11,-0.84,10.99,0.12,0.04,0.06
1357,-1.65,-1.68,10.53,0.12,0.04,0.06
1361,-1.65,-1.68,10.53,0.14,0.11,0.04
1366,-1.65,-1.68,10.53,0.13,0.03,0.05
1372,-0.30,-0.27,10.61,0.13,0.03,0.05
1376,-0.30,-0.27,10.61,0.08,-0.01,0.02
1381,-0.30,-0.27,10.61,0.08,0.05,-0.01
1386,-0.30,-0.27,10.61,0.06,0.11,-0.02
1392,-2.03,-0.15,8.36,0.06,0.11,-0.02
1396,-2.03,-0.15,8.36,0.07,0.15,-0.01
1401,-2.03,-0.15,8.36,0.07,0.10,-0.00
1407,-1.15,0.54,8.96,0.07,0.10,-0.00
1411,-1.15,0.54,8.96,0.05,-0.02,-0.02
1416,-1.15,0.54,8.96,0.04,-0.01,-0.04
1421,-1.15,0.54,8.96,0.04,0.02,-0.04
1427,-1.15,0.11,9.43,0.04,0.02,-0.04
1432,-1.15,0.11,9.43,0.06,0.06,-0.01
1436,-1.15,0.11,9.43,0.05,0.02,-0.01
1442,-0.88,1.19,10.11,0.05,0.02,-0.01
1446,-0.88,1.19,10.11,0.04,-0.07,-0.02
1451,-0.88,1.19,10.11,0.01,-0.09,-0.04
1456,-0.88,1.19,10.11,0.01,-0.07,-0.05
1462,-0.30,0.42,10.23,0.01,-0.07,-0.05
1466,-0.30,0.42,10.23,0.02,0.01,-0.03
1471,-0.30,0.42,10.23,0.02,0.05,-0.02
1477,-0.80,0.08,11.26,0.02,0.05,-0.02
1481,-0.80,0.08,11.26,0.01,0.09,-0.05
1486,-0.80,0.08,11.26,0.02,0.09,-0.06
1492,-0.80,0.08,11.26,0.03,0.07,-0.04
1496,-0.80,0.08,11.26,0.03,0.02,-0.02
1501,-0.80,0.08,11.26,0.04,-0.00,0.00
1507,-0.80,0.08,11.26,0.04,-0.02,-0.00
1512,0.57,0.08,8.84,0.04,-0.02,-0.00
1516,0.57,0.08,8.84,-0.00,0.03,-0.03
1521,0.57,0.08,8.84,-0.01,0.08,-0.05
1527,0.57,0.08,8.84,-0.00,0.13,-0.05
1531,0.57,0.08,8.84,-0.02,0.13,-0.04
1536,0.57,0.08,8.84,-0.05,0.06,-0.05
1542,0.57,0.08,8.84,-0.06,-0.05,-0.09
1547,1.80,-0.42,9.85,-0.06,-0.05,-0.09
1551,1.80,-0.42,9.85,-0.04,-0.15,-0.11
1556,1.80,-0.42,9.85,-0.01,-0.06,-0.08
1562,-0.30,-0.11,8.96,-0.01,-0.06,-0.08
1566,-0.30,-0.11,8.96,-0.01,0.13,-0.01
1571,-0.30,-0.11,8.96,0.00,0.12,-0.02
1576,-0.30,-0.11,8.96,-0.01,0.09,-0.03
1582,-0.34,0.04,9.80,-0.01,0.09,-0.03
1586,-0.34,0.04,9.80,0.03,0.02,0.01
1591,-0.34,0.04,9.80,0.04,-0.01,0.04
1597,-0.38,-1.04,10.00,0.04,-0.01,0.04
1601,-0.38,-1.04,10.00,0.06,-0.02,0.05
1606,-0.38,-1.04,10.00,0.05,-0.03,0.05
1611,-0.38,-1.04,10.00,0.07,-0.05,0.07
1616,-0.15,-0.80,9.88,0.07,-0.05,0.07
1621,-0.15,-0.80,9.88,0.06,-0.08,0.08
1626,-0.15,-0.80,9.88,0.05,-0.07,0.07
1632,1.68,-0.34,9.96,0.05,-0.07,0.07
1636,1.68,-0.34,9.96,0.04,-0.03,0.04
1641,1.68,-0.34,9.96,0.05,0.03,0.03
1646,1.68,-0.34,9.96,0.04,0.08,0.04
1652,-0.73,0.34,9.50,0.04,0.08,0.04
1656,-0.73,0.34,9.50,0.03,0.08,0.04
1661,-0.73,0.34,9.50,0.03,0.04,0.03
1667,0.11,-0.54,9.27,0.03,0.04,0.03
1671,0.11,-0.54,9.27,0.01,-0.04,-0.01
1676,0.11,-0.54,9.27,0.02,-0.04,-0.01
1681,0.11,-0.54,9.27,0.02,-0.01,0.01
1687,-0.15,-1.34,9.39,0.02,-0.01,0.01
1691,-0.15,-1.34,9.39,0.04,0.05,0.03
1696,-0.15,-1.34,9.39,0.03,0.06,0.02
1702,-1.34,-0.65,8.20,0.03,0.06,0.02
1706,-1.34,-0.65,8.20,0.02,0.03,0.00
1711,-1.34,-0.65,8.20,0.02,-0.03,-0.00
1717,1.80,-0.69,11.38,0.02,-0.03,-0.00
1721,1.80,-0.69,11.38,0.05,-0.14,0.04
1726,1.80,-0.69,11.38,0.05,-0.16,0.05
1731,1.80,-0.69,11.38,0.06,-0.10,0.05
1736,-0.54,-0.65,10.07,0.06,-0.10,0.05
1741,-0.54,-0.65,10.07,0.07,0.08,0.05
1746,-0.54,-0.65,10.07,0.06,0.13,0.06
1752,0.65,-0.27,11.26,0.06,0.13,0.06
1756,0.65,-0.27,11.26,0.05,0.05,0.06
1761,0.65,-0.27,11.26,0.04,0.01,0.03
1766,0.65,-0.27,11.26,0.04,0.01,0.02
1772,-2.30,-0.19,5.82,0.04,0.01,0.02
1776,-2.30,-0.19,5.82,0.04,0.09,0.03
1782,-2.30,-0.19,5.82,0.04,0.08,0.05
1787,-2.30,-0.19,5.82,0.03,0.01,0.06
1791,-2.30,-0.19,5.82,0.01,-0.07,0.03
1796,-2.30,-0.19,5.82,0.01,-0.13,-0.01
1801,-2.30,-0.19,5.82,0.00,-0.15,-0.03
1807,0.34,-1.15,9.58,0.00,-0.15,-0.03
1811,0.34,-1.15,9.58,0.03,-0.11,-0.01
1816,0.34,-1.15,9.58,0.04,-0.09,0.00
1822,-0.65,-1.04,10.65,0.04,-0.09,0.00
1826,-0.65,-1.04,10.65,0.03,-0.04,-0.02
1831,-0.65,-1.04,10.65,0.03,-0.04,-0.04
1837,-0.65,-1.04,10.65,0.03,-0.03,-0.04
1841,-0.65,-1.04,10.65,0.04,-0.02,-0.04
1846,-0.65,-1.04,10.65,0.05,-0.01,-0.03
1851,-0.65,-1.04,10.65,0.07,-0.01,-0.01
1857,0.65,-1.76,10.73,0.07,-0.01,-0.01
1861,0.65,-1.76,10.73,0.09,0.01,-0.01
1866,0.65,-1.76,10.73,0.09,0.04,-0.01
1872,-1.95,-0.77,8.74,0.09,0.04,-0.01
1876,-1.95,-0.77,8.74,0.11,0.05,-0.01
1881,-1.95,-0.77,8.74,0.10,0.03,-0.01
1886,-1.95,-0.77,8.74,0.10,0.00,-0.02
1892,-0.50,0.38,9.23,0.10,0.00,-0.02
1896,-0.50,0.38,9.23,0.08,-0.09,-0.07
1901,-0.50,0.38,9.23,0.08,-0.08,-0.10
1907,-0.50,0.38,9.23,0.07,-0.03,-0.10
1911,-0.50,0.38,9.23,0.07,0.04,-0.11
1916,-0.50,0.38,9.23,0.06,0.06,-0.12
1921,-0.50,0.38,9.23,0.04,-0.00,-0.14
1927,-0.50,0.38,9.23,0.05,-0.11,-0.14
1931,-0.50,0.38,9.23,0.08,-0.17,-0.14
1936,-0.50,0.38,9.23,0.09,-0.16,-0.13
1942,-1.23,1.11,10.34,0.09,-0.16,-0.13
1946,-1.23,1.11,10.34,0.10,0.08,-0.10
1951,-1.23,1.11,10.34,0.08,0.13,-0.10
1956,-1.23,1.11,10.34,0.06,0.07,-0.10
1962,0.80,0.92,10.34,0.06,0.07,-0.10
1966,0.80,0.92,10.34,0.07,-0.11,-0.08
1971,0.80,0.92,10.34,0.07,-0.11,-0.07
1977,0.96,-0.04,9.58,0.07,-0.11,-0.07
1981,0.96,-0.04,9.58,0.07,0.02,-0.06
1986,0.96,-0.04,9.58,0.06,0.08,-0.06
1991,0.96,-0.04,9.58,0.05,0.10,-0.08
1996,-1.19,-0.42,8.50,0.05,0.10,-0.08
2001,-1.19,-0.42,8.50,0.04,0.03,-0.08
2006,-1.19,-0.42,8.50,0.06,-0.03,-0.08
2012,0.27,-0.77,9.54,0.06,-0.03,-0.08
2016,0.27,-0.77,9.54,0.07,-0.05,-0.08
2021,0.27,-0.77,9.54,0.07,0.01,-0.07
2027,0.27,-0.77,9.54,0.08,0.03,-0.07
2031,0.27,-0.77,9.54,0.08,0.01,-0.07
2036,0.27,-0.77,9.54,0.07,-0.05,-0.07
2041,0.27,-0.77,9.54,0.08,-0.09,-0.09
2047,0.27,-0.77,9.54,0.08,-0.09,-0.09
2051,0.27,-0.77,9.54,0.09,-0.04,-0.11
2056,0.27,-0.77,9.54,0.10,0.05,-0.10
2061,-0.11,-1.34,10.27,0.10,0.05,-0.10
2067,-0.30,-0.96,9.84,0.10,0.05,-0.10
2071,-0.30,-0.96,9.84,0.13,0.09,-0.06
2076,-0.30,-0.96,9.84,0.13,0.05,-0.05
2082,-1.15,-0.11,7.20,0.13,0.05,-0.05
2086,-1.15,-0.11,7.20,0.12,0.00,-0.04
2091,-1.15,-0.11,7.20,0.12,-0.03,-0.03
2097,2.07,-0.65,10.95,0.12,-0.03,-0.03
2101,2.07,-0.65,10.95,0.15,-0.16,0.01
2106,2.07,-0.65,10.95,0.17,-0.21,0.04
2111,2.07,-0.65,10.95,0.19,-0.12,0.06
2116,-0.46,-0.50,8.54,0.19,-0.12,0.06
2121,-0.46,-0.50,8.54,0.18,0.21,0.06
2126,-0.46,-0.50,8.54,0.17,0.16,0.07
2132,-0.11,0.19,9.50,0.17,0.16,0.07
2136,-0.11,0.19,9.50,0.14,-0.04,0.10
2141,-0.11,0.19,9.50,0.14,-0.10,0.09
2147,-0.11,0.19,9.50,0.14,-0.09,0.10
2151,-0.11,0.19,9.50,0.15,-0.04,0.13
2156,-0.11,0.19,9.50,0.16,0.02,0.17
2161,-0.11,0.19,9.50,0.18,0.04,0.20
2167,-0.11,0.19,9.50,0.17,-0.02,0.23
2171,-0.11,0.19,9.50,0.16,-0.09,0.23
2176,-0.11,0.19,9.50,0.16,-0.12,0.23
2181,-0.11,0.19,9.50,0.17,-0.11,0.25
2187,0.42,-1.53,10.15,0.17,-0.11,0.25
2191,0.42,-1.53,10.15,0.21,-0.02,0.31
2196,0.42,-1.53,10.15,0.22,0.01,0.35
2202,-1.19,-1.68,9.38,0.22,0.01,0.35
2206,-1.19,-1.68,9.38,0.21,-0.06,0.35
2211,-1.19,-1.68,9.38,0.20,-0.13,0.34
2216,-1.19,-1.68,9.38,0.19,-0.16,0.35
2221,-1.19,-1.68,9.38,0.20,-0.12,0.36
2226,-1.19,-1.68,9.38,0.20,0.02,0.36
2231,-1.19,-1.68,9.38,0.19,0.10,0.37
2236,-2.22,-1.23,10.41,0.19,0.10,0.37
2241,-2.22,-1.23,10.41,0.18,0.04,0.35
2246,-2.22,-1.23,10.41,0.17,0.02,0.34
2251,-2.22,-1.23,10.41,0.16,0.01,0.34
2256,-2.22,-1.23,10.41,0.16,-0.03,0.35
2261,-2.22,-1.23,10.41,0.15,-0.07,0.36
2266,-2.22,-1.23,10.41,0.14,-0.11,0.37
2271,0.08,0.27,8.62,0.14,-0.11,0.37
2276,0.08,0.27,8.62,0.12,-0.11,0.33
2281,0.08,0.27,8.62,0.11,-0.06,0.32
2286,0.08,0.27,8.62,0.10,0.00,0.32
2291,0.08,0.27,8.62,0.09,0.05,0.31
2296,0.08,0.27,8.62,0.06,0.04,0.28
2301,0.08,0.27,8.62,0.05,-0.01,0.25
2306,0.08,0.27,8.62,0.06,-0.08,0.25
2311,0.08,0.27,8.62,0.08,-0.10,0.27
2316,0.08,0.27,8.62,0.08,-0.01,0.29
2321,-0.92,1.19,8.58,0.08,-0.01,0.29
2326,-0.27,0.69,9.04,0.08,-0.01,0.29
2331,-0.27,0.69,9.04,0.02,0.09,0.26
2336,-0.27,0.69,9.04,0.00,0.07,0.24
2341,-0.27,0.69,9.04,-0.00,0.04,0.25
2346,-0.27,0.69,9.04,-0.02,0.04,0.24
2351,-0.27,0.69,9.04,-0.03,0.04,0.24
2356,-1.11,-0.27,9.73,-0.03,0.04,0.24
2361,-1.11,-0.27,9.73,-0.04,0.01,0.21
2366,-1.11,-0.27,9.73,-0.04,-0.00,0.21
2371,-1.11,-0.27,9.73,-0.04,-0.00,0.22
2376,-1.11,-0.27,9.73,-0.05,-0.01,0.22
2381,-1.11,-0.27,9.73,-0.05,-0.01,0.21
2386,-1.11,-0.27,9.73,-0.07,-0.04,0.20
2391,1.72,-0.19,9.46,-0.07,-0.04,0.20
2396,1.72,-0.19,9.46,-0.06,-0.02,0.18
2401,1.72,-0.19,9.46,-0.04,0.04,0.20
2406,1.72,-0.19,9.46,-0.05,0.07,0.20
2411,1.72,-0.19,9.46,-0.05,0.07,0.20
2416,1.72,-0.19,9.46,-0.07,0.04,0.17
2421,1.72,-0.19,9.46,-0.09,0.03,0.14
2426,1.72,-0.19,9.46,-0.09,0.03,0.11
2431,1.72,-0.19,9.46,-0.09,0.06,0.11
2436,1.72,-0.19,9.46,-0.08,0.08,0.12
2441,1.72,-0.19,9.46,-0.07,0.09,0.12
2446,-1.11,0.96,8.36,-0.07,0.09,0.12
2451,-1.11,0.96,8.36,-0.10,0.10,0.09
2456,-1.11,0.96,8.36,-0.12,0.09,0.08
2461,-1.19,1.11,7.89,-0.12,0.09,0.08
2466,-1.19,1.11,7.89,-0.14,-0.01,0.05
2471,-1.19,1.11,7.89,-0.15,-0.08,0.03
2476,-1.19,1.11,7.89,-0.14,-0.14,0.04
2481,-1.19,1.11,7.89,-0.14,-0.15,0.03
2486,-1.19,1.11,7.89,-0.13,-0.08,0.01
2491,-1.19,1.11,7.89,-0.14,0.06,-0.01
2496,-1.19,1.11,7.89,-0.14,0.13,-0.04
2501,-1.19,1.11,7.89,-0.16,0.09,-0.05
2506,-1.19,1.11,7.89,-0.17,0.04,-0.06
2511,-1.19,1.11,7.89,-0.18,0.01,-0.08
2516,-0.19,-0.50,9.00,-0.18,0.01,-0.08
2521,-0.19,-0.50,9.00,-0.17,0.08,-0.13
2526,-0.19,-0.50,9.00,-0.17,0.15,-0.13
2531,-0.19,-0.50,9.00,-0.15,0.19,-0.13
2536,-0.19,-0.50,9.00,-0.14,0.19,-0.14
2541,-0.19,-0.50,9.00,-0.16,0.14,-0.14
2546,-0.19,-0.50,9.00,-0.18,0.08,-0.16
2551,-0.19,-0.50,9.00,-0.20,0.02,-0.19
2556,-0.19,-0.50,9.00,-0.25,-0.12,-0.22
2561,-0.19,-0.50,9.00,-0.26,-0.33,-0.21
2566,-0.19,-0.50,9.00,-0.22,-0.56,-0.18
2571,-0.19,-0.50,9.00,-0.08,-0.43,-0.18
2576,-0.19,-0.50,9.00,-0.08,0.30,-0.16
2581,-0.19,-0.50,9.00,-0.02,0.60,-0.19
2586,-0.19,-0.50,9.00,-0.05,0.56,-0.22
2591,-0.19,-0.50,9.00,-0.10,0.50,-0.20
2597,-0.19,-0.50,9.00,-0.16,0.42,-0.18
2601,-0.19,-0.50,9.00,-0.17,0.26,-0.18
2606,1.68,-0.57,9.46,-0.17,0.26,-0.18
2611,1.68,-0.57,9.46,-0.15,-0.16,-0.15
2617,0.50,-1.46,8.35,-0.15,-0.16,-0.15
2621,-1.11,0.19,7.01,-0.15,-0.16,-0.15
2626,-2.14,1.42,6.09,-0.15,-0.16,-0.15
2632,-2.14,1.42,6.09,-0.12,-0.06,-0.18
2636,-2.14,1.42,6.09,-0.10,0.04,-0.14
2641,-1.57,0.34,8.28,-0.10,0.04,-0.14
2646,-1.57,0.34,8.28,-0.09,0.03,-0.11
2652,-0.96,-1.38,7.93,-0.09,0.03,-0.11
2656,-1.42,-1.15,7.74,-0.09,0.03,-0.11
2660,-1.15,-1.27,9.00,-0.09,0.03,-0.11
2667,-1.15,-1.27,9.00,-0.08,-0.06,-0.10
2672,-1.15,-1.27,9.00,-0.07,-0.06,-0.10
2676,1.38,-2.22,12.10,-0.07,-0.06,-0.10
2681,-0.80,-1.38,11.64,-0.07,-0.06,-0.10
2687,-0.80,-1.38,11.64,-0.01,-0.03,-0.10
2692,-0.80,-1.38,11.64,0.00,0.08,-0.07
2696,-0.92,-0.84,9.04,0.00,0.08,-0.07
2701,-0.19,-1.30,8.96,0.00,0.08,-0.07
2707,0.38,-1.04,8.58,0.00,0.08,-0.07
2712,0.38,-1.04,8.58,0.03,-0.03,0.01
2716,0.15,-0.65,9.69,0.03,-0.03,0.01
2721,0.88,-0.30,11.19,0.03,-0.03,0.01
2726,0.65,-0.34,9.96,0.03,-0.03,0.01
2731,0.65,-0.34,9.96,0.03,0.01,0.04
2736,0.65,-0.34,9.96,0.03,0.05,0.04
2742,0.65,-0.34,9.96,0.04,0.07,0.05
2746,-3.91,-0.27,8.96,0.04,0.07,0.05
2751,-7.55,-0.04,10.03,0.04,0.07,0.05
2756,-7.55,-0.04,10.03,0.04,0.26,0.05
2761,-7.55,-0.04,10.03,0.03,0.27,0.03
2766,-7.55,-0.04,10.03,0.03,0.15,0.02
2772,-7.55,-0.04,10.03,0.02,-0.08,0.01
2776,5.05,-0.15,7.97,0.02,-0.08,0.01
2781,4.56,-0.42,7.70,0.02,-0.08,0.01
2787,4.56,-0.42,7.70,0.03,-0.52,0.07
2792,4.56,-0.42,7.70,0.05,-0.14,0.07
2796,0.04,-0.46,8.85,0.05,-0.14,0.07
2800,-0.96,-0.15,8.74,0.05,-0.14,0.07
2807,-0.96,-0.15,8.74,-0.01,0.17,0.03
2812,-0.96,-0.15,8.74,-0.02,0.05,0.02
2816,-4.33,-0.34,9.73,-0.02,0.05,0.02
2821,-4.25,-0.04,7.43,-0.02,0.05,0.02
2827,-4.25,-0.04,7.43,0.00,-0.02,0.05
2832,-4.25,-0.04,7.43,-0.00,-0.10,0.06
2836,3.68,-0.27,6.86,-0.00,-0.10,0.06
2841,5.94,-0.54,11.30,-0.00,-0.10,0.06
2846,6.55,-0.96,15.13,-0.00,-0.10,0.06
2851,6.55,-0.96,15.13,0.01,-0.18,0.08
2856,6.55,-0.96,15.13,-0.00,0.20,0.07
2862,6.55,-0.96,15.13,0.04,0.31,0.06
2866,-3.03,-1.23,9.88,0.04,0.31,0.06
2871,-1.80,-0.88,10.00,0.04,0.31,0.06
2876,-1.80,-0.88,10.00,0.04,0.14,0.15
2881,1.27,-0.34,7.74,0.04,0.14,0.15
2886,1.76,-1.27,7.66,0.04,0.14,0.15
2891,1.76,-1.27,7.66,-0.02,-0.23,0.06
2896,1.76,-1.27,7.66,-0.03,-0.24,0.08
2901,-1.04,0.27,9.12,-0.03,-0.24,0.08
2906,-1.46,0.23,9.69,-0.03,-0.24,0.08
2911,-1.46,0.23,9.69,0.01,0.12,0.12
2916,-1.57,0.69,8.82,0.01,0.12,0.12
2921,-0.96,-0.34,7.77,0.01,0.12,0.12
2926,0.65,0.19,8.46,0.01,0.12,0.12
2931,1.38,-0.84,8.08,0.01,0.12,0.12
2936,1.00,-0.27,8.50,0.01,0.12,0.12
2941,1.00,-0.27,8.50,-0.03,-0.23,0.07
2946,1.00,-0.27,8.50,-0.03,-0.19,0.05
2951,1.00,-0.27,8.50,-0.03,-0.03,0.03
2956,-0.30,-0.27,11.84,-0.03,-0.03,0.03
2961,0.19,-0.92,11.61,-0.03,-0.03,0.03
2966,0.19,-0.92,11.61,-0.05,0.06,-0.02
2971,0.19,-0.92,11.61,-0.05,-0.01,0.00
2976,1.72,-0.61,9.89,-0.05,-0.01,0.00
2981,1.34,-0.57,9.43,-0.05,-0.01,0.00
2986,0.57,-0.27,9.31,-0.05,-0.01,0.00
2992,0.57,-0.27,9.31,-0.05,-0.03,0.03
2996,0.57,-0.27,9.31,-0.05,0.08,0.02
3001,-0.19,1.38,10.38,-0.05,0.08,0.02
3005,-0.11,1.11,10.34,-0.05,0.08,0.02
3011,-0.11,1.11,10.34,-0.08,0.15,0.01
3016,-0.11,1.11,10.34,-0.10,0.11,-0.02
3021,-2.03,-0.65,7.78,-0.10,0.11,-0.02
3026,-3.41,0.73,6.62,-0.10,0.11,-0.02
3032,-3.41,0.73,6.62,-0.12,0.04,-0.04
3036,-2.45,0.80,9.69,-0.12,0.04,-0.04
3041,-1.53,0.69,10.73,-0.12,0.04,-0.04
3046,-1.53,0.69,10.73,-0.13,-0.01,-0.07
3051,-1.53,0.69,10.73,-0.12,-0.07,-0.09
3056,-1.49,0.00,9.81,-0.12,-0.07,-0.09
3060,-0.73,0.61,9.04,-0.12,-0.07,-0.09
3067,-0.73,0.61,9.04,-0.09,0.02,-0.05
3071,1.15,0.77,8.81,-0.09,0.02,-0.05
3075,-0.15,1.76,8.35,-0.09,0.02,-0.05
3081,-0.15,1.76,8.35,-0.10,-0.02,-0.04
3086,-0.15,1.76,8.35,-0.11,0.02,-0.05
3091,-0.15,1.76,8.35,-0.12,0.07,-0.06
3096,-2.49,1.19,10.42,-0.12,0.07,-0.06
3101,-1.84,-1.23,9.50,-0.12,0.07,-0.06
3106,-1.49,-1.04,9.00,-0.12,0.07,-0.06
3111,-1.49,-1.04,9.00,-0.14,0.02,-0.09
3117,-1.49,-1.04,9.00,-0.14,-0.07,-0.08
3121,0.88,-0.23,9.12,-0.14,-0.07,-0.08
3125,1.23,0.30,8.50,-0.14,-0.07,-0.08
3132,1.23,0.30,8.50,-0.12,-0.09,-0.05
3136,1.23,0.30,8.50,-0.13,-0.04,-0.07
3141,-0.92,0.11,9.16,-0.13,-0.04,-0.07
3146,0.11,0.19,9.69,-0.13,-0.04,-0.07
3151,-0.04,-0.92,10.45,-0.13,-0.04,-0.07
3156,1.04,-1.23,9.65,-0.13,-0.04,-0.07
3161,1.76,-1.15,10.27,-0.13,-0.04,-0.07
3166,1.72,-1.00,10.49,-0.13,-0.04,-0.07
3171,1.72,-1.00,10.49,-0.09,-0.09,-0.07
3176,1.72,-1.00,10.49,-0.10,-0.05,-0.07
3181,1.72,-1.00,10.49,-0.08,0.03,-0.07
3187,1.72,-1.00,10.49,-0.08,0.12,-0.06
3191,-2.22,0.46,8.28,-0.08,0.12,-0.06
3195,-2.22,0.46,8.28,-0.06,0.15,-0.04
3201,-2.22,0.34,7.36,-0.06,0.15,-0.04
3206,-1.15,-0.08,8.54,-0.06,0.15,-0.04
3211,-1.15,-0.08,8.54,-0.09,-0.06,-0.03
3216,-1.15,-0.08,8.54,-0.08,-0.20,-0.02
3221,4.56,-1.46,11.64,-0.08,-0.20,-0.02
3226,2.26,-1.04,12.64,-0.08,-0.20,-0.02
3231,0.77,-0.34,10.38,-0.08,-0.20,-0.02
3236,-1.30,-0.30,10.61,-0.08,-0.20,-0.02
3241,-1.30,-0.30,10.61,-0.04,0.30,0.01
3246,-2.07,-0.19,9.43,-0.04,0.30,0.01
3251,-1.68,-0.38,9.61,-0.04,0.30,0.01
3256,-1.68,-0.38,9.61,-0.08,0.04,0.01
3261,-0.34,-1.19,7.55,-0.08,0.04,0.01
3266,-0.61,-0.38,7.47,-0.08,0.04,0.01
3271,-0.30,-0.23,7.55,-0.08,0.04,0.01
3276,-0.19,0.00,8.20,-0.08,0.04,0.01
3280,-1.23,-0.23,7.85,-0.08,0.04,0.01
3287,-1.23,-0.23,7.85,-0.06,0.04,0.02
3291,-1.23,-0.23,7.85,-0.06,0.04,0.00
3296,-1.38,-0.73,9.77,-0.06,0.04,0.00
3301,-1.07,-1.19,9.16,-0.06,0.04,0.00
3306,-0.65,-0.69,9.65,-0.06,0.04,0.00
3311,0.65,-0.34,9.96,-0.06,0.04,0.00
3316,0.73,-0.11,8.92,-0.06,0.04,0.00
3321,1.65,-0.84,10.11,-0.06,0.04,0.00
3326,2.68,-1.07,10.92,-0.06,0.04,0.00
3331,1.76,-0.96,11.91,-0.06,0.04,0.00
3336,1.07,-1.42,12.48,-0.06,0.04,0.00
3341,0.96,-0.80,12.76,-0.06,0.04,0.00
3346,-0.69,-0.65,11.46,-0.06,0.04,0.00
3351,-1.88,-0.61,11.07,-0.06,0.04,0.00
3356,-2.45,-0.50,9.81,-0.06,0.04,0.00
3361,-2.45,-0.50,9.81,-0.03,0.18,-0.12
3366,-1.11,0.65,7.62,-0.03,0.18,-0.12
3371,-0.27,-0.23,7.70,-0.03,0.18,-0.12
3376,0.30,0.04,7.09,-0.03,0.18,-0.12
3381,1.46,-0.34,7.21,-0.03,0.18,-0.12
3386,0.23,-0.88,6.89,-0.03,0.18,-0.12
3391,-1.72,-0.77,6.74,-0.03,0.18,-0.12
3396,-1.72,-0.77,6.74,-0.06,-0.05,-0.22
3401,-0.27,-0.73,10.77,-0.06,-0.05,-0.22
3406,0.46,-1.04,11.57,-0.06,-0.05,-0.22
3411,1.53,-1.46,12.87,-0.06,-0.05,-0.22
3416,0.54,-0.73,11.60,-0.06,-0.05,-0.22
3421,0.54,-0.73,11.60,0.00,0.05,-0.25
3426,-1.15,0.61,8.88,0.00,0.05,-0.25
3431,-0.04,0.15,8.58,0.00,0.05,-0.25
3436,0.30,-0.04,8.32,0.00,0.05,-0.25
3441,0.50,0.34,8.70,0.00,0.05,-0.25
3446,0.65,0.61,8.62,0.00,0.05,-0.25
3451,0.04,0.08,9.30,0.00,0.05,-0.25
3456,0.04,0.08,9.30,-0.01,-0.02,-0.24
3461,0.04,0.08,9.30,-0.02,0.01,-0.25
3466,-0.96,-0.27,8.62,-0.02,0.01,-0.25
3471,-0.88,-0.84,9.80,-0.02,0.01,-0.25
3476,-0.80,-0.46,8.96,-0.02,0.01,-0.25
3481,-1.11,-0.27,8.70,-0.02,0.01,-0.25
3486,0.23,-0.42,9.89,-0.02,0.01,-0.25
3491,0.23,-0.42,9.89,0.02,-0.07,-0.25
3496,0.04,-0.23,8.93,0.02,-0.07,-0.25
3501,-0.65,-0.27,8.96,0.02,-0.07,-0.25
3506,-0.73,-0.34,10.03,0.02,-0.07,-0.25
3512,-0.38,-0.08,9.23,0.02,-0.07,-0.25
3516,-0.65,-0.54,9.46,0.02,-0.07,-0.25
3521,-0.73,-0.08,10.80,0.02,-0.07,-0.25
3526,-0.69,-0.23,11.19,0.02,-0.07,-0.25
3531,-0.50,-0.46,11.41,0.02,-0.07,-0.25
3536,-0.11,-1.23,10.00,0.02,-0.07,-0.25
3541,-0.11,-1.23,10.00,0.09,0.02,-0.21
3546,-0.80,-0.27,7.78,0.09,0.02,-0.21
3551,-2.45,0.42,7.27,0.09,0.02,-0.21
3556,-1.99,-0.19,6.55,0.09,0.02,-0.21
3561,-1.91,0.57,6.75,0.09,0.02,-0.21
3566,-1.76,0.61,7.32,0.09,0.02,-0.21
3571,0.04,0.30,10.00,0.09,0.02,-0.21
3576,0.04,0.30,10.00,0.10,-0.16,-0.09
3581,0.04,0.30,10.00,0.12,-0.21,-0.06
3586,3.14,-1.23,11.95,0.12,-0.21,-0.06
3591,-0.65,-1.19,10.69,0.12,-0.21,-0.06
3596,-0.65,-1.19,10.69,0.16,0.12,-0.02
3600,-0.46,-1.04,9.65,0.16,0.12,-0.02
3606,-0.46,-1.04,9.65,0.16,0.15,-0.02
3611,0.92,-1.15,9.96,0.16,0.15,-0.02
3616,0.92,-1.72,9.35,0.16,0.15,-0.02
3621,0.73,-2.03,8.84,0.16,0.15,-0.02
3626,0.57,-2.22,8.08,0.16,0.15,-0.02
3631,-0.15,-1.19,7.66,0.16,0.15,-0.02
3636,0.38,-0.96,8.58,0.16,0.15,-0.02
3641,0.11,-0.34,8.89,0.16,0.15,-0.02
3646,0.11,-0.34,8.89,0.19,-0.00,0.08
3651,-1.42,-1.11,9.12,0.19,-0.00,0.08
3656,-0.50,-0.65,10.00,0.19,-0.00,0.08
3661,-0.65,-1.30,9.61,0.19,-0.00,0.08
3666,-0.65,-1.38,9.04,0.19,-0.00,0.08
3671,0.15,-0.92,9.73,0.19,-0.00,0.08
3677,1.04,-0.96,9.42,0.19,-0.00,0.08
3681,1.04,-0.96,9.42,0.19,-0.12,0.16
3686,2.57,-1.80,10.50,0.19,-0.12,0.16
3691,1.11,-1.80,9.69,0.19,-0.12,0.16
3696,0.34,-1.46,10.27,0.19,-0.12,0.16
3701,-0.11,-1.68,11.22,0.19,-0.12,0.16
3706,-0.34,-1.65,10.77,0.19,-0.12,0.16
3711,-0.15,-2.03,10.73,0.19,-0.12,0.16
3716,-0.15,-2.03,10.73,0.23,0.04,0.23
3721,-0.15,-2.03,10.73,0.23,0.00,0.24
3726,-0.88,-0.84,8.01,0.23,0.00,0.24
3731,-0.04,-1.23,8.24,0.23,0.00,0.24
3736,0.80,-1.42,8.77,0.23,0.00,0.24
3741,1.04,-1.07,7.85,0.23,0.00,0.24
3746,0.54,-1.23,8.08,0.23,0.00,0.24
3752,-0.65,-1.23,7.47,0.23,0.00,0.24
3756,-2.95,-0.61,8.81,0.23,0.00,0.24
3761,-2.99,-0.80,8.70,0.23,0.00,0.24
3766,-1.42,-1.42,10.11,0.23,0.00,0.24
3771,-0.27,-1.57,10.11,0.23,0.00,0.24
3776,1.11,-0.77,11.41,0.23,0.00,0.24
3781,0.23,-0.77,11.22,0.23,0.00,0.24
3787,-0.38,-0.19,10.50,0.23,0.00,0.24
3791,0.11,-0.19,10.07,0.23,0.00,0.24
3796,0.34,0.27,9.89,0.23,0.00,0.24
3801,0.15,0.80,10.07,0.23,0.00,0.24
3808,-0.15,1.34,10.11,0.23,0.00,0.24
3812,-1.07,1.72,10.15,0.23,0.00,0.24
3816,-1.07,1.72,10.15,0.13,0.04,0.30
3821,-1.07,1.72,10.15,0.12,0.01,0.29
3826,-1.99,0.54,10.04,0.12,0.01,0.29
3832,-2.07,-0.04,9.23,0.12,0.01,0.29
3836,-2.07,-0.04,9.23,0.07,-0.01,0.28
3842,-2.07,-0.04,9.23,0.07,-0.03,0.29
3846,-1.19,0.80,9.38,0.07,-0.03,0.29
3851,-1.19,0.80,9.38,0.05,-0.07,0.29
3856,-1.19,0.80,9.38,0.03,-0.07,0.26
3861,-1.07,0.77,9.23,0.03,-0.07,0.26
3866,-1.49,0.65,9.00,0.03,-0.07,0.26
3872,-1.49,0.77,8.96,0.03,-0.07,0.26
3876,0.46,0.34,10.49,0.03,-0.07,0.26
3881,0.88,-0.15,10.73,0.03,-0.07,0.26
3887,0.54,-0.57,11.11,0.03,-0.07,0.26
3891,0.54,-0.57,11.11,-0.02,-0.02,0.13
3896,-0.69,-0.30,10.07,-0.02,-0.02,0.13
3901,-0.80,-1.53,10.03,-0.02,-0.02,0.13
3907,-1.49,-0.50,9.38,-0.02,-0.02,0.13
3911,-2.03,-0.30,7.47,-0.02,-0.02,0.13
3916,-2.49,-0.15,7.20,-0.02,-0.02,0.13
3921,-1.95,-0.30,7.21,-0.02,-0.02,0.13
3926,-1.57,0.04,7.63,-0.02,-0.02,0.13
3931,-0.34,-0.19,9.27,-0.02,-0.02,0.13
3937,1.99,-0.34,10.77,-0.02,-0.02,0.13
3941,1.99,-0.34,10.77,-0.05,-0.19,0.02
3946,3.41,-0.84,11.46,-0.05,-0.19,0.02
3951,2.49,-0.65,10.84,-0.05,-0.19,0.02
3956,0.30,0.23,9.61,-0.05,-0.19,0.02
3961,0.30,0.23,9.61,-0.02,0.22,0.01
3966,-0.65,0.34,9.50,-0.02,0.22,0.01
3972,0.00,0.34,10.84,-0.02,0.22,0.01
3976,0.00,0.34,10.84,-0.04,0.06,0.02
3981,0.00,0.34,10.84,-0.04,0.00,0.01
3987,-0.84,-0.30,8.62,-0.04,0.00,0.01
3991,-0.84,-0.30,8.62,-0.03,0.02,0.02
3996,0.80,0.50,7.55,-0.03,0.02,0.02
4001,0.77,1.27,8.24,-0.03,0.02,0.02
4007,-0.38,0.84,8.58,-0.03,0.02,0.02
4011,-0.38,0.84,8.58,-0.06,-0.05,0.03
4016,-0.34,0.69,8.50,-0.06,-0.05,0.03
4021,0.30,0.42,9.80,-0.06,-0.05,0.03
4027,0.84,-0.84,10.03,-0.06,-0.05,0.03
4031,0.46,-0.65,10.49,-0.06,-0.05,0.03
4036,1.84,-0.15,10.53,-0.06,-0.05,0.03
4041,1.84,-0.15,10.53,-0.05,-0.09,-0.01
4046,1.84,-0.15,10.53,-0.08,-0.07,-0.03
4051,1.27,-1.00,10.27,-0.08,-0.07,-0.03
4057,1.15,-0.50,10.42,-0.08,-0.07,-0.03
4061,1.15,-0.50,10.42,-0.08,0.09,-0.05
4066,-0.27,-1.11,11.30,-0.08,0.09,-0.05
4072,0.04,-0.42,10.69,-0.08,0.09,-0.05
4076,0.04,-0.42,10.69,-0.05,0.14,-0.06
4082,0.04,-0.42,10.69,-0.05,0.09,-0.06
4087,0.61,-0.54,7.51,-0.05,0.09,-0.06
4091,0.61,-0.54,7.51,-0.04,-0.05,-0.04
4096,0.61,-0.54,7.51,-0.03,-0.10,-0.03
4101,0.61,-0.54,7.51,-0.04,-0.11,-0.04
4107,1.04,-0.04,8.20,-0.04,-0.11,-0.04
4111,1.04,-0.04,8.20,-0.03,0.01,-0.06
4116,1.04,-0.04,8.20,-0.03,0.11,-0.07
4121,-3.10,0.11,9.34,-0.03,0.11,-0.07
4127,-1.76,-0.34,9.30,-0.03,0.11,-0.07
4131,-1.76,-0.34,9.30,-0.04,0.03,-0.09
4136,1.42,-0.77,10.73,-0.04,0.03,-0.09
4142,0.38,-0.30,10.65,-0.04,0.03,-0.09
4146,0.38,-0.30,10.65,0.01,-0.15,-0.04
4151,0.38,-0.30,10.65,0.02,-0.05,-0.03
4157,0.57,-0.54,9.93,0.02,-0.05,-0.03
4161,0.57,-0.54,9.93,0.01,0.11,-0.01
4166,0.57,-0.54,9.93,0.02,0.12,0.00
4171,-1.49,-0.11,10.07,0.02,0.12,0.00
4177,-1.34,0.00,10.23,0.02,0.12,0.00
4181,-1.34,0.00,10.23,0.03,0.05,0.04
4186,-1.15,-0.11,9.16,0.03,0.05,0.04
4192,-1.19,-1.27,8.73,0.03,0.05,0.04
4196,-1.19,-1.27,8.73,0.01,-0.04,0.04
4201,-1.19,-1.27,8.73,0.02,-0.07,0.05
4206,-0.46,-1.00,9.77,0.02,-0.07,0.05
4212,-0.23,-1.27,9.92,0.02,-0.07,0.05
4216,-0.23,-1.27,9.92,0.06,-0.03,0.11
4221,-0.23,-1.27,9.92,0.06,0.00,0.10
4227,-1.91,-0.27,8.46,0.06,0.00,0.10
4231,-1.91,-0.27,8.46,0.06,0.02,0.09
4236,-1.91,-0.27,8.46,0.06,-0.02,0.10
4242,-1.91,-0.27,8.46,0.07,-0.06,0.10
4247,0.84,-0.34,10.99,0.07,-0.06,0.10
4251,0.84,-0.34,10.99,0.06,-0.05,0.10
4256,-0.54,-1.15,10.27,0.06,-0.05,0.10
4262,-0.92,-1.68,9.43,0.06,-0.05,0.10
4266,-0.92,-1.68,9.43,0.06,0.11,0.08
4272,-0.92,-1.68,9.43,0.07,0.11,0.07
4276,-3.37,0.38,7.55,0.07,0.11,0.07
4281,-3.37,0.38,7.55,0.05,0.07,0.08
4286,-3.37,0.38,7.55,0.03,0.03,0.07
4291,-0.27,1.11,9.54,0.03,0.03,0.07
4297,1.80,0.11,10.31,0.03,0.03,0.07
4301,1.80,0.11,10.31,0.01,-0.26,0.05
4306,1.80,0.11,10.31,0.02,-0.30,0.06
4312,1.91,0.04,10.15,0.02,-0.30,0.06
4316,1.91,0.04,10.15,0.04,-0.03,0.05
4321,1.91,0.04,10.15,0.02,0.18,0.04
4326,0.11,1.11,10.34,0.02,0.18,0.04
4332,0.04,0.30,10.88,0.02,0.18,0.04
4336,0.04,0.30,10.88,-0.02,0.08,-0.00
4341,0.04,0.30,10.88,-0.03,0.01,-0.02
4347,-0.38,-1.11,9.31,-0.03,0.01,-0.02
4351,-0.38,-1.11,9.31,-0.03,-0.03,-0.05
4356,-0.38,-1.11,9.31,-0.01,0.01,-0.02
4361,-0.38,-1.11,9.31,-0.02,0.02,0.01
4367,0.23,0.08,8.16,-0.02,0.02,0.01
4371,0.23,0.08,8.16,-0.04,-0.04,-0.03
4376,0.23,0.08,8.16,-0.03,-0.05,-0.04
4381,0.23,0.08,8.16,-0.04,-0.04,-0.04
4387,0.61,-1.00,10.30,-0.04,-0.04,-0.04
4391,0.61,-1.00,10.30,-0.01,-0.01,-0.02
4396,1.00,-0.27,10.61,-0.01,-0.01,-0.02
4402,0.92,-0.30,9.20,-0.01,-0.01,-0.02
4406,0.92,-0.30,9.20,-0.00,-0.05,-0.01
4411,0.92,-0.30,9.20,-0.00,-0.06,0.00
4417,1.61,-0.77,10.41,-0.00,-0.06,0.00
4421,1.61,-0.77,10.41,0.01,0.01,0.04
4426,1.61,-0.77,10.41,0.02,0.06,0.06
4431,-0.34,-1.27,9.93,0.02,0.06,0.06
4437,-1.42,-0.92,9.54,0.02,0.06,0.06
4441,-1.42,-0.92,9.54,0.03,0.14,0.07
4446,-1.42,-0.92,9.54,0.03,0.10,0.11
4452,0.38,-0.11,7.93,0.03,0.10,0.11
4456,0.38,-0.11,7.93,0.03,-0.05,0.15
4461,0.38,-0.11,7.93,0.03,-0.09,0.14
4468,0.27,-1.23,7.55,0.03,-0.09,0.14
4471,0.27,-1.23,7.55,0.01,-0.03,0.15
4476,0.27,-1.23,7.55,0.01,0.04,0.14
4481,0.27,-1.23,7.55,-0.00,0.09,0.15
4487,-1.38,-1.42,9.54,-0.00,0.09,0.15
4491,-1.38,-1.42,9.54,-0.02,-0.03,0.14
4496,-1.38,-1.42,9.54,0.01,-0.14,0.14
4501,-1.38,-1.42,9.54,0.03,-0.18,0.17
4507,0.11,-1.49,10.50,0.03,-0.18,0.17
4511,0.11,-1.49,10.50,0.07,-0.03,0.23
4516,0.11,-1.49,10.50,0.06,0.05,0.24
4522,-0.57,-0.27,9.31,0.06,0.05,0.24
4526,-0.57,-0.27,9.31,0.04,0.08,0.24
4531,-0.57,-0.27,9.31,0.04,0.06,0.26
4537,-0.61,0.11,11.03,0.04,0.06,0.26
4541,-0.61,0.11,11.03,0.02,0.02,0.27
4546,-0.61,0.11,11.03,0.00,0.02,0.27
4551,-1.65,-1.04,8.88,0.00,0.02,0.27
4557,-1.53,-0.50,8.70,0.00,0.02,0.27
4561,-1.53,-0.50,8.70,-0.01,-0.03,0.30
4566,-1.53,-0.50,8.70,-0.01,-0.06,0.32
4572,-0.46,0.30,10.46,-0.01,-0.06,0.32
4576,-0.46,0.30,10.46,-0.03,-0.06,0.30
4582,-0.46,0.30,10.46,-0.05,-0.02,0.27
4588,-1.65,0.65,9.50,-0.05,-0.02,0.27
4591,-1.65,0.65,9.50,-0.07,0.04,0.25
4596,-1.65,0.65,9.50,-0.07,0.00,0.25
4601,-1.65,0.65,9.50,-0.08,-0.05,0.24
4607,0.23,0.42,10.61,-0.08,-0.05,0.24
4611,0.23,0.42,10.61,-0.10,-0.06,0.20
4616,0.23,0.42,10.61,-0.12,0.01,0.17
4621,0.23,0.42,10.61,-0.13,0.07,0.14
4627,-0.73,0.30,9.34,-0.13,0.07,0.14
4632,-0.73,0.30,9.34,-0.12,0.11,0.12
4636,-0.73,0.30,9.34,-0.14,0.10,0.10
4641,-2.64,1.23,6.51,-0.14,0.10,0.10
4646,-2.64,1.23,6.51,-0.15,0.07,0.09
4651,-2.64,1.23,6.51,-0.18,0.03,0.09
4656,2.64,0.80,10.91,-0.18,0.03,0.09
4662,3.79,-0.19,11.64,-0.18,0.03,0.09
4666,3.79,-0.19,11.64,-0.19,-0.20,0.04
4671,3.79,-0.19,11.64,-0.18,-0.12,0.00
4677,0.42,0.38,10.04,-0.18,-0.12,0.00
4681,0.42,0.38,10.04,-0.20,0.25,-0.01
4686,0.42,0.38,10.04,-0.19,0.27,-0.03
4692,-0.04,0.80,9.61,-0.19,0.27,-0.03
4696,-0.04,0.80,9.61,-0.22,0.15,-0.03
4701,-0.04,0.80,9.61,-0.24,0.08,-0.07
4706,-0.34,-0.34,8.85,-0.24,0.08,-0.07
4712,0.23,0.42,8.62,-0.24,0.08,-0.07
4716,0.23,0.42,8.62,-0.21,0.03,-0.04
4721,0.23,0.42,8.62,-0.20,0.04,-0.04
4727,-0.50,1.34,8.39,-0.20,0.04,-0.04
4731,-0.50,1.34,8.39,-0.23,0.03,-0.10
4737,-0.50,1.34,8.39,-0.25,0.02,-0.13
4743,-0.50,1.34,8.39,-0.25,0.01,-0.14
4746,-0.50,1.34,8.39,-0.24,0.01,-0.14
4752,-0.50,1.34,8.39,-0.24,0.00,-0.13
4756,-0.50,1.34,8.39,-0.23,0.01,-0.16
4762,0.57,0.42,10.23,-0.23,0.01,-0.16
4766,0.57,0.42,10.23,-0.26,-0.00,-0.22
4771,0.57,0.42,10.23,-0.26,0.01,-0.24
4776,0.50,0.54,10.80,-0.26,0.01,-0.24
4783,0.61,-0.19,11.30,-0.26,0.01,-0.24
4786,0.61,-0.19,11.30,-0.24,0.15,-0.26
4791,0.61,-0.19,11.30,-0.25,0.20,-0.27
4797,-0.65,-0.23,9.81,-0.25,0.20,-0.27
4801,-0.65,-0.23,9.81,-0.24,0.15,-0.33
4806,-0.65,-0.23,9.81,-0.25,0.08,-0.33
4812,1.46,-0.61,8.66,-0.25,0.08,-0.33
4816,1.46,-0.61,8.66,-0.24,-0.05,-0.32
4821,1.46,-0.61,8.66,-0.25,-0.06,-0.35
4826,1.46,-0.61,8.66,-0.24,-0.02,-0.37
4832,-0.61,-0.34,8.31,-0.24,-0.02,-0.37
4836,-0.61,-0.34,8.31,-0.22,0.17,-0.40
4841,-0.61,-0.34,8.31,-0.21,0.19,-0.39
4847,0.30,-0.73,10.11,-0.21,0.19,-0.39
4851,0.30,-0.73,10.11,-0.19,0.04,-0.38
4857,0.30,-0.73,10.11,-0.16,-0.06,-0.39
4861,0.30,-0.73,10.11,-0.14,-0.09,-0.37
4868,-0.23,1.07,9.12,-0.14,-0.09,-0.37
4871,-0.23,1.07,9.12,-0.12,0.04,-0.34
4876,-0.23,1.07,9.12,-0.14,0.08,-0.35
4881,-0.23,1.07,9.12,-0.14,0.09,-0.35
4888,0.19,0.73,9.93,-0.14,0.09,-0.35
4891,0.19,0.73,9.93,-0.14,0.04,-0.34
4897,0.00,0.54,10.45,-0.14,0.04,-0.34
4902,0.00,0.54,10.45,-0.13,0.02,-0.34
4906,0.00,0.54,10.45,-0.14,0.03,-0.35
4911,0.00,0.54,10.45,-0.14,0.02,-0.35
4917,-0.73,-0.69,7.89,-0.14,0.02,-0.35
4921,-0.73,-0.69,7.89,-0.12,-0.03,-0.33
4926,-0.73,-0.69,7.89,-0.10,-0.05,-0.30
4832,-0.61,-0.34,8.31,-0.24,-0.02,-0.37
4836,-0.61,-0.34,8.31,-0.22,0.17,-0.40
4841,-0.61,-0.34,8.31,-0.21,0.19,-0.39
4847,0.30,-0.73,10.11,-0.21,0.19,-0.39
4851,0.30,-0.73,10.11,-0.19,0.04,-0.38
4857,0.30,-0.73,10.11,-0.16,-0.06,-0.39
4861,0.30,-0.73,10.11,-0.14,-0.09,-0.37
4868,-0.23,1.07,9.12,-0.14,-0.09,-0.37
4871,-0.23,1.07,9.12,-0.12,0.04,-0.34
4876,-0.23,1.07,9.12,-0.14,0.08,-0.35
4881,-0.23,1.07,9.12,-0.14,0.09,-0.35
4888,0.19,0.73,9.93,-0.14,0.09,-0.35
4891,0.19,0.73,9.93,-0.14,0.04,-0.34
4897,0.00,0.54,10.45,-0.14,0.04,-0.34
4902,0.00,0.54,10.45,-0.13,0.02,-0.34
