timestamp,accX,accY,accZ,gyroX,gyroY,gyroZ
Left
6,-1.42,0.73,7.97,-0.06,0.03,-0.10
18,-1.42,0.73,7.97,-0.09,-0.01,-0.11
20,-0.08,-2.14,9.16,-0.09,-0.01,-0.11
21,-0.08,-2.14,9.16,0.08,-0.29,0.08
25,4.45,-0.92,12.64,0.08,-0.29,0.08
30,4.45,-0.92,12.64,0.08,-0.11,0.11
35,0.61,0.69,10.46,0.08,-0.11,0.11
40,0.61,0.69,10.46,0.07,0.17,0.13
47,0.61,0.69,10.46,0.11,0.28,0.13
52,0.08,-0.61,10.03,0.11,0.28,0.13
55,-1.65,-0.96,10.00,0.11,0.28,0.13
60,-2.22,-1.53,10.07,0.11,0.28,0.13
65,-1.46,-1.23,10.65,0.11,0.28,0.13
70,-2.45,-0.92,9.65,0.11,0.28,0.13
76,-2.45,-0.92,9.65,0.20,-0.01,0.28
81,-1.80,0.88,8.93,0.20,-0.01,0.28
85,-2.57,2.76,8.12,0.20,-0.01,0.28
90,-1.57,1.95,7.51,0.20,-0.01,0.28
95,-0.46,1.53,7.55,0.20,-0.01,0.28
100,-2.14,1.00,7.89,0.20,-0.01,0.28
106,-1.46,-0.11,8.46,0.20,-0.01,0.28
111,0.46,-1.42,9.92,0.20,-0.01,0.28
115,0.46,-1.42,9.92,0.08,-0.13,0.14
120,-1.80,-0.30,11.45,0.08,-0.13,0.14
126,-1.68,-0.38,12.14,0.08,-0.13,0.14
131,-1.46,0.61,12.18,0.08,-0.13,0.14
136,-1.34,0.69,10.04,0.08,-0.13,0.14
141,-2.07,-0.65,9.96,0.08,-0.13,0.14
147,-1.04,-1.38,9.54,0.08,-0.13,0.14
150,-1.04,-1.38,9.54,0.15,0.02,0.10
155,-1.23,-0.23,8.62,0.15,0.02,0.10
160,-0.04,-0.69,9.96,0.15,0.02,0.10
165,1.34,0.11,11.26,0.15,0.02,0.10
170,1.15,-0.04,10.88,0.15,0.02,0.10
176,0.19,-0.65,11.11,0.15,0.02,0.10
181,1.04,-0.11,10.30,0.15,0.02,0.10
186,1.04,-0.11,10.30,0.12,0.05,0.13
190,1.04,-0.11,10.30,0.15,0.12,0.15
195,-1.57,0.65,7.59,0.15,0.12,0.15
200,-0.69,1.61,7.09,0.15,0.12,0.15
207,-1.65,0.80,6.29,0.15,0.12,0.15
210,-1.34,0.80,6.66,0.15,0.12,0.15
215,0.00,-0.11,7.36,0.15,0.12,0.15
220,0.50,0.11,7.43,0.15,0.12,0.15
226,0.65,0.04,8.16,0.15,0.12,0.15
230,2.99,0.46,10.23,0.15,0.12,0.15
235,2.03,0.11,10.31,0.15,0.12,0.15
241,1.91,-0.46,12.72,0.15,0.12,0.15
245,1.42,0.27,12.10,0.15,0.12,0.15
251,-1.00,0.42,11.42,0.15,0.12,0.15
257,-1.38,-0.30,11.38,0.15,0.12,0.15
260,-1.00,-1.42,10.30,0.15,0.12,0.15
265,-0.30,-0.65,9.20,0.15,0.12,0.15
270,0.11,-1.11,8.66,0.15,0.12,0.15
276,1.42,-1.00,9.30,0.15,0.12,0.15
281,1.04,0.34,9.12,0.15,0.12,0.15
285,0.11,0.80,8.54,0.15,0.12,0.15
292,0.30,1.57,8.20,0.15,0.12,0.15
295,-0.69,0.61,8.66,0.15,0.12,0.15
300,-1.38,0.65,8.62,0.15,0.12,0.15
305,-0.50,-1.00,8.28,0.15,0.12,0.15
311,-0.30,-1.00,9.00,0.15,0.12,0.15
316,-0.46,-0.84,9.04,0.15,0.12,0.15
320,-0.46,-0.84,9.04,0.12,-0.11,0.05
326,-0.46,-0.84,9.04,0.13,-0.13,0.06
330,0.61,-0.92,10.39,0.13,-0.13,0.06
337,0.96,-0.19,9.96,0.13,-0.13,0.06
340,0.96,-0.19,9.96,0.20,0.03,0.15
345,-1.07,-0.11,8.70,0.20,0.03,0.15
350,-1.04,0.65,7.39,0.20,0.03,0.15
355,-0.08,-0.92,8.74,0.20,0.03,0.15
362,-0.15,-0.34,8.35,0.20,0.03,0.15
365,2.84,-1.30,10.61,0.20,0.03,0.15
370,3.10,-1.15,11.72,0.20,0.03,0.15
377,1.99,-1.27,14.17,0.20,0.03,0.15
381,2.49,-1.04,14.52,0.20,0.03,0.15
385,0.61,-0.38,13.53,0.20,0.03,0.15
390,-0.96,-0.57,11.76,0.20,0.03,0.15
397,-2.34,-0.46,10.80,0.20,0.03,0.15
400,-1.72,-0.84,7.01,0.20,0.03,0.15
407,-2.18,-1.15,4.48,0.20,0.03,0.15
410,-2.18,-1.15,4.48,0.37,0.02,0.48
415,-0.23,-1.61,4.29,0.37,0.02,0.48
420,-0.34,-0.50,5.44,0.37,0.02,0.48
426,0.50,0.00,8.39,0.37,0.02,0.48
430,0.50,0.00,8.39,0.17,-0.42,0.45
437,2.80,0.80,12.76,0.17,-0.42,0.45
442,1.72,0.73,15.62,0.17,-0.42,0.45
445,1.72,0.73,15.62,0.05,0.25,0.35
450,1.72,0.73,15.62,0.11,0.26,0.35
455,-0.27,-1.49,9.69,0.11,0.26,0.35
462,-0.30,-0.69,9.92,0.11,0.26,0.35
465,-1.04,-0.65,9.00,0.11,0.26,0.35
470,-1.95,-1.11,8.92,0.11,0.26,0.35
477,-2.14,-1.07,9.58,0.11,0.26,0.35
480,-2.14,-1.07,9.58,0.29,0.06,0.50
486,-2.49,0.11,8.93,0.29,0.06,0.50
490,-2.99,0.77,9.77,0.29,0.06,0.50
497,-2.68,1.99,9.34,0.29,0.06,0.50
500,-0.30,1.80,8.24,0.29,0.06,0.50
505,-0.30,0.92,7.62,0.29,0.06,0.50
512,-0.50,0.34,7.73,0.29,0.06,0.50
515,-0.50,0.34,7.73,0.09,-0.11,0.31
520,-1.27,-0.96,8.36,0.09,-0.11,0.31
527,-1.46,-1.38,9.39,0.09,-0.11,0.31
530,-1.46,-1.38,9.39,0.12,-0.04,0.27
536,-2.41,-1.61,11.88,0.12,-0.04,0.27
542,-1.34,-1.99,12.52,0.12,-0.04,0.27
545,-1.34,-1.99,12.52,0.15,0.04,0.29
550,-1.34,-1.99,12.52,0.18,0.00,0.37
555,0.15,-2.61,11.72,0.18,0.00,0.37
562,-0.42,-2.26,10.92,0.18,0.00,0.37
565,-0.42,-2.26,10.92,0.26,0.12,0.52
571,-0.42,-2.26,10.92,0.29,0.14,0.55
577,-1.61,-1.15,9.61,0.29,0.14,0.55
580,-1.61,-1.15,9.61,0.34,0.23,0.66
586,-1.61,-1.15,9.61,0.37,0.28,0.64
590,-6.97,1.04,7.13,0.37,0.28,0.64
597,-6.13,1.23,5.63,0.37,0.28,0.64
600,-6.13,1.23,5.63,0.26,0.08,0.50
605,0.77,-2.18,8.58,0.26,0.08,0.50
610,2.57,-3.68,8.31,0.26,0.08,0.50
617,4.29,-3.29,9.61,0.26,0.08,0.50
621,4.29,-3.29,9.61,0.07,-0.51,0.55
626,1.27,0.54,10.19,0.07,-0.51,0.55
630,1.11,-0.19,10.91,0.07,-0.51,0.55
635,1.11,-0.19,10.91,0.17,0.38,0.45
640,-1.53,-2.45,9.46,0.17,0.38,0.45
645,-1.53,-2.45,9.46,0.28,0.36,0.46
652,-1.53,-2.45,9.46,0.31,0.23,0.49
656,-1.53,-2.45,9.46,0.32,-0.05,0.66
662,-0.65,0.57,11.26,0.32,-0.05,0.66
665,-0.65,0.57,11.26,0.25,-0.13,0.71
670,-0.65,0.57,11.26,0.20,-0.13,0.63
675,2.87,2.18,9.58,0.20,-0.13,0.63
682,2.91,2.07,9.00,0.20,-0.13,0.63
685,2.91,2.07,9.00,0.14,0.03,0.56
691,2.91,2.07,9.00,0.14,0.12,0.58
697,-0.46,1.34,10.77,0.14,0.12,0.58
700,-0.46,1.34,10.77,0.13,0.27,0.56
705,-0.46,1.34,10.77,0.09,0.26,0.51
710,-0.46,1.34,10.77,0.09,0.20,0.49
717,-0.84,-1.38,9.54,0.09,0.20,0.49
720,-0.84,-1.38,9.54,0.06,-0.06,0.46
726,1.00,-1.38,9.85,0.06,-0.06,0.46
731,1.57,-0.69,9.08,0.06,-0.06,0.46
737,1.30,-0.50,9.69,0.06,-0.06,0.46
741,1.30,-0.50,9.69,0.08,-0.11,0.45
745,0.57,0.19,10.95,0.08,-0.11,0.45
752,-0.11,0.73,11.84,0.08,-0.11,0.45
755,-0.11,0.73,11.84,0.07,0.32,0.37
761,-0.88,-0.73,12.10,0.07,0.32,0.37
766,-0.65,-0.65,11.15,0.07,0.32,0.37
770,-0.65,-0.65,11.15,0.04,0.22,0.40
775,-0.65,-0.65,11.15,0.04,0.15,0.41
781,-0.15,-0.15,8.50,0.04,0.15,0.41
787,1.23,-0.30,8.39,0.04,0.15,0.41
791,1.23,-0.30,8.39,0.03,0.00,0.40
796,0.00,1.04,7.66,0.03,0.00,0.40
802,-0.69,1.04,7.09,0.03,0.00,0.40
806,-0.69,1.04,7.09,0.06,0.15,0.41
811,-0.69,1.04,7.09,0.07,0.19,0.38
815,-2.72,1.27,6.82,0.07,0.19,0.38
822,-1.76,0.15,8.20,0.07,0.19,0.38
826,-1.76,0.15,8.20,-0.02,0.00,0.27
831,-1.76,0.15,8.20,-0.06,-0.12,0.27
837,3.91,-1.34,13.64,-0.06,-0.12,0.27
840,3.91,-1.34,13.64,-0.14,-0.23,0.34
845,4.64,0.00,13.41,-0.14,-0.23,0.34
850,2.14,0.61,12.91,-0.14,-0.23,0.34
857,1.07,-0.11,11.30,-0.14,-0.23,0.34
860,1.07,-0.11,11.30,0.10,0.51,0.37
866,-2.76,-0.46,8.82,0.10,0.51,0.37
872,-4.67,-1.00,7.70,0.10,0.51,0.37
875,-4.67,-1.00,7.70,0.15,0.38,0.37
881,-1.95,-0.08,6.97,0.15,0.38,0.37
887,-2.49,0.80,6.21,0.15,0.38,0.37
890,-2.49,0.80,6.21,0.01,-0.12,0.33
895,-2.49,0.80,6.21,-0.09,-0.22,0.28
901,0.19,2.68,8.82,-0.09,-0.22,0.28
907,0.54,1.68,9.38,-0.09,-0.22,0.28
910,0.54,1.68,9.38,-0.21,-0.16,0.05
916,1.42,-1.00,10.49,-0.21,-0.16,0.05
922,1.91,-1.30,11.84,-0.21,-0.16,0.05
926,1.91,-1.30,11.84,-0.06,0.22,0.18
932,1.91,-1.30,11.84,-0.01,0.26,0.19
937,-0.65,0.08,11.53,-0.01,0.26,0.19
940,-0.65,0.08,11.53,0.05,0.24,0.19
945,-0.65,0.08,11.53,0.04,0.21,0.23
951,-0.65,0.08,11.53,0.04,0.19,0.26
957,-0.69,0.88,10.04,0.04,0.19,0.26
960,-0.69,0.88,10.04,-0.00,0.07,0.21
965,-0.69,0.88,10.04,-0.02,0.00,0.22
971,-0.69,0.88,10.04,-0.05,-0.01,0.26
977,-0.57,0.69,11.45,-0.05,-0.01,0.26
980,-0.57,0.69,11.45,-0.05,0.07,0.26
985,-0.57,1.38,8.16,-0.05,0.07,0.26
991,-1.65,0.54,7.01,-0.05,0.07,0.26
997,-3.95,0.69,7.01,-0.05,0.07,0.26
1001,-3.95,0.69,7.01,0.04,0.12,0.25
1005,0.54,-0.57,7.09,0.04,0.12,0.25
1012,-0.19,-0.04,7.70,0.04,0.12,0.25
1015,-0.19,-0.04,7.70,-0.03,-0.09,0.31
1021,-1.42,0.80,8.66,-0.03,-0.09,0.31
1026,-2.22,0.61,9.50,-0.03,-0.09,0.31
1030,-2.22,0.61,9.50,-0.04,0.00,0.22
1036,-2.22,0.61,9.50,-0.05,0.01,0.22
1042,-1.15,-2.34,12.03,-0.05,0.01,0.22
1045,-1.15,-2.34,12.03,0.03,0.11,0.33
1050,-1.15,-2.34,12.03,0.07,0.16,0.35
1056,-1.84,-0.27,10.41,0.07,0.16,0.35
1062,-3.95,-1.23,9.46,0.07,0.16,0.35
1065,-3.95,-1.23,9.46,0.14,0.24,0.44
1071,-3.95,-1.23,9.46,0.15,0.16,0.40
1077,1.80,-2.38,8.58,0.15,0.16,0.40
1080,1.80,-2.38,8.58,0.11,-0.12,0.46
1085,1.80,-2.38,8.58,0.08,-0.20,0.54
1091,1.80,-2.38,8.58,0.04,-0.20,0.56
1097,0.23,1.19,10.88,0.04,-0.20,0.56
1101,0.23,1.19,10.88,0.05,0.00,0.44
1105,0.23,1.19,10.88,0.06,0.14,0.39
1110,0.23,1.19,10.88,0.09,0.23,0.37
1115,-2.38,-1.42,9.08,0.09,0.23,0.37
1121,-2.38,-1.42,9.08,0.11,0.19,0.33
1126,0.15,-1.80,9.46,0.11,0.19,0.33
1132,1.68,-2.11,9.34,0.11,0.19,0.33
1136,1.68,-2.11,9.34,0.06,-0.19,0.38
1141,1.68,-2.11,9.34,0.07,-0.20,0.41
1147,2.72,0.88,11.00,0.07,-0.20,0.41
1151,2.72,0.88,11.00,0.09,0.05,0.37
1156,2.72,0.88,11.00,0.06,0.22,0.34
1162,0.69,-0.34,11.46,0.06,0.22,0.34
1165,0.69,-0.34,11.46,0.12,0.26,0.34
1170,0.69,-0.34,11.46,0.14,0.22,0.42
1176,0.69,-0.34,9.61,0.14,0.22,0.42
1182,0.34,-0.61,9.08,0.14,0.22,0.42
1186,0.34,-0.61,9.08,0.11,-0.00,0.46
1191,0.34,-0.61,9.08,0.09,-0.03,0.43
1197,0.57,0.88,8.46,0.09,-0.03,0.43
1201,0.57,0.88,8.46,0.09,-0.00,0.43
1206,0.57,0.88,8.46,0.09,0.04,0.42
1211,0.57,0.88,8.46,0.09,0.06,0.39
1217,-2.22,-0.08,8.35,0.09,0.06,0.39
1221,-2.22,-0.08,8.35,0.07,0.06,0.35
1226,-2.22,-0.08,8.35,0.06,0.02,0.35
1231,-2.22,-0.08,8.35,0.03,-0.05,0.37
1237,1.00,-1.53,11.19,0.03,-0.05,0.37
1241,1.00,-1.53,11.19,0.04,-0.06,0.45
1246,1.00,-1.53,11.19,0.05,0.03,0.42
1252,0.42,0.19,10.19,0.05,0.03,0.42
1256,0.42,0.19,10.19,0.10,0.18,0.37
1261,0.42,0.19,10.19,0.12,0.22,0.44
1267,-1.68,-1.27,9.61,0.12,0.22,0.44
1271,-1.68,-1.27,9.61,0.16,0.25,0.54
1276,-1.68,-1.27,9.61,0.18,0.23,0.51
1281,-5.48,1.68,7.12,0.18,0.23,0.51
1287,-4.18,2.49,8.27,0.18,0.23,0.51
1291,-4.18,2.49,8.27,0.11,0.09,0.41
1296,-4.18,2.49,8.27,0.05,-0.06,0.37
1302,1.04,0.46,9.20,0.05,-0.06,0.37
1306,1.04,0.46,9.20,-0.03,-0.23,0.39
1311,1.04,0.46,9.20,-0.04,-0.22,0.39
1316,1.57,0.00,11.03,-0.04,-0.22,0.39
1323,0.15,0.04,12.91,-0.04,-0.22,0.39
1326,0.15,0.04,12.91,0.03,0.22,0.38
1331,0.15,0.04,12.91,0.05,0.34,0.31
1337,0.88,-0.80,11.92,0.05,0.34,0.31
1341,0.88,-0.80,11.92,0.10,0.26,0.36
1345,0.88,-0.80,11.92,0.10,0.20,0.42
1351,0.88,-0.80,11.92,0.08,0.11,0.41
1357,0.08,-0.54,9.16,0.08,0.11,0.41
1361,0.08,-0.54,9.16,0.08,0.01,0.32
1366,0.08,-0.54,9.16,0.04,0.04,0.30
1372,0.84,0.11,9.69,0.04,0.04,0.30
1376,0.84,0.11,9.69,0.04,0.09,0.24
1382,0.84,0.11,9.69,0.06,0.16,0.24
1387,-1.88,1.49,7.20,0.06,0.16,0.24
1391,-1.88,1.49,7.20,0.06,0.18,0.15
1396,-1.88,1.49,7.20,0.05,0.12,0.13
1401,-2.26,-0.23,8.01,0.05,0.12,0.13
1407,-0.54,-0.42,7.31,0.05,0.12,0.13
1411,-0.54,-0.42,7.31,0.04,-0.04,0.12
1416,-0.54,-0.42,7.31,0.05,-0.06,0.13
1422,-1.15,-1.00,8.46,0.05,-0.06,0.13
1426,-1.15,-1.00,8.46,0.05,-0.03,0.08
1431,-1.15,-1.00,8.46,0.07,-0.03,0.09
1436,-0.11,-1.34,12.68,0.07,-0.03,0.09
1442,1.42,-1.95,12.22,0.07,-0.03,0.09
1446,1.42,-1.95,12.22,0.14,0.09,0.26
1451,1.42,-1.95,12.22,0.18,0.16,0.30
1457,-0.69,-0.61,11.22,0.18,0.16,0.30
1461,-0.69,-0.61,11.22,0.22,0.21,0.31
1465,-0.69,-0.61,11.22,0.25,0.16,0.33
1471,-0.69,-0.61,11.22,0.26,0.07,0.37
1477,1.65,-0.38,9.12,0.26,0.07,0.37
1480,1.65,-0.38,9.12,0.23,-0.05,0.49
1486,1.65,-0.38,9.12,0.22,-0.03,0.48
1492,1.65,-0.38,9.12,0.20,0.01,0.43
1496,1.65,-0.38,9.12,0.18,0.04,0.41
1501,1.65,-0.38,9.12,0.20,0.06,0.44
1506,-1.11,-0.23,9.20,0.20,0.06,0.44
1512,-0.30,-1.57,9.69,0.20,0.06,0.44
1515,-0.30,-1.57,9.69,0.19,-0.03,0.45
1521,-0.30,-1.57,9.69,0.16,-0.09,0.49
1527,2.22,-2.18,11.04,0.16,-0.09,0.49
1531,2.22,-2.18,11.04,0.23,-0.06,0.62
1536,2.22,-2.18,11.04,0.25,0.03,0.65
1541,0.04,-0.04,11.30,0.25,0.03,0.65
1547,-1.42,-0.38,10.19,0.25,0.03,0.65
1551,-1.42,-0.38,10.19,0.29,0.22,0.63
1556,-1.42,-0.38,10.19,0.29,0.15,0.66
1562,1.23,-2.61,10.88,0.29,0.15,0.66
1565,1.23,-2.61,10.88,0.29,0.00,0.77
1570,1.23,-2.61,10.88,0.27,-0.01,0.81
1575,1.23,-2.61,10.88,0.26,-0.01,0.79
1580,0.46,0.04,9.35,0.26,-0.01,0.79
1587,0.46,0.04,9.35,0.26,0.00,0.76
1592,0.46,0.04,9.35,0.27,0.09,0.73
1595,0.46,0.04,9.35,0.28,0.10,0.70
1601,0.46,0.04,9.35,0.28,0.05,0.69
1605,0.46,0.04,9.35,0.25,-0.01,0.70
1611,0.46,0.04,9.35,0.21,-0.10,0.70
1617,1.84,-1.80,11.76,0.21,-0.10,0.70
1621,1.84,-1.80,11.76,0.13,-0.18,0.75
1626,2.53,-1.46,13.11,0.13,-0.18,0.75
1632,0.54,0.57,12.95,0.13,-0.18,0.75
1636,0.54,0.57,12.95,0.17,0.23,0.79
1641,0.54,0.57,12.95,0.21,0.30,0.76
1647,-0.38,-2.49,9.38,0.21,0.30,0.76
1651,-0.38,-2.49,9.38,0.30,0.25,0.81
1655,-0.38,-2.49,9.38,0.33,0.24,0.88
1661,-2.64,-1.72,8.36,0.33,0.24,0.88
1667,-2.57,-0.08,7.97,0.33,0.24,0.88
1671,-2.57,-0.08,7.97,0.29,0.05,0.89
1676,-2.57,-0.08,7.97,0.24,-0.07,0.86
1682,0.11,1.23,10.07,0.24,-0.07,0.86
1685,0.11,1.23,10.07,0.13,-0.18,0.82
1691,0.11,1.23,10.07,0.10,-0.14,0.79
1696,1.72,-0.19,12.52,0.10,-0.14,0.79
1701,2.03,-0.34,12.64,0.10,-0.14,0.79
1706,2.03,-0.34,12.64,0.10,0.13,0.79
1711,2.03,-0.34,12.64,0.12,0.23,0.82
1717,-0.34,-1.15,14.59,0.12,0.23,0.82
1721,-0.34,-1.15,14.59,0.17,0.35,0.85
1726,-0.34,-1.15,14.59,0.17,0.38,0.84
1732,-0.34,-1.15,14.59,0.16,0.35,0.82
1736,-0.34,-1.15,14.59,0.16,0.29,0.79
1741,-0.34,-1.15,14.59,0.14,0.22,0.79
1746,-0.34,-1.15,14.59,0.12,0.14,0.79
1752,1.53,0.65,9.54,0.12,0.14,0.79
1756,1.53,0.65,9.54,0.09,0.08,0.80
1761,1.53,0.65,9.54,0.08,0.19,0.76
1766,-2.68,4.48,6.09,0.08,0.19,0.76
1772,-3.29,4.02,6.24,0.08,0.19,0.76
1776,-3.29,4.02,6.24,-0.00,0.33,0.44
1781,-3.29,4.02,6.24,-0.04,0.28,0.40
1787,-0.88,1.11,8.66,-0.04,0.28,0.40
1791,-0.88,1.11,8.66,-0.12,0.06,0.36
1796,-0.88,1.11,8.66,-0.17,-0.02,0.36
1802,0.34,2.61,12.38,-0.17,-0.02,0.36
1805,0.34,2.61,12.38,-0.22,0.06,0.32
1811,0.34,2.61,12.38,-0.19,0.17,0.28
1816,0.34,2.61,12.38,-0.14,0.29,0.30
1821,-1.53,1.11,13.03,-0.14,0.29,0.30
1826,-1.53,1.11,13.03,-0.02,0.54,0.39
1831,-1.53,1.11,13.03,0.02,0.58,0.37
1837,-3.60,2.45,10.00,0.02,0.58,0.37
1841,-3.60,2.45,10.00,0.02,0.58,0.42
1845,-3.60,2.45,10.00,-0.00,0.52,0.42
1850,-3.60,2.45,10.00,-0.05,0.37,0.38
1855,1.42,2.22,7.55,-0.05,0.37,0.38
1861,1.42,2.22,7.55,-0.18,-0.00,0.36
1867,1.57,0.77,9.08,-0.18,-0.00,0.36
1872,-0.57,0.38,10.15,-0.18,-0.00,0.36
1876,-0.57,0.38,10.15,-0.25,-0.04,0.32
1881,-0.57,0.38,10.15,-0.21,0.08,0.30
1886,-3.41,-2.76,9.50,-0.21,0.08,0.30
1891,-3.41,-2.87,9.58,-0.21,0.08,0.30
1896,-3.41,-2.87,9.58,-0.06,0.37,0.29
1901,-3.41,-2.87,9.58,-0.05,0.33,0.29
1907,-0.15,-4.60,9.27,-0.05,0.33,0.29
1911,-0.15,-4.60,9.27,-0.00,0.10,0.39
1916,-0.15,-4.60,9.27,0.00,0.02,0.43
1921,-0.15,-4.60,9.27,-0.01,-0.03,0.42
1926,-0.15,-4.60,9.27,-0.04,-0.02,0.38
1931,-0.15,-4.60,9.27,-0.04,0.04,0.38
1936,-0.15,-4.60,9.27,-0.04,0.10,0.39
1941,2.80,-2.22,11.49,-0.04,0.10,0.39
1946,2.80,-2.22,11.49,0.02,0.19,0.50
1951,2.80,-2.22,11.49,0.04,0.21,0.59
1957,2.80,-2.22,11.49,0.07,0.20,0.67
1961,2.80,-2.22,11.49,0.08,0.20,0.72
1966,2.80,-2.22,11.49,0.07,0.19,0.75
1971,2.80,-2.22,11.49,0.08,0.20,0.78
1977,0.57,1.61,7.27,0.08,0.20,0.78
1981,0.57,1.61,7.27,0.11,0.22,0.78
1986,0.57,1.61,7.27,0.10,0.18,0.78
1992,0.57,1.61,7.27,0.09,0.13,0.81
1996,0.57,1.61,7.27,0.05,0.06,0.84
2001,0.57,1.61,7.27,0.02,-0.01,0.86
2006,0.57,1.61,7.27,-0.03,-0.05,0.87
2012,0.92,-0.54,10.77,-0.03,-0.05,0.87
2016,0.92,-0.54,10.77,-0.03,0.02,0.84
2021,0.92,-0.54,10.77,-0.04,0.08,0.77
2026,0.92,-0.54,10.77,-0.01,0.14,0.72
2031,0.92,-0.54,10.77,0.00,0.19,0.71
2036,0.92,-0.54,10.77,0.01,0.21,0.72
2041,0.92,-0.54,10.77,0.01,0.22,0.72
2047,-2.07,-0.38,8.74,0.01,0.22,0.72
2051,-2.07,-0.38,8.74,-0.01,0.21,0.62
2056,-2.07,-0.38,8.74,-0.03,0.15,0.59
2061,-2.07,-0.38,8.74,-0.08,0.07,0.57
2066,-2.07,-0.38,8.74,-0.11,0.00,0.52
2071,-2.07,-0.38,8.74,-0.14,-0.01,0.50
2076,-2.07,-0.38,8.74,-0.12,0.06,0.51
2082,0.11,1.19,10.07,-0.12,0.06,0.51
2086,0.11,1.19,10.07,-0.13,0.24,0.46
2091,0.11,1.19,10.07,-0.14,0.30,0.45
2097,0.11,1.19,10.07,-0.15,0.29,0.45
2101,0.11,1.19,10.07,-0.16,0.28,0.48
2106,0.11,1.19,10.07,-0.18,0.27,0.52
2111,0.11,1.19,10.07,-0.20,0.25,0.52
2116,0.11,1.19,10.07,-0.19,0.21,0.51
2121,0.11,1.19,10.07,-0.16,0.22,0.54
2126,0.11,1.19,10.07,-0.16,0.26,0.52
2132,0.92,1.46,9.58,-0.16,0.26,0.52
2136,0.92,1.46,9.58,-0.15,0.25,0.45
2141,0.92,1.46,9.58,-0.16,0.25,0.46
2147,0.92,1.46,9.58,-0.15,0.27,0.43
2151,0.92,1.46,9.58,-0.17,0.24,0.35
2157,0.92,1.46,9.58,-0.17,0.17,0.28
2161,0.92,1.46,9.58,-0.20,0.12,0.25
2167,-0.23,1.07,8.42,-0.20,0.12,0.25
2171,-0.23,1.07,8.42,-0.29,-0.00,0.12
2176,-0.23,1.07,8.42,-0.31,-0.01,0.07
2181,-0.23,1.07,8.42,-0.33,0.05,0.03
2186,-0.23,1.07,8.42,-0.32,0.10,-0.04
2191,-0.23,1.07,8.42,-0.32,0.14,-0.11
2196,-0.23,1.07,8.42,-0.30,0.18,-0.13
2202,1.46,-1.00,10.49,-0.30,0.18,-0.13
2206,1.46,-1.00,10.49,-0.25,0.20,-0.11
2211,1.46,-1.00,10.49,-0.22,0.19,-0.05
2216,1.46,-1.00,10.49,-0.20,0.25,0.01
2221,1.46,-1.00,10.49,-0.18,0.29,-0.00
2226,1.46,-1.00,10.49,-0.18,0.33,-0.06
2231,1.46,-1.00,10.49,-0.15,0.37,-0.09
2237,-2.68,0.46,7.89,-0.15,0.37,-0.09
2241,-2.68,0.46,7.89,-0.12,0.29,-0.07
2246,-2.68,0.46,7.89,-0.12,0.16,-0.03
2251,-2.68,0.46,7.89,-0.15,0.01,0.01
2256,-2.68,0.46,7.89,-0.17,-0.07,0.05
2261,-2.68,0.46,7.89,-0.19,-0.08,0.04
2266,-2.68,0.46,7.89,-0.18,-0.06,-0.00
2271,-2.03,-0.04,10.46,-0.18,-0.06,-0.00
2276,-2.03,-0.04,10.46,-0.12,0.09,0.04
2281,-2.03,-0.04,10.46,-0.09,0.12,0.11
2286,-2.03,-0.04,10.46,-0.05,0.12,0.19
2290,-2.03,-0.04,10.46,-0.03,0.13,0.28
2295,0.61,-0.80,10.31,-0.03,0.13,0.28
2301,0.61,-0.80,10.31,0.00,0.15,0.32
2306,-2.38,0.34,7.01,0.00,0.15,0.32
2311,-2.38,0.34,7.01,0.05,0.23,0.35
2316,-2.38,0.34,7.01,0.02,0.13,0.32
2321,-2.38,0.34,7.01,0.02,0.02,0.35
2326,-2.38,0.34,7.01,0.03,-0.09,0.42
2331,-2.38,0.34,7.01,0.03,-0.19,0.53
2336,-2.38,0.34,7.01,0.02,-0.18,0.62
2341,-2.38,0.34,7.01,0.04,-0.10,0.66
2346,-2.38,0.34,7.01,0.04,0.01,0.61
2351,-2.38,0.34,7.01,0.04,0.13,0.52
2357,-2.38,0.34,7.01,0.09,0.19,0.48
2361,-2.38,0.34,7.01,0.13,0.19,0.53
2366,-2.38,0.34,7.01,0.16,0.14,0.60
2371,-2.38,0.34,7.01,0.14,0.04,0.63
2376,-2.38,0.34,7.01,0.11,-0.06,0.62
2381,-2.38,0.34,7.01,0.07,-0.10,0.62
2386,-2.38,0.34,7.01,0.02,-0.09,0.62
2392,1.76,-0.73,13.10,0.02,-0.09,0.62
2396,1.76,-0.73,13.10,0.00,0.02,0.60
2401,1.76,-0.73,13.10,0.03,0.09,0.61
2405,1.76,-0.73,13.10,0.07,0.15,0.62
2412,0.50,-0.38,8.96,0.07,0.15,0.62
2416,0.50,-0.38,8.96,0.12,0.21,0.67
2421,0.50,-0.38,8.96,0.12,0.17,0.68
2427,-1.46,-1.76,10.19,0.12,0.17,0.68
2431,-1.46,-1.76,10.19,0.10,0.14,0.71
2436,-1.46,-1.76,10.19,0.08,0.11,0.68
2441,-1.46,-1.76,10.19,0.09,0.09,0.65
2446,-1.46,-1.76,10.19,0.07,0.06,0.63
2451,-1.46,-1.76,10.19,0.05,-0.01,0.60
2456,-1.46,-1.76,10.19,0.03,-0.03,0.56
2462,1.30,0.23,8.35,0.03,-0.03,0.56
2466,1.30,0.23,8.35,-0.04,-0.07,0.48
2471,1.30,0.23,8.35,-0.02,-0.07,0.50
2476,1.30,0.23,8.35,-0.04,-0.02,0.53
2481,1.30,0.23,8.35,-0.02,0.05,0.55
2486,1.30,0.23,8.35,0.00,0.15,0.55
2491,1.30,0.23,8.35,0.02,0.24,0.53
2497,-1.15,0.42,8.50,0.02,0.24,0.53
2501,-1.15,0.42,8.50,0.03,0.27,0.47
2506,-1.15,0.42,8.50,0.04,0.23,0.48
2511,-1.15,0.42,8.50,0.01,0.13,0.49
2516,-1.15,0.42,8.50,-0.00,0.06,0.49
2521,-1.15,0.42,8.50,-0.04,0.03,0.48
2526,-1.15,0.42,8.50,-0.05,0.02,0.44
2532,-0.96,0.23,12.48,-0.05,0.02,0.44
2536,-0.96,0.23,12.48,-0.07,0.12,0.41
2541,-0.96,0.23,12.48,-0.07,0.20,0.34
2545,-0.96,0.23,12.48,-0.05,0.24,0.27
2552,-1.57,-0.08,7.51,-0.05,0.24,0.27
2556,-1.57,-0.08,7.51,-0.03,0.22,0.23
2560,-1.57,-0.08,7.51,-0.02,0.17,0.22
2566,-2.38,1.46,6.16,-0.02,0.17,0.22
2571,-2.38,1.46,6.16,-0.06,0.08,0.14
2576,-2.38,1.46,6.16,-0.10,0.04,0.07
2582,-2.38,1.46,6.16,-0.13,0.03,-0.00
2586,-2.38,1.46,6.16,-0.15,-0.04,-0.06
2591,-2.38,1.46,6.16,-0.16,-0.07,-0.03
2596,-2.38,1.46,6.16,-0.16,-0.04,0.02
2601,1.27,0.50,12.07,-0.16,-0.04,0.02
2606,1.27,0.50,12.07,-0.13,0.06,-0.00
2611,1.27,0.50,12.07,-0.10,0.16,0.03
2617,1.27,0.50,12.07,-0.06,0.28,0.05
2621,1.27,0.50,12.07,-0.04,0.37,0.05
2626,1.27,0.50,12.07,0.01,0.38,0.03
2631,1.27,0.50,12.07,0.02,0.31,0.04
2637,-1.49,1.15,7.27,0.02,0.31,0.04
2641,-1.49,1.15,7.27,-0.04,0.07,0.12
2646,-1.49,1.15,7.27,-0.07,-0.09,0.12
2651,-0.54,1.49,7.43,-0.07,-0.09,0.12
2656,-0.54,1.49,7.43,-0.12,-0.18,0.10
2661,-0.54,1.49,7.43,-0.14,-0.15,0.05
2665,-0.54,1.49,7.43,-0.14,-0.11,0.01
2671,1.99,-0.50,11.98,-0.14,-0.11,0.01
2676,1.99,-0.50,11.98,-0.14,-0.13,0.08
2680,1.99,-0.50,11.98,-0.13,-0.12,0.18
2687,3.14,-1.65,12.41,-0.13,-0.12,0.18
2691,3.14,-1.65,12.41,0.00,0.03,0.36
2696,3.14,-1.65,12.41,0.07,0.15,0.42
2700,3.14,-1.65,12.41,0.13,0.28,0.44
2706,-1.04,-1.11,7.39,0.13,0.28,0.44
2711,-1.04,-1.11,7.39,0.17,0.30,0.41
2715,-1.04,-1.11,7.39,0.16,0.18,0.42
2721,-0.19,-3.64,10.04,0.16,0.18,0.42
2726,-0.19,-3.64,10.04,0.13,-0.11,0.56
2731,-0.19,-3.64,10.04,0.10,-0.19,0.60
2736,-0.19,-3.64,10.04,0.09,-0.19,0.60
2741,0.96,-1.95,9.84,0.09,-0.19,0.60
2746,0.96,-1.95,9.84,0.10,-0.16,0.54
2750,0.96,-1.95,9.84,0.13,-0.10,0.57
2756,0.34,-2.34,7.28,0.13,-0.10,0.57
2761,0.34,-2.34,7.28,0.22,-0.03,0.65
2765,0.34,-2.34,7.28,0.24,-0.03,0.70
2770,0.34,-2.34,7.28,0.26,-0.01,0.77
2775,1.68,-2.41,11.30,0.26,-0.01,0.77
2781,1.68,-2.41,11.30,0.25,-0.04,0.84
2787,1.68,-2.41,11.30,0.22,-0.06,0.89
2791,1.30,-1.80,10.19,0.22,-0.06,0.89
2796,1.30,-1.80,10.19,0.22,-0.04,0.94
2801,1.30,-1.80,10.19,0.25,0.01,0.98
2806,1.30,-1.80,10.19,0.27,0.05,1.01
2811,-1.42,-1.07,7.78,0.27,0.05,1.01
2816,-1.42,-1.07,7.78,0.27,0.09,0.99
2820,-1.42,-1.07,7.78,0.25,0.10,0.96
2826,-2.64,-3.07,9.77,0.25,0.10,0.96
2831,-2.64,-3.07,9.77,0.25,0.04,0.94
2836,-2.64,-3.07,9.77,0.21,-0.04,0.95
2841,-2.64,-3.07,9.77,0.18,-0.12,1.00
2846,-2.64,-3.07,9.77,0.14,-0.17,1.01
2851,-2.64,-3.07,9.77,0.09,-0.17,0.97
2856,-2.64,-3.07,9.77,0.10,-0.11,0.95
2861,3.29,-1.34,13.91,0.10,-0.11,0.95
2866,3.29,-1.34,13.91,0.11,0.28,1.00
2871,3.29,-1.34,13.91,0.13,0.41,1.03
2876,3.29,-1.34,13.91,0.20,0.44,1.05
2881,3.29,-1.34,13.91,0.21,0.42,1.09
2886,3.29,-1.34,13.91,0.20,0.42,1.12
2891,3.29,-1.34,13.91,0.20,0.38,1.10
2896,1.42,-0.61,11.99,0.20,0.38,1.10
2901,1.42,-0.61,11.99,0.07,0.11,0.99
2905,1.42,-0.61,11.99,0.04,0.01,1.02
2911,1.42,-0.61,11.99,0.01,-0.02,1.06
2916,1.42,-0.61,11.99,-0.03,-0.02,1.04
2921,1.42,-0.61,11.99,-0.02,0.08,1.01
2926,1.42,-0.61,11.99,0.00,0.25,0.95
2931,-1.30,1.53,8.78,0.00,0.25,0.95
2936,-1.30,1.53,8.78,0.02,0.39,0.76
2941,-1.30,1.53,8.78,0.01,0.38,0.78
2946,0.96,0.11,11.38,0.01,0.38,0.78
2951,0.96,0.11,11.38,-0.06,0.30,0.82
2956,0.96,0.11,11.38,-0.08,0.26,0.79
2961,0.96,0.11,11.38,-0.09,0.30,0.76
2966,-3.45,2.80,9.16,-0.09,0.30,0.76
2971,-3.45,2.80,9.16,-0.15,0.41,0.56
2975,-3.45,2.80,9.16,-0.16,0.41,0.46
2981,-2.41,-0.69,10.53,-0.16,0.41,0.46
2985,-2.41,-0.69,10.53,-0.16,0.39,0.41
2990,-2.41,-0.69,10.53,-0.14,0.32,0.46
2995,-2.41,-0.69,10.53,-0.13,0.29,0.52
3000,1.27,0.65,10.00,-0.13,0.29,0.52
3007,1.27,0.65,10.00,-0.17,0.28,0.51
3011,1.27,0.65,10.00,-0.17,0.37,0.38
3016,1.27,0.65,10.00,-0.16,0.51,0.35
3021,1.27,0.65,10.00,-0.15,0.61,0.28
3026,1.27,0.65,10.00,-0.15,0.61,0.22
3031,1.27,0.65,10.00,-0.19,0.52,0.21
3036,-3.75,0.04,9.77,-0.19,0.52,0.21
3041,-3.75,0.04,9.77,-0.27,0.29,0.19
3046,-3.75,0.04,9.77,-0.30,0.13,0.13
3051,-0.34,0.88,8.54,-0.30,0.13,0.13
3056,-0.34,0.88,8.54,-0.29,0.02,0.16
3061,-0.34,0.88,8.54,-0.29,0.05,0.17
3066,-0.34,0.88,8.54,-0.26,0.11,0.17
3071,-1.38,2.68,10.15,-0.26,0.11,0.17
3076,-1.38,2.68,10.15,-0.22,0.38,0.17
3080,-1.38,2.68,10.15,-0.20,0.41,0.18
3086,-0.11,0.15,11.72,-0.20,0.41,0.18
3091,-0.11,0.15,11.72,-0.20,0.38,0.28
3096,-0.11,0.15,11.72,-0.23,0.34,0.28
3101,-0.11,0.15,11.72,-0.24,0.28,0.23
3106,-0.04,0.61,9.39,-0.24,0.28,0.23
3111,-0.04,0.61,9.39,-0.27,0.19,0.16
3115,-0.04,0.61,9.39,-0.28,0.17,0.16
3121,1.88,0.23,9.58,-0.28,0.17,0.16
3126,1.88,0.23,9.58,-0.24,0.13,0.18
3131,1.88,0.23,9.58,-0.22,0.14,0.22
3136,1.88,0.23,9.58,-0.20,0.17,0.27
3141,1.88,0.23,9.58,-0.21,0.18,0.24
3146,1.88,0.23,9.58,-0.20,0.14,0.20
3151,1.88,0.23,9.58,-0.22,0.10,0.22
3156,2.87,0.73,12.45,-0.22,0.10,0.22
3161,2.87,0.73,12.45,-0.28,0.02,0.28
3165,2.87,0.73,12.45,-0.31,0.04,0.30
3171,2.87,0.73,12.45,-0.28,0.09,0.31
3176,2.87,0.73,12.45,-0.24,0.16,0.33
3181,2.87,0.73,12.45,-0.19,0.24,0.38
3186,2.87,0.73,12.45,-0.16,0.29,0.40
3191,-0.15,-0.69,7.05,-0.16,0.29,0.40
3196,-0.15,-0.69,7.05,-0.15,0.23,0.36
3201,-0.15,-0.69,7.05,-0.16,0.17,0.36
3206,-3.37,-0.54,7.05,-0.16,0.17,0.36
3211,-3.37,-0.54,7.05,-0.15,0.11,0.32
3216,-3.37,-0.54,7.05,-0.18,0.07,0.28
3221,-3.37,-0.54,7.05,-0.22,-0.01,0.26
3226,0.96,-0.11,10.53,-0.22,-0.01,0.26
3231,0.96,-0.11,10.53,-0.31,-0.10,0.28
3235,0.96,-0.11,10.53,-0.30,-0.06,0.25
3241,-0.38,-0.42,9.31,-0.30,-0.06,0.25
3246,-0.38,-0.42,9.31,-0.25,0.12,0.21
3251,-0.38,-0.42,9.31,-0.21,0.19,0.23
3256,-0.38,-0.42,9.31,-0.19,0.19,0.27
3261,1.65,-1.11,10.95,-0.19,0.19,0.27
3266,1.65,-1.11,10.95,-0.15,0.16,0.38
3271,1.65,-1.11,10.95,-0.15,0.17,0.42
3276,0.69,0.30,10.30,-0.15,0.17,0.42
3280,0.69,0.30,10.30,-0.16,0.19,0.40
3286,0.69,0.30,10.30,-0.17,0.18,0.41
3291,0.69,0.30,10.30,-0.18,0.17,0.40
3296,1.76,-1.88,11.19,-0.18,0.17,0.40
3301,1.76,-1.88,11.19,-0.20,0.01,0.41
3306,1.76,-1.88,11.19,-0.19,0.02,0.46
3311,1.76,-1.88,11.19,-0.15,0.07,0.48
3316,1.76,-1.88,11.19,-0.15,0.15,0.44
3321,1.76,-1.88,11.19,-0.16,0.19,0.37
3326,1.76,-1.88,11.19,-0.18,0.16,0.33
3331,0.19,0.19,9.35,-0.18,0.16,0.33
3336,0.19,0.19,9.35,-0.19,0.08,0.38
3341,0.19,0.19,9.35,-0.23,0.07,0.38
3347,-1.61,2.30,7.74,-0.23,0.07,0.38
3351,-1.61,2.30,7.74,-0.23,0.10,0.28
3355,-1.61,2.30,7.74,-0.23,0.17,0.24
3361,-1.61,2.30,7.74,-0.26,0.16,0.13
3366,-1.76,-0.88,7.93,-0.26,0.16,0.13
3371,-1.76,-0.88,7.93,-0.28,0.05,0.06
3376,-1.76,-0.88,7.93,-0.29,-0.02,0.04
3381,0.61,-0.15,9.42,-0.29,-0.02,0.04
3386,0.61,-0.15,9.42,-0.27,-0.03,0.06
3390,0.61,-0.15,9.42,-0.29,0.08,0.03
3396,-1.00,1.61,9.69,-0.29,0.08,0.03
3401,-1.00,1.61,9.69,-0.29,0.20,-0.10
3406,-1.00,1.61,9.69,-0.26,0.22,-0.08
3411,-1.00,1.61,9.69,-0.25,0.19,-0.03
3416,-0.11,-0.04,9.39,-0.25,0.19,-0.03
3421,-0.11,-0.04,9.39,-0.26,0.12,0.03
3426,-0.11,-0.04,9.39,-0.26,0.13,0.02
3431,-0.11,-0.04,9.39,-0.23,0.16,0.00
3436,-0.11,-0.04,9.39,-0.24,0.20,-0.00
3441,-0.11,-0.04,9.39,-0.24,0.20,-0.03
3446,-0.11,-0.04,9.39,-0.25,0.14,-0.05
3451,-0.11,-0.04,9.39,-0.25,0.04,-0.04
3456,-0.11,-0.04,9.39,-0.29,-0.04,-0.02
3460,-0.11,-0.04,9.39,-0.30,-0.08,0.05
3466,0.42,1.34,9.08,-0.30,-0.08,0.05
3471,0.42,1.34,9.08,-0.31,-0.09,0.05
3476,0.42,1.34,9.08,-0.30,-0.06,0.07
3481,0.42,1.34,9.08,-0.30,0.01,0.11
3486,0.96,0.11,10.80,-0.30,0.01,0.11
3491,0.96,0.11,10.80,-0.27,0.06,0.12
3495,0.96,0.11,10.80,-0.24,0.09,0.18
3501,0.61,-1.27,10.00,-0.24,0.09,0.18
3505,0.61,-1.27,10.00,-0.19,0.05,0.28
3510,0.61,-1.27,10.00,-0.19,0.02,0.31
3515,0.61,-1.27,10.00,-0.19,-0.00,0.32
3520,0.00,-0.42,8.70,-0.19,-0.00,0.32
3527,0.00,-0.42,8.70,-0.18,-0.04,0.30
3532,0.00,-0.42,8.70,-0.19,-0.06,0.31
3536,0.00,-0.42,8.70,-0.19,-0.08,0.31
3541,0.00,-0.42,8.70,-0.19,-0.10,0.31
3545,0.00,-0.42,8.70,-0.21,-0.11,0.31
3551,0.00,-0.42,8.70,-0.25,-0.12,0.30
3556,0.00,-0.42,8.70,-0.28,-0.11,0.29
3561,0.00,-0.42,8.70,-0.26,-0.07,0.32
3566,0.00,-0.42,8.70,-0.25,-0.03,0.38
3571,0.00,-0.42,8.70,-0.21,0.04,0.44
3576,0.00,-0.42,8.70,-0.19,0.14,0.50
3580,0.00,-0.42,8.70,-0.16,0.22,0.50
3586,0.00,-0.42,8.70,-0.14,0.25,0.51
3591,1.65,-1.88,9.31,-0.14,0.25,0.51
3596,1.65,-1.88,9.31,-0.12,0.19,0.57
3601,1.65,-1.88,9.31,-0.10,0.14,0.62
3606,-2.03,-1.00,9.20,-0.10,0.14,0.62
3611,-2.03,-1.00,9.20,-0.08,0.08,0.61
3615,-2.03,-1.00,9.20,-0.11,0.04,0.58
3621,-0.65,0.69,8.70,-0.11,0.04,0.58
3626,-0.65,0.69,8.70,-0.22,-0.10,0.49
3631,-0.65,0.69,8.70,-0.28,-0.19,0.46
3636,-0.65,0.69,8.70,-0.30,-0.22,0.46
3641,3.18,-1.27,10.84,-0.30,-0.22,0.46
3646,3.18,-1.27,10.84,-0.29,-0.16,0.45
3651,3.18,-1.27,10.84,-0.26,0.08,0.49
3656,-0.11,0.34,10.88,-0.26,0.08,0.49
3661,-0.11,0.34,10.88,-0.25,0.42,0.45
3666,-0.11,0.34,10.88,-0.24,0.41,0.45
3671,-0.11,0.34,10.88,-0.23,0.40,0.42
3676,-3.64,1.38,8.81,-0.23,0.40,0.42
3681,-3.64,1.38,8.81,-0.25,0.29,0.35
3686,-3.64,1.38,8.81,-0.27,0.18,0.35
3691,-3.64,1.38,8.81,-0.31,0.07,0.34
3696,-3.64,1.38,8.81,-0.36,-0.03,0.30
3700,-3.64,1.38,8.81,-0.40,-0.07,0.25
3706,-3.64,1.38,8.81,-0.44,-0.03,0.21
3711,-3.64,1.38,8.81,-0.42,0.08,0.18
3716,-3.64,1.38,8.81,-0.42,0.24,0.13
3720,-3.64,1.38,8.81,-0.41,0.36,0.08
3726,-2.53,1.65,9.08,-0.41,0.36,0.08
3731,-2.53,1.65,9.08,-0.40,0.39,0.01
3736,-2.53,1.65,9.08,-0.41,0.34,-0.00
3741,-2.53,1.65,9.08,-0.42,0.24,-0.01
3746,-2.53,1.65,9.08,-0.46,0.12,-0.02
3751,-2.53,1.65,9.08,-0.49,0.03,-0.04
3755,-2.53,1.65,9.08,-0.50,0.00,-0.09
3761,0.65,1.34,8.16,-0.50,0.00,-0.09
3766,0.65,1.34,8.16,-0.52,0.09,-0.17
3770,0.65,1.34,8.16,-0.49,0.18,-0.15
3776,0.65,1.34,8.16,-0.49,0.21,-0.12
3781,0.65,1.34,8.16,-0.49,0.18,-0.15
3786,0.65,1.34,8.16,-0.49,0.18,-0.15
3791,0.65,1.34,8.16,-0.49,0.20,-0.14
3796,0.30,0.38,10.96,-0.49,0.20,-0.14
3801,0.30,0.38,10.96,-0.46,0.24,-0.10
3806,0.30,0.38,10.96,-0.44,0.24,-0.07
3811,0.30,0.38,10.96,-0.45,0.20,-0.05
3816,0.30,0.38,10.96,-0.45,0.12,-0.05
3821,0.30,0.38,10.96,-0.48,0.06,-0.07
3826,0.30,0.38,10.96,-0.47,0.07,-0.09
3831,0.30,0.38,10.96,-0.46,0.12,-0.11
3836,0.30,0.38,10.96,-0.44,0.13,-0.14
3841,0.30,0.38,10.96,-0.45,0.11,-0.18
3846,0.30,0.38,10.96,-0.46,0.06,-0.21
3851,-0.80,-0.69,8.66,-0.46,0.06,-0.21
3856,-0.80,-0.69,8.66,-0.49,-0.06,-0.23
3861,-0.80,-0.69,8.66,-0.51,-0.08,-0.25
3866,0.04,-1.53,9.73,-0.51,-0.08,-0.25
3870,0.04,-1.53,9.73,-0.49,-0.03,-0.26
3876,0.04,-1.53,9.73,-0.47,0.03,-0.26
3881,0.34,-1.00,10.69,-0.47,0.03,-0.26
3886,0.34,-1.00,10.69,-0.42,0.15,-0.24
3890,0.34,-1.00,10.69,-0.39,0.20,-0.20
3896,0.34,-1.00,10.69,-0.37,0.23,-0.17
3900,-1.76,-1.07,9.20,-0.37,0.23,-0.17
3906,-1.76,-1.07,9.20,-0.35,0.19,-0.17
3911,-1.76,-1.07,9.20,-0.35,0.09,-0.15
3916,-1.76,-1.07,9.20,-0.35,0.04,-0.14
3920,-1.00,-0.11,7.63,-0.35,0.04,-0.14
3926,-1.00,-0.11,7.63,-0.36,-0.04,-0.15
3931,-1.00,-0.11,7.63,-0.36,-0.03,-0.13
3936,-1.00,-0.11,7.63,-0.35,-0.04,-0.14
3940,-1.00,-0.11,7.63,-0.35,-0.04,-0.17
3946,-1.00,-0.11,7.63,-0.36,-0.05,-0.19
3951,-1.00,-0.11,7.63,-0.38,-0.07,-0.19
3955,2.07,-0.73,11.72,-0.38,-0.07,-0.19
3961,2.07,-0.73,11.72,-0.41,-0.10,-0.16
3966,2.07,-0.73,11.72,-0.38,-0.06,-0.15
3971,2.07,-0.73,11.72,-0.34,0.00,-0.15
3976,2.07,-0.73,11.72,-0.31,0.11,-0.16
3981,2.07,-0.73,11.72,-0.31,0.19,-0.16
3986,-1.23,-0.73,7.39,-0.31,0.19,-0.16
3991,-1.23,-0.73,7.39,-0.29,0.16,-0.16
3996,-1.23,-0.73,7.39,-0.29,0.06,-0.18
4001,-1.23,-0.73,7.39,-0.29,-0.02,-0.20
4006,-1.23,-0.73,7.39,-0.28,-0.07,-0.20
4011,-1.23,-0.73,7.39,-0.28,-0.07,-0.19
4016,-1.23,-0.73,7.39,-0.27,-0.04,-0.22
4021,0.57,1.11,9.89,-0.27,-0.04,-0.22
4025,0.34,0.04,9.69,-0.27,-0.04,-0.22
4031,0.34,0.04,9.69,-0.33,-0.07,-0.26
4036,0.34,0.04,9.69,-0.32,-0.07,-0.26
4041,0.34,0.04,9.69,-0.32,-0.07,-0.26
4045,1.53,-0.84,9.31,-0.32,-0.07,-0.26
4051,1.53,-0.84,9.31,-0.28,-0.01,-0.22
4056,1.23,-0.04,10.07,-0.28,-0.01,-0.22
4061,-0.92,1.42,9.85,-0.28,-0.01,-0.22
4065,-1.11,1.38,10.50,-0.28,-0.01,-0.22
4071,-1.11,1.38,10.50,-0.27,0.14,-0.27
4076,-1.11,1.38,10.50,-0.29,0.09,-0.28
4081,2.80,-1.42,13.64,-0.29,0.09,-0.28
4086,2.80,-1.42,13.64,-0.31,-0.02,-0.26
4091,2.80,-1.42,13.64,-0.32,-0.03,-0.25
4095,2.80,-1.42,13.64,-0.30,0.01,-0.26
4100,2.80,-1.42,13.64,-0.29,0.11,-0.29
4105,2.80,-1.42,13.64,-0.28,0.22,-0.33
4111,-1.91,0.27,7.39,-0.28,0.22,-0.33
4115,-1.91,0.27,7.39,-0.21,0.30,-0.36
4121,-1.91,0.27,7.39,-0.21,0.26,-0.35
4126,-1.91,0.27,7.39,-0.22,0.17,-0.36
4131,-1.91,0.27,7.39,-0.26,0.07,-0.40
4135,-1.91,0.27,7.39,-0.29,-0.03,-0.46
4141,-1.91,0.27,7.39,-0.31,-0.09,-0.51
4146,-1.91,0.27,7.39,-0.33,-0.11,-0.51
4150,-0.65,0.57,9.04,-0.33,-0.11,-0.51
4156,-0.65,0.57,9.04,-0.34,-0.06,-0.51
4161,-0.65,0.57,9.04,-0.33,-0.03,-0.52
4165,0.61,0.04,11.15,-0.33,-0.03,-0.52
4171,1.11,-0.34,10.57,-0.33,-0.03,-0.52
4176,1.11,-0.34,10.57,-0.26,0.03,-0.46
4180,-0.42,0.88,10.92,-0.26,0.03,-0.46
4186,-0.42,0.88,10.92,-0.20,0.18,-0.38
4191,-0.42,0.88,10.92,-0.17,0.22,-0.38
4195,-0.42,0.88,10.92,-0.18,0.22,-0.38
4201,-0.42,0.88,10.92,-0.18,0.18,-0.39
4205,-0.42,0.88,10.92,-0.19,0.11,-0.39
4212,-0.42,0.88,10.92,-0.21,0.02,-0.38
4215,1.11,-0.11,9.08,-0.21,0.02,-0.38
4220,0.46,-0.11,9.69,-0.21,0.02,-0.38
4226,0.46,-0.11,9.69,-0.25,-0.12,-0.39
4231,0.46,-0.11,9.69,-0.25,-0.06,-0.42
4236,0.46,-0.11,9.69,-0.24,0.04,-0.43
4240,-2.07,-0.54,9.77,-0.24,0.04,-0.43
4246,-2.07,-0.54,9.77,-0.21,0.18,-0.44
4251,-2.07,-0.54,9.77,-0.19,0.17,-0.43
4256,-2.07,-0.54,9.77,-0.17,0.10,-0.41
4261,-0.84,-0.77,8.88,-0.17,0.10,-0.41
4266,0.92,-0.65,8.28,-0.17,0.10,-0.41
4270,0.23,0.11,8.88,-0.17,0.10,-0.41
4276,0.23,0.11,8.88,-0.13,-0.05,-0.34
4282,-1.42,-0.15,11.53,-0.13,-0.05,-0.34
4286,-3.18,-0.34,11.30,-0.13,-0.05,-0.34
4290,-2.26,0.42,10.46,-0.13,-0.05,-0.34
4296,-2.26,0.42,10.46,-0.11,0.13,-0.29
4301,-2.26,0.42,10.46,-0.12,0.09,-0.30
4305,-0.42,-1.07,9.50,-0.12,0.09,-0.30
4310,0.61,-0.84,8.39,-0.12,0.09,-0.30
4316,0.61,-0.84,8.39,-0.10,-0.14,-0.22
4320,0.88,0.00,8.46,-0.10,-0.14,-0.22
4325,0.30,-0.27,7.20,-0.10,-0.14,-0.22
4330,0.30,-0.27,7.20,-0.12,-0.10,-0.23
4335,0.30,-0.27,7.20,-0.10,-0.05,-0.21
4340,0.30,-0.27,7.20,-0.09,-0.03,-0.20
4346,0.30,-0.27,7.20,-0.09,0.01,-0.21
4352,-1.15,-2.22,12.07,-0.09,0.01,-0.21
4356,-0.46,-1.15,12.34,-0.09,0.01,-0.21
4360,0.30,-1.38,12.07,-0.09,0.01,-0.21
4366,0.30,-1.38,12.07,-0.07,-0.04,-0.17
4371,0.65,-1.07,9.88,-0.07,-0.04,-0.17
4376,0.65,-1.07,9.88,-0.07,0.01,-0.13
4381,0.00,-0.54,7.32,-0.07,0.01,-0.13
4386,-0.61,-0.15,7.77,-0.07,0.01,-0.13
4390,-0.34,-1.30,8.36,-0.07,0.01,-0.13
4396,-0.34,-1.30,8.36,-0.04,0.09,-0.14
4401,-0.34,-1.30,8.36,-0.04,0.06,-0.14
4406,-2.68,-1.61,9.27,-0.04,0.06,-0.14
4410,-1.91,-0.92,9.27,-0.04,0.06,-0.14
4416,-1.91,-0.92,9.27,-0.01,0.04,-0.15
4421,-1.91,-0.92,9.27,-0.02,-0.02,-0.14
4426,0.84,-0.57,9.34,-0.02,-0.02,-0.14
4430,-0.23,-0.46,9.58,-0.02,-0.02,-0.14
4436,-0.23,-0.46,9.58,-0.05,-0.12,-0.14
4440,-0.65,-0.96,10.30,-0.05,-0.12,-0.14
4445,-0.38,-1.04,9.12,-0.05,-0.12,-0.14
4451,-0.38,-1.04,9.12,-0.03,0.12,-0.16
4456,-0.38,-1.04,9.12,-0.02,0.10,-0.12
4461,1.15,-0.34,10.15,-0.02,0.10,-0.12
4465,0.69,-0.46,10.11,-0.02,0.10,-0.12
4471,0.69,-0.46,10.11,-0.04,-0.05,-0.14
4476,-0.27,-0.46,10.77,-0.04,-0.05,-0.14
4480,-1.19,0.08,10.84,-0.04,-0.05,-0.14
4486,-1.19,0.08,10.84,-0.04,0.17,-0.14
4491,-1.19,0.08,10.84,-0.04,0.20,-0.14
4496,-1.19,0.08,10.84,-0.05,0.15,-0.14
4501,2.07,-1.04,10.30,-0.05,0.15,-0.14
4506,1.95,-0.38,9.50,-0.05,0.15,-0.14
4510,1.30,0.46,8.27,-0.05,0.15,-0.14
4515,1.30,0.46,8.27,-0.04,-0.05,-0.08
4521,1.30,0.46,8.27,-0.03,0.02,-0.08
4526,1.30,0.46,8.27,-0.04,0.10,-0.08
4531,-0.73,-0.65,9.12,-0.04,0.10,-0.08
4535,-1.38,-1.34,9.30,-0.04,0.10,-0.08
4541,-1.38,-1.34,9.30,-0.04,0.09,-0.07
4546,-1.57,-0.96,8.54,-0.04,0.09,-0.07
4550,-1.19,-0.69,8.39,-0.04,0.09,-0.07
4556,0.42,-0.88,7.78,-0.04,0.09,-0.07
4560,1.95,-1.53,8.01,-0.04,0.09,-0.07
4565,2.91,-2.07,8.77,-0.04,0.09,-0.07
4572,2.91,-2.07,8.77,-0.08,-0.16,-0.07
4576,2.91,-2.07,8.77,-0.06,-0.18,-0.06
4581,-0.42,-1.00,10.50,-0.06,-0.18,-0.06
4585,-0.65,-1.84,12.03,-0.06,-0.18,-0.06
4591,-0.65,-1.84,12.03,-0.01,0.15,-0.04
4596,-0.65,-1.84,12.03,-0.01,0.23,-0.06
4600,-1.27,-0.15,9.77,-0.01,0.23,-0.06
4605,-1.23,-0.92,8.01,-0.01,0.23,-0.06
4611,0.50,-0.30,8.23,-0.01,0.23,-0.06
4615,1.95,-0.80,8.62,-0.01,0.23,-0.06
4620,0.30,-0.54,9.04,-0.01,0.23,-0.06
4626,0.30,-0.54,9.04,-0.08,-0.13,-0.13
4631,0.30,-0.54,9.04,-0.08,-0.06,-0.18
4635,-3.14,-0.73,9.85,-0.08,-0.06,-0.18
4640,-2.72,-1.11,10.30,-0.08,-0.06,-0.18
4646,-2.72,-1.11,10.30,-0.07,0.17,-0.22
4651,-0.65,-1.07,9.73,-0.07,0.17,-0.22
4655,-0.92,-0.77,9.77,-0.07,0.17,-0.22
4661,-0.88,-0.30,9.96,-0.07,0.17,-0.22
4665,-1.19,-0.73,8.85,-0.07,0.17,-0.22
4670,-1.76,-0.88,9.42,-0.07,0.17,-0.22
4676,-1.76,-0.88,9.42,-0.05,0.08,-0.23
4681,-1.76,-0.88,9.42,-0.03,0.14,-0.23
4685,-1.95,-0.77,9.35,-0.03,0.14,-0.23
4690,-2.30,-1.49,10.04,-0.03,0.14,-0.23
4696,-2.30,-1.49,10.04,-0.03,0.01,-0.22
4700,-0.50,-1.99,10.19,-0.03,0.01,-0.22
4705,-1.38,-0.73,9.80,-0.03,0.01,-0.22
4711,-1.38,-0.73,9.80,-0.04,-0.06,-0.25
4716,-1.38,-0.73,9.80,-0.03,0.00,-0.27
4720,-1.88,-1.11,9.61,-0.03,0.00,-0.27
4725,-2.30,-0.96,9.39,-0.03,0.00,-0.27
4731,-2.30,-0.96,9.39,0.00,0.09,-0.27
4736,-1.15,-1.61,7.01,0.00,0.09,-0.27
4740,-1.15,-1.61,7.01,0.02,-0.04,-0.23
4745,-0.96,-1.34,8.54,0.02,-0.04,-0.23
4751,-0.42,-0.88,9.96,0.02,-0.04,-0.23
4756,1.27,-1.19,11.57,0.02,-0.04,-0.23
4760,1.46,-1.84,12.45,0.02,-0.04,-0.23
4766,1.46,-1.84,12.45,0.03,-0.10,-0.20
4770,0.15,-1.00,11.45,0.03,-0.10,-0.20
4775,2.26,-1.07,11.34,0.03,-0.10,-0.20
4781,-2.14,-0.19,7.01,0.03,-0.10,-0.20
4786,-1.61,-1.11,7.89,0.03,-0.10,-0.20
4790,0.54,-0.57,8.96,0.03,-0.10,-0.20
4795,-0.30,-2.07,7.55,0.03,-0.10,-0.20
4801,-0.30,-2.07,7.55,0.06,0.04,-0.25
4805,-0.65,-1.61,9.38,0.06,0.04,-0.25
4811,-0.46,-0.69,10.07,0.06,0.04,-0.25
4816,-0.88,-0.27,9.54,0.06,0.04,-0.25
4820,0.88,0.00,9.96,0.06,0.04,-0.25
4826,1.88,-0.46,10.53,0.06,0.04,-0.25
4830,1.34,-0.11,8.85,0.06,0.04,-0.25
4836,1.34,-0.11,8.85,0.06,-0.06,-0.27
4840,1.15,0.23,9.69,0.06,-0.06,-0.27
4845,-0.30,-0.50,10.15,0.06,-0.06,-0.27
4851,0.42,-0.73,9.73,0.06,-0.06,-0.27
4855,-1.00,-0.04,9.69,0.06,-0.06,-0.27
4860,-0.19,0.46,10.73,0.06,-0.06,-0.27
4865,-1.42,0.96,10.11,0.06,-0.06,-0.27
4871,-1.30,0.84,9.27,0.06,-0.06,-0.27
4875,1.27,-0.04,10.46,0.06,-0.06,-0.27
4880,0.77,-0.38,9.88,0.06,-0.06,-0.27
4886,1.11,-0.19,9.85,0.06,-0.06,-0.27
4891,1.11,-0.19,9.85,0.02,-0.10,-0.24
4895,1.34,-0.30,10.80,0.02,-0.10,-0.24
4901,1.04,-0.50,10.95,0.02,-0.10,-0.24
4906,1.04,-0.50,10.95,0.03,0.02,-0.24
4910,-1.46,0.30,9.20,0.03,0.02,-0.24
4915,-1.38,0.96,8.31,0.03,0.02,-0.24
4921,-1.57,0.00,8.66,0.03,0.02,-0.24
4826,1.88,-0.46,10.53,0.06,0.04,-0.25
4830,1.34,-0.11,8.85,0.06,0.04,-0.25
4836,1.34,-0.11,8.85,0.06,-0.06,-0.27
4840,1.15,0.23,9.69,0.06,-0.06,-0.27
4845,-0.30,-0.50,10.15,0.06,-0.06,-0.27
4851,0.42,-0.73,9.73,0.06,-0.06,-0.27
4855,-1.00,-0.04,9.69,0.06,-0.06,-0.27
4860,-0.19,0.46,10.73,0.06,-0.06,-0.27
4865,-1.42,0.96,10.11,0.06,-0.06,-0.27
4871,-1.30,0.84,9.27,0.06,-0.06,-0.27
4875,1.27,-0.04,10.46,0.06,-0.06,-0.27
4880,0.77,-0.38,9.88,0.06,-0.06,-0.27
4886,1.11,-0.19,9.85,0.06,-0.06,-0.27
4891,1.11,-0.19,9.85,0.02,-0.10,-0.24
4895,1.34,-0.30,10.80,0.02,-0.10,-0.24
4901,1.04,-0.50,10.95,0.02,-0.10,-0.24
