timestamp,accX,accY,accZ,gyroX,gyroY,gyroZ
Left
6,0.65,0.77,9.73,-0.10,0.04,-0.08
19,0.54,0.11,9.85,-0.10,0.04,-0.08
21,0.54,0.11,9.85,-0.13,-0.01,-0.11
23,0.54,0.11,9.85,-0.12,0.01,-0.11
26,-0.57,0.08,9.58,-0.12,0.01,-0.11
30,-1.07,0.38,9.34,-0.12,0.01,-0.11
36,-1.07,0.38,9.34,-0.12,0.02,-0.11
41,-1.07,0.38,9.34,-0.13,0.00,-0.13
46,-1.07,0.38,9.34,-0.15,-0.01,-0.16
51,-0.61,0.38,10.57,-0.15,-0.01,-0.16
56,-0.61,0.38,10.57,-0.17,0.02,-0.19
61,-0.61,0.38,10.57,-0.15,0.02,-0.18
66,-0.61,0.38,10.57,-0.14,0.03,-0.16
71,-0.61,0.38,10.57,-0.15,0.02,-0.17
76,-0.61,0.38,10.57,-0.15,-0.01,-0.18
81,-0.61,0.38,10.57,-0.18,0.00,-0.18
86,-0.61,0.38,10.57,-0.19,0.03,-0.19
91,-0.61,0.38,10.57,-0.17,0.04,-0.17
96,-0.61,0.38,10.57,-0.16,0.04,-0.14
101,-0.61,0.38,10.57,-0.16,0.06,-0.16
106,-0.61,0.38,10.57,-0.16,0.06,-0.19
111,-0.61,0.38,10.57,-0.16,0.05,-0.19
116,-0.61,0.38,10.57,-0.15,0.03,-0.17
121,-0.61,0.38,10.57,-0.15,0.01,-0.18
126,-0.61,0.38,10.57,-0.14,0.00,-0.18
131,-0.61,0.38,10.57,-0.15,0.04,-0.19
136,-0.61,0.38,10.57,-0.15,0.06,-0.20
140,-1.49,0.69,8.89,-0.15,0.06,-0.20
146,-1.49,0.69,8.89,-0.14,0.02,-0.23
151,-1.49,0.69,8.89,-0.15,-0.03,-0.25
156,-1.49,0.69,8.89,-0.15,-0.04,-0.27
161,-1.49,0.69,8.89,-0.16,0.00,-0.28
166,-1.49,0.69,8.89,-0.18,0.07,-0.29
172,0.23,0.38,9.93,-0.18,0.07,-0.29
176,-0.27,-0.50,9.27,-0.18,0.07,-0.29
181,-0.65,-0.27,8.81,-0.18,0.07,-0.29
186,-0.65,-0.27,8.81,-0.15,0.03,-0.33
191,-0.65,-0.27,8.81,-0.14,0.06,-0.32
195,0.19,-1.07,8.46,-0.14,0.06,-0.32
201,0.19,-1.07,8.46,-0.13,0.00,-0.33
207,-0.34,-0.38,8.28,-0.13,0.00,-0.33
211,-0.92,-1.19,7.97,-0.13,0.00,-0.33
215,-1.46,-0.50,8.08,-0.13,0.00,-0.33
221,-1.46,-0.50,8.08,-0.09,0.02,-0.40
226,-1.46,-0.50,8.08,-0.10,-0.02,-0.41
231,1.07,-0.04,9.69,-0.10,-0.02,-0.41
236,1.07,-0.04,9.69,-0.10,-0.09,-0.39
242,1.07,-0.04,9.69,-0.12,-0.04,-0.39
246,3.52,-0.50,12.95,-0.12,-0.04,-0.39
250,2.72,-0.04,11.88,-0.12,-0.04,-0.39
256,2.72,-0.04,11.88,-0.14,0.10,-0.32
262,0.42,-0.11,10.77,-0.14,0.10,-0.32
266,0.42,-0.11,10.77,-0.08,0.13,-0.27
271,-1.30,-0.88,7.78,-0.08,0.13,-0.27
276,-1.30,-0.88,7.78,-0.01,0.11,-0.22
281,-1.30,-0.88,7.78,0.01,0.05,-0.21
286,-1.30,-0.88,7.78,0.00,-0.02,-0.19
291,0.00,-1.04,8.39,0.00,-0.02,-0.19
296,0.11,-0.69,10.65,0.00,-0.02,-0.19
301,1.38,-0.73,10.35,0.00,-0.02,-0.19
306,1.38,-0.73,10.35,-0.05,-0.05,-0.23
311,1.38,-0.73,10.35,-0.06,0.07,-0.23
316,-1.00,-1.91,9.38,-0.06,0.07,-0.23
321,-1.00,-1.15,8.73,-0.06,0.07,-0.23
326,-1.15,-2.53,8.85,-0.06,0.07,-0.23
331,-1.15,-2.53,8.85,0.01,-0.07,-0.20
336,0.19,-2.03,9.54,0.01,-0.07,-0.20
341,0.34,-2.03,9.50,0.01,-0.07,-0.20
346,0.34,-2.03,9.50,0.07,0.05,-0.07
351,-1.46,-0.80,10.07,0.07,0.05,-0.07
355,-2.18,-0.57,9.69,0.07,0.05,-0.07
362,-2.18,-0.57,9.69,0.11,0.04,0.02
367,-2.18,-0.57,9.69,0.11,0.04,0.04
371,-1.76,-1.15,8.82,0.11,0.04,0.04
376,-1.68,-2.07,9.38,0.11,0.04,0.04
381,-1.00,-2.11,9.04,0.11,0.04,0.04
386,-1.00,-2.11,9.04,0.12,-0.14,0.19
391,-1.00,-2.11,9.04,0.14,-0.12,0.21
396,-1.00,-2.11,9.04,0.13,-0.02,0.22
401,-1.00,-2.11,9.04,0.14,0.06,0.24
406,-1.00,-2.11,9.04,0.15,0.04,0.25
411,-3.10,-1.11,8.74,0.15,0.04,0.25
416,-1.27,-1.04,9.31,0.15,0.04,0.25
421,0.54,-1.42,9.58,0.15,0.04,0.25
427,0.54,-1.42,9.58,0.15,-0.10,0.26
431,0.54,-1.42,9.58,0.14,-0.05,0.31
436,0.57,-1.46,10.73,0.14,-0.05,0.31
441,1.46,-0.96,10.03,0.14,-0.05,0.31
446,-0.84,-0.88,9.85,0.14,-0.05,0.31
451,-0.84,-0.88,9.85,0.14,0.01,0.32
456,-0.73,-1.34,10.57,0.14,0.01,0.32
461,0.15,-1.00,10.35,0.14,0.01,0.32
466,0.15,-1.00,10.35,0.12,-0.01,0.24
471,-0.92,-1.00,9.80,0.12,-0.01,0.24
476,-1.00,0.04,9.30,0.12,-0.01,0.24
481,-0.38,-0.38,8.66,0.12,-0.01,0.24
486,-1.19,0.15,7.70,0.12,-0.01,0.24
490,-1.00,0.54,8.81,0.12,-0.01,0.24
496,-1.00,0.54,8.81,0.08,-0.04,0.10
501,-1.00,0.54,8.81,0.05,-0.05,0.04
506,-1.00,0.54,8.81,0.04,-0.04,0.02
511,-1.46,0.65,8.58,0.04,-0.04,0.02
516,-0.92,0.15,8.35,0.04,-0.04,0.02
521,-0.92,0.15,8.35,-0.00,0.00,-0.11
526,-1.27,0.00,8.20,-0.00,0.00,-0.11
531,-1.49,0.69,9.04,-0.00,0.00,-0.11
536,-1.49,0.69,9.04,-0.01,-0.02,-0.18
541,-1.49,0.69,9.04,-0.01,-0.01,-0.19
546,-1.49,0.69,9.04,-0.02,-0.04,-0.20
551,1.30,0.34,11.26,-0.02,-0.04,-0.20
556,1.53,0.00,11.57,-0.02,-0.04,-0.20
560,1.42,0.15,11.64,-0.02,-0.04,-0.20
566,1.42,0.15,11.64,-0.02,0.06,-0.15
571,1.42,0.15,11.64,-0.01,0.09,-0.13
576,-0.88,1.04,8.42,-0.01,0.09,-0.13
581,-1.80,1.19,8.46,-0.01,0.09,-0.13
586,-1.80,1.19,8.46,0.01,0.06,-0.12
591,-0.77,0.15,8.27,0.01,0.06,-0.12
595,-1.80,0.46,8.16,0.01,0.06,-0.12
601,-1.80,0.46,8.16,0.00,-0.05,-0.15
606,-1.80,0.46,8.16,-0.01,-0.05,-0.16
611,-1.61,1.91,10.00,-0.01,-0.05,-0.16
615,-1.07,2.18,9.77,-0.01,-0.05,-0.16
622,-1.07,2.18,9.77,-0.08,0.01,-0.31
626,-1.53,1.61,9.12,-0.08,0.01,-0.31
631,-0.38,0.77,9.50,-0.08,0.01,-0.31
636,-0.11,0.84,10.03,-0.08,0.01,-0.31
641,-1.23,0.69,10.11,-0.08,0.01,-0.31
646,-1.42,-0.15,9.08,-0.08,0.01,-0.31
651,-0.96,-0.11,10.35,-0.08,0.01,-0.31
656,-0.96,-0.11,10.35,-0.07,0.05,-0.51
661,-0.50,-0.92,10.53,-0.07,0.05,-0.51
666,-0.92,-0.34,9.85,-0.07,0.05,-0.51
671,-1.53,0.77,10.03,-0.07,0.05,-0.51
676,-1.11,0.50,10.77,-0.07,0.05,-0.51
680,-1.65,0.61,10.42,-0.07,0.05,-0.51
687,-1.65,0.61,10.42,-0.06,0.12,-0.60
691,-1.65,0.61,10.42,-0.05,0.12,-0.63
696,-2.22,0.23,8.54,-0.05,0.12,-0.63
701,-1.76,1.53,8.12,-0.05,0.12,-0.63
706,-1.80,1.57,7.66,-0.05,0.12,-0.63
711,-1.68,1.76,8.36,-0.05,0.12,-0.63
715,-1.00,1.76,9.69,-0.05,0.12,-0.63
722,-1.00,1.76,9.69,-0.07,0.06,-0.76
726,-1.00,1.76,9.69,-0.08,0.05,-0.77
731,0.54,1.38,10.45,-0.08,0.05,-0.77
736,-0.04,0.65,10.80,-0.08,0.05,-0.77
741,0.23,0.19,10.84,-0.08,0.05,-0.77
746,-0.30,0.73,10.69,-0.08,0.05,-0.77
751,-0.92,0.42,10.11,-0.08,0.05,-0.77
756,-2.03,-1.04,9.04,-0.08,0.05,-0.77
761,-2.18,-1.57,8.58,-0.08,0.05,-0.77
766,-2.18,-1.57,8.58,0.07,0.15,-0.64
771,-2.18,-1.57,8.58,0.11,0.08,-0.59
776,-1.30,-2.03,7.70,0.11,0.08,-0.59
781,-0.57,-0.19,6.55,0.11,0.08,-0.59
786,-1.99,-0.84,8.43,0.11,0.08,-0.59
791,-0.77,-1.23,7.47,0.11,0.08,-0.59
796,-0.77,-1.23,7.47,0.13,-0.10,-0.49
801,-0.77,-1.23,7.47,0.14,-0.11,-0.46
806,-0.77,-1.23,7.47,0.15,-0.10,-0.40
811,1.34,-1.76,9.92,0.15,-0.10,-0.40
816,1.34,-1.76,9.92,0.16,-0.08,-0.30
821,1.49,-2.99,12.30,0.16,-0.08,-0.30
826,1.49,-3.22,12.87,0.16,-0.08,-0.30
831,1.49,-3.22,12.87,0.23,0.16,-0.12
836,-1.42,-3.10,9.88,0.23,0.16,-0.12
841,-1.23,-3.56,8.54,0.23,0.16,-0.12
846,-1.23,-3.56,8.54,0.38,0.13,0.10
851,-1.23,-2.45,7.47,0.38,0.13,0.10
856,-0.54,-3.03,8.12,0.38,0.13,0.10
861,-0.38,-2.95,7.97,0.38,0.13,0.10
866,1.53,-2.76,9.50,0.38,0.13,0.10
871,2.14,-2.26,10.34,0.38,0.13,0.10
876,0.84,-3.07,10.11,0.38,0.13,0.10
881,-0.42,-2.03,10.45,0.38,0.13,0.10
886,0.42,-2.64,9.65,0.38,0.13,0.10
891,-0.19,-2.87,8.66,0.38,0.13,0.10
896,-1.53,-2.80,8.96,0.38,0.13,0.10
901,0.65,-2.87,7.55,0.38,0.13,0.10
906,0.96,-3.29,9.20,0.38,0.13,0.10
911,0.80,-2.84,9.08,0.38,0.13,0.10
916,0.80,-2.84,9.08,0.47,-0.18,0.72
921,0.73,-2.45,11.15,0.47,-0.18,0.72
926,0.73,-2.45,11.15,0.46,0.07,0.82
931,-2.84,-2.22,7.81,0.46,0.07,0.82
936,-0.84,-3.07,8.96,0.46,0.07,0.82
941,-1.38,-2.99,8.12,0.46,0.07,0.82
946,-0.08,-4.25,7.70,0.46,0.07,0.82
951,-0.08,-4.25,7.70,0.49,-0.18,0.84
956,0.61,-4.18,8.12,0.49,-0.18,0.84
961,0.80,-3.60,9.30,0.49,-0.18,0.84
966,0.34,-2.84,9.88,0.49,-0.18,0.84
971,1.11,-2.53,10.11,0.49,-0.18,0.84
975,1.11,-2.53,10.11,0.45,-0.05,0.88
981,-0.61,-2.53,9.84,0.45,-0.05,0.88
986,-0.61,-2.53,9.84,0.44,-0.09,0.88
991,1.95,-3.26,10.00,0.44,-0.09,0.88
996,2.11,-3.71,10.27,0.44,-0.09,0.88
1001,1.65,-3.29,9.58,0.44,-0.09,0.88
1006,0.30,-2.38,9.89,0.44,-0.09,0.88
1011,0.30,-2.38,9.89,0.45,-0.04,0.94
1016,0.30,-2.38,9.89,0.45,-0.08,0.94
1021,0.96,-1.68,10.96,0.45,-0.08,0.94
1026,0.88,-0.80,11.42,0.45,-0.08,0.94
1031,-0.11,-1.23,11.72,0.45,-0.08,0.94
1036,-0.80,-0.38,10.61,0.45,-0.08,0.94
1041,-0.08,-0.77,9.12,0.45,-0.08,0.94
1046,-0.08,-0.77,9.12,0.42,-0.08,1.00
1051,0.04,0.46,8.66,0.42,-0.08,1.00
1056,-0.92,0.96,7.86,0.42,-0.08,1.00
1060,-0.92,0.96,7.86,0.37,-0.13,0.96
1066,1.19,1.49,10.42,0.37,-0.13,0.96
1071,1.19,1.49,10.42,0.31,-0.12,0.96
1076,-0.27,0.84,10.65,0.31,-0.12,0.96
1080,-0.27,0.84,10.65,0.23,-0.03,0.89
1085,0.73,0.23,10.15,0.23,-0.03,0.89
1090,-0.96,-0.19,9.88,0.23,-0.03,0.89
1097,-0.96,-0.19,9.88,0.23,-0.06,0.90
1102,-1.72,0.84,7.32,0.23,-0.06,0.90
1106,-3.26,1.49,9.20,0.23,-0.06,0.90
1111,-0.69,0.54,8.50,0.23,-0.06,0.90
1116,-1.30,0.15,8.82,0.23,-0.06,0.90
1121,-2.72,0.46,9.96,0.23,-0.06,0.90
1126,0.65,-0.19,10.96,0.23,-0.06,0.90
1131,0.65,-0.19,10.96,0.07,-0.09,0.54
1135,0.65,-0.19,10.96,0.07,-0.05,0.54
1141,-1.99,1.27,11.07,0.07,-0.05,0.54
1146,0.42,0.92,10.00,0.07,-0.05,0.54
1151,0.42,0.92,10.00,0.02,0.09,0.38
1155,-1.57,0.80,8.43,0.02,0.09,0.38
1161,-1.57,0.80,8.43,0.02,0.11,0.36
1166,-1.34,-0.08,10.11,0.02,0.11,0.36
1171,-0.88,0.77,9.96,0.02,0.11,0.36
1176,0.42,0.88,8.77,0.02,0.11,0.36
1181,-1.88,1.49,10.69,0.02,0.11,0.36
1186,-2.95,2.34,10.84,0.02,0.11,0.36
1191,-0.11,1.61,9.77,0.02,0.11,0.36
1196,-1.00,1.88,10.77,0.02,0.11,0.36
1201,-2.45,1.65,10.77,0.02,0.11,0.36
1206,0.34,0.57,10.50,0.02,0.11,0.36
1211,-1.53,1.61,10.00,0.02,0.11,0.36
1216,-1.00,1.34,9.73,0.02,0.11,0.36
1221,0.96,1.07,8.73,0.02,0.11,0.36
1226,1.42,0.92,9.04,0.02,0.11,0.36
1232,-0.54,1.72,9.04,0.02,0.11,0.36
1236,-0.54,1.72,9.04,-0.12,0.08,-0.06
1241,-1.91,2.84,9.58,-0.12,0.08,-0.06
1246,-1.84,2.34,9.04,-0.12,0.08,-0.06
1251,0.30,2.11,8.36,-0.12,0.08,-0.06
1256,1.27,1.42,9.27,-0.12,0.08,-0.06
1261,-1.84,0.96,9.16,-0.12,0.08,-0.06
1266,-0.77,1.53,8.58,-0.12,0.08,-0.06
1271,-0.77,1.53,8.58,-0.13,0.08,-0.21
1276,-0.77,1.53,8.58,-0.15,0.09,-0.21
1281,-0.19,2.11,9.31,-0.15,0.09,-0.21
1286,1.27,1.72,9.16,-0.15,0.09,-0.21
1292,-0.80,0.46,10.61,-0.15,0.09,-0.21
1296,-0.08,0.30,10.23,-0.15,0.09,-0.21
1301,1.15,0.69,9.39,-0.15,0.09,-0.21
1307,-0.23,0.77,10.39,-0.15,0.09,-0.21
1311,-1.68,1.91,10.23,-0.15,0.09,-0.21
1316,-1.00,1.19,9.42,-0.15,0.09,-0.21
1321,-1.15,1.11,9.50,-0.15,0.09,-0.21
1327,-3.29,0.11,8.39,-0.15,0.09,-0.21
1332,-0.65,0.61,7.27,-0.15,0.09,-0.21
1336,-0.65,0.61,7.27,-0.13,0.10,-0.29
1341,-0.65,0.61,7.27,-0.13,0.08,-0.27
1346,-1.72,1.04,7.13,-0.13,0.08,-0.27
1351,-1.57,1.23,7.39,-0.13,0.08,-0.27
1356,-2.30,0.88,8.01,-0.13,0.08,-0.27
1361,-3.22,1.30,9.04,-0.13,0.08,-0.27
1366,-0.11,0.80,9.04,-0.13,0.08,-0.27
1372,0.42,-0.04,10.92,-0.13,0.08,-0.27
1376,0.42,-0.04,10.92,-0.14,-0.09,-0.16
1381,2.03,-0.69,12.30,-0.14,-0.09,-0.16
1386,3.14,-0.96,13.03,-0.14,-0.09,-0.16
1391,3.14,-0.96,13.03,-0.09,0.01,0.01
1395,3.14,-0.96,13.03,-0.04,0.10,0.08
1402,0.61,-0.42,11.76,-0.04,0.10,0.08
1407,-0.77,-1.76,8.82,-0.04,0.10,0.08
1411,-0.77,-1.76,8.82,0.09,0.23,0.18
1416,-0.77,-1.76,8.82,0.09,0.20,0.21
1422,-0.92,-1.88,7.55,0.09,0.20,0.21
1426,-0.92,-1.88,7.55,0.05,-0.04,0.22
1431,1.80,-1.76,8.96,0.05,-0.04,0.22
1436,1.11,-2.38,9.35,0.05,-0.04,0.22
1442,2.57,-2.34,10.69,0.05,-0.04,0.22
1446,2.57,-2.34,10.69,-0.04,-0.24,0.23
1451,0.42,-2.03,9.96,-0.04,-0.24,0.23
1456,0.57,-2.72,9.77,-0.04,-0.24,0.23
1462,0.57,-2.03,9.77,-0.04,-0.24,0.23
1466,-0.46,-1.38,8.96,-0.04,-0.24,0.23
1471,-0.88,-1.76,8.89,-0.04,-0.24,0.23
1476,-0.34,-1.57,8.54,-0.04,-0.24,0.23
1482,0.69,-1.91,8.78,-0.04,-0.24,0.23
1486,2.14,-2.22,9.69,-0.04,-0.24,0.23
1491,-0.08,-1.04,10.61,-0.04,-0.24,0.23
1497,0.34,0.34,10.23,-0.04,-0.24,0.23
1501,0.61,-0.27,9.96,-0.04,-0.24,0.23
1506,-0.19,-0.69,10.77,-0.04,-0.24,0.23
1511,-0.30,-0.96,9.93,-0.04,-0.24,0.23
1516,-0.30,-0.96,9.93,0.11,0.06,0.49
1521,-1.42,-2.11,9.08,0.11,0.06,0.49
1527,-0.46,-2.45,9.38,0.11,0.06,0.49
1531,-0.46,-2.45,9.38,0.15,-0.09,0.57
1536,-0.46,-2.45,9.38,0.14,-0.10,0.61
1541,-0.23,-0.23,9.04,0.14,-0.10,0.61
1547,-0.15,-0.19,9.34,0.14,-0.10,0.61
1551,0.04,-0.57,9.65,0.14,-0.10,0.61
1556,0.38,-1.00,9.50,0.14,-0.10,0.61
1562,0.84,-0.54,10.53,0.14,-0.10,0.61
1566,0.84,-0.54,10.53,0.09,-0.07,0.66
1571,0.00,-0.96,10.91,0.09,-0.07,0.66
1576,-0.34,-0.84,10.95,0.09,-0.07,0.66
1582,-1.19,-0.77,11.11,0.09,-0.07,0.66
1586,-1.23,-0.38,10.30,0.09,-0.07,0.66
1591,-1.00,-0.57,9.61,0.09,-0.07,0.66
1597,-0.42,-1.19,9.73,0.09,-0.07,0.66
1601,-0.42,-1.19,9.73,0.10,0.01,0.74
1606,-1.91,-0.73,8.20,0.10,0.01,0.74
1611,-2.38,-0.77,8.24,0.10,0.01,0.74
1616,-2.38,-0.77,8.24,0.11,-0.04,0.72
1621,-1.91,-0.92,8.16,0.11,-0.04,0.72
1627,-2.99,-0.73,8.27,0.11,-0.04,0.72
1631,-2.99,-0.73,8.27,0.07,-0.03,0.68
1636,-2.99,-0.73,8.27,0.06,-0.07,0.66
1641,-1.42,-0.96,9.65,0.06,-0.07,0.66
1647,-0.23,-1.23,9.61,0.06,-0.07,0.66
1651,-0.23,-1.23,9.61,0.03,-0.06,0.62
1656,-0.23,-1.23,9.61,0.01,0.02,0.60
1662,-2.38,0.11,8.46,0.01,0.02,0.60
1666,-2.38,0.11,8.46,0.01,0.07,0.51
1671,-2.38,0.11,8.46,0.00,0.03,0.48
1676,-0.84,-0.61,9.54,0.00,0.03,0.48
1682,0.11,-1.46,10.49,0.00,0.03,0.48
1686,0.11,-1.46,10.49,-0.05,-0.08,0.44
1691,1.46,-1.19,11.45,-0.05,-0.08,0.44
1697,0.77,-0.84,11.46,-0.05,-0.08,0.44
1701,0.77,-0.84,11.46,-0.04,0.12,0.41
1706,0.77,-0.84,11.46,-0.02,0.10,0.38
1711,-1.42,2.26,9.35,-0.02,0.10,0.38
1715,-1.42,2.26,9.35,-0.04,0.08,0.32
1720,-1.42,2.26,9.35,-0.06,0.12,0.30
1726,-1.30,1.46,9.31,-0.06,0.12,0.30
1730,-1.30,1.46,9.31,-0.07,0.16,0.26
1738,-1.72,1.23,8.70,-0.07,0.16,0.26
1742,-0.96,1.61,8.88,-0.07,0.16,0.26
1746,-0.96,1.61,8.88,-0.16,0.05,0.18
1751,-0.96,1.61,8.88,-0.17,-0.01,0.15
1756,-0.96,1.61,8.88,-0.21,-0.04,0.10
1761,-0.27,1.19,10.77,-0.21,-0.04,0.10
1767,-1.11,0.73,11.34,-0.21,-0.04,0.10
1771,-1.11,0.73,11.34,-0.22,0.02,0.02
1776,-1.11,0.73,11.34,-0.21,0.07,0.02
1782,-1.61,0.61,9.65,-0.21,0.07,0.02
1786,-1.61,0.61,9.65,-0.19,0.13,-0.04
1791,-1.61,0.61,9.65,-0.18,0.11,-0.04
1796,-1.61,0.61,9.65,-0.17,0.10,-0.01
1802,0.42,0.00,9.04,-0.17,0.10,-0.01
1806,0.42,0.00,9.04,-0.18,0.09,0.00
1811,-1.68,1.80,9.61,-0.18,0.09,0.00
1816,-1.07,1.15,10.00,-0.18,0.09,0.00
1822,0.08,0.92,9.73,-0.18,0.09,0.00
1826,0.08,0.92,9.73,-0.20,0.07,-0.09
1831,-0.77,0.61,9.31,-0.20,0.07,-0.09
1837,-0.30,0.08,8.77,-0.20,0.07,-0.09
1841,-0.30,0.08,8.77,-0.17,0.02,-0.13
1846,-2.22,0.84,6.97,-0.17,0.02,-0.13
1851,-0.92,0.34,8.81,-0.17,0.02,-0.13
1856,-0.92,0.34,8.81,-0.18,0.02,-0.20
1861,-0.92,0.34,8.81,-0.19,0.03,-0.22
1867,-0.92,-0.57,10.00,-0.19,0.03,-0.22
1871,-0.92,-0.57,10.00,-0.18,0.05,-0.26
1876,-0.92,-0.57,10.00,-0.17,0.09,-0.26
1881,-1.27,-0.80,10.45,-0.17,0.09,-0.26
1887,-2.64,-0.65,9.88,-0.17,0.09,-0.26
1892,-2.64,-0.65,9.88,-0.12,0.09,-0.29
1896,-2.64,-0.65,9.88,-0.11,0.10,-0.32
1901,-2.64,-0.80,9.04,-0.11,0.10,-0.32
1907,-2.57,-1.27,8.20,-0.11,0.10,-0.32
1911,-2.57,-1.27,8.20,-0.05,0.13,-0.32
1916,-4.10,-0.19,7.01,-0.05,0.13,-0.32
1922,-4.60,-0.46,7.01,-0.05,0.13,-0.32
1926,-4.60,-0.46,7.01,-0.04,0.08,-0.40
1931,-3.75,-0.42,7.77,-0.04,0.08,-0.40
1936,-2.95,0.27,8.35,-0.04,0.08,-0.40
1942,-1.07,0.04,8.73,-0.04,0.08,-0.40
1946,-1.07,0.04,8.73,-0.06,-0.14,-0.45
1951,0.42,-1.07,11.91,-0.06,-0.14,-0.45
1957,1.65,-0.69,12.79,-0.06,-0.14,-0.45
1961,1.65,-0.69,12.79,0.00,-0.03,-0.35
1966,-0.46,-1.27,12.98,0.00,-0.03,-0.35
1971,-1.72,-0.57,10.65,0.00,-0.03,-0.35
1976,-1.72,-0.57,10.65,0.15,0.32,-0.31
1982,-1.72,-0.57,10.65,0.20,0.29,-0.29
1987,-2.41,-1.42,7.47,0.20,0.29,-0.29
1991,-2.41,-1.42,7.47,0.18,0.11,-0.22
1996,-2.41,-1.42,7.47,0.16,-0.04,-0.24
2001,0.46,-1.34,8.04,0.16,-0.04,-0.24
2007,1.80,-1.38,7.89,0.16,-0.04,-0.24
2011,1.80,-1.38,7.89,0.11,-0.30,-0.18
2016,1.80,-1.38,7.89,0.11,-0.26,-0.17
2023,-0.34,-0.42,9.50,0.11,-0.26,-0.17
2026,-0.34,-0.42,9.50,0.17,0.07,-0.17
2031,-0.34,-0.42,9.50,0.21,0.15,-0.15
2036,-0.34,-0.42,9.50,0.26,0.11,-0.12
2042,0.04,-1.76,9.20,0.26,0.11,-0.12
2046,0.04,-1.76,9.20,0.29,-0.02,0.07
2051,0.04,-1.76,9.20,0.28,-0.06,0.12
2056,0.04,-1.76,9.20,0.29,-0.06,0.15
2062,-1.57,-1.53,9.69,0.29,-0.06,0.15
2066,-1.57,-1.53,9.69,0.34,0.04,0.25
2071,-0.96,-1.65,9.08,0.34,0.04,0.25
2077,-1.04,-1.99,8.88,0.34,0.04,0.25
2081,-1.04,-1.99,8.88,0.38,-0.11,0.38
2086,-1.04,-1.99,8.88,0.39,-0.20,0.46
2092,1.23,-3.52,10.27,0.39,-0.20,0.46
2096,1.23,-3.52,10.27,0.42,-0.23,0.60
2101,1.23,-3.52,10.27,0.44,-0.17,0.66
2106,0.15,-2.99,10.69,0.44,-0.17,0.66
2112,-1.04,-2.76,10.00,0.44,-0.17,0.66
2116,-1.04,-2.76,10.00,0.49,-0.02,0.83
2121,-1.04,-2.76,10.00,0.49,-0.07,0.87
2127,0.88,-5.13,9.08,0.49,-0.07,0.87
2131,0.88,-5.13,9.08,0.54,-0.20,1.04
2136,0.88,-5.13,9.08,0.58,-0.18,1.09
2141,0.08,-4.18,9.23,0.58,-0.18,1.09
2147,0.19,-4.02,9.34,0.58,-0.18,1.09
2151,0.19,-4.02,9.34,0.59,-0.06,1.18
2156,0.19,-4.02,9.34,0.59,-0.10,1.20
2162,-0.80,-4.10,10.73,0.59,-0.10,1.20
2166,-0.80,-4.10,10.73,0.57,-0.11,1.22
2171,-0.80,-4.10,10.73,0.57,-0.12,1.24
2176,-0.80,-4.10,10.73,0.60,-0.13,1.27
2182,-0.46,-4.10,8.58,0.60,-0.13,1.27
2186,-0.46,-4.10,8.58,0.61,-0.17,1.31
2191,-0.46,-4.10,8.58,0.59,-0.15,1.34
2197,1.84,-2.53,11.07,0.59,-0.15,1.34
2201,1.84,-2.53,11.07,0.57,-0.06,1.38
2206,1.84,-2.53,11.07,0.57,-0.04,1.41
2212,-0.54,-2.14,10.34,0.57,-0.04,1.41
2216,-0.54,-2.14,10.34,0.57,-0.04,1.44
2221,-0.54,-2.14,10.34,0.59,-0.05,1.44
2226,-0.92,-2.34,9.23,0.59,-0.05,1.44
2232,-0.80,-2.64,10.07,0.59,-0.05,1.44
2236,-0.80,-2.64,10.07,0.57,-0.11,1.48
2241,-0.80,-2.64,10.07,0.55,-0.14,1.47
2247,0.00,-1.53,10.77,0.55,-0.14,1.47
2251,0.00,-1.53,10.77,0.49,-0.12,1.46
2256,0.00,-1.53,10.77,0.48,-0.09,1.44
2261,-0.46,-0.30,10.50,0.48,-0.09,1.44
2267,0.11,1.11,10.80,0.48,-0.09,1.44
2271,0.11,1.11,10.80,0.44,0.01,1.36
2275,0.11,1.11,10.80,0.42,-0.02,1.37
2280,0.54,0.19,11.57,0.42,-0.02,1.37
2286,0.54,0.19,11.57,0.41,-0.00,1.38
2292,0.54,0.19,11.57,0.40,0.05,1.32
2297,0.54,0.19,11.57,0.38,0.09,1.32
2301,0.54,0.19,11.57,0.37,0.11,1.27
2306,0.54,0.19,11.57,0.34,0.10,1.20
2311,0.54,0.19,11.57,0.28,0.09,1.12
2317,0.15,0.80,10.34,0.28,0.09,1.12
2321,0.15,0.80,10.34,0.21,0.07,1.01
2326,0.15,0.80,10.34,0.18,0.08,0.96
2331,0.54,0.30,9.69,0.18,0.08,0.96
2337,-0.57,0.69,9.77,0.18,0.08,0.96
2341,-0.57,0.69,9.77,0.11,0.06,0.77
2346,-0.57,0.69,9.77,0.09,0.07,0.71
2352,-0.19,1.30,10.91,0.09,0.07,0.71
2356,-0.19,1.30,10.91,0.04,0.22,0.64
2361,-0.19,1.30,10.91,0.03,0.23,0.58
2366,0.46,2.49,11.04,0.03,0.23,0.58
2372,-0.88,2.41,9.88,0.03,0.23,0.58
2376,-0.88,2.41,9.88,0.01,0.30,0.55
2381,-0.88,2.41,9.88,-0.00,0.32,0.49
2387,-0.92,1.42,8.85,-0.00,0.32,0.49
2392,-0.92,1.42,8.85,0.02,0.35,0.46
2396,-0.92,1.42,8.85,0.01,0.34,0.45
2401,0.88,1.80,9.08,0.01,0.34,0.45
2407,0.61,0.54,10.30,0.01,0.34,0.45
2411,0.61,0.54,10.30,-0.08,0.15,0.42
2416,0.61,0.54,10.30,-0.09,0.13,0.41
2422,-0.50,0.61,10.07,-0.09,0.13,0.41
2426,-0.50,0.61,10.07,-0.11,0.13,0.34
2431,-0.50,0.61,10.07,-0.10,0.15,0.34
2436,-0.50,0.61,10.07,-0.08,0.18,0.33
2443,-2.95,0.38,9.08,-0.08,0.18,0.33
2446,-2.95,0.38,9.08,-0.06,0.26,0.29
2451,-2.45,0.65,9.34,-0.06,0.26,0.29
2457,-3.37,1.27,7.70,-0.06,0.26,0.29
2461,-3.37,1.27,7.70,-0.06,0.22,0.31
2466,-3.37,1.27,7.70,-0.08,0.16,0.26
2472,-3.07,0.57,8.04,-0.08,0.16,0.26
2476,-3.07,0.57,8.04,-0.09,0.10,0.21
2481,-3.07,0.57,8.04,-0.10,0.07,0.21
2486,0.04,1.65,10.11,-0.10,0.07,0.21
2492,1.27,1.49,11.45,-0.10,0.07,0.21
2496,1.27,1.49,11.45,-0.17,-0.03,0.19
2501,1.27,1.49,11.45,-0.18,-0.00,0.22
2507,2.18,0.96,12.38,-0.18,-0.00,0.22
2511,2.18,0.96,12.38,-0.13,0.17,0.28
2516,2.18,0.96,12.38,-0.11,0.31,0.29
2521,-0.96,1.61,9.81,-0.11,0.31,0.29
2527,-1.88,1.99,8.84,-0.11,0.31,0.29
2531,-1.88,1.99,8.84,-0.04,0.44,0.29
2536,-1.88,1.99,8.84,-0.06,0.37,0.30
2542,0.46,2.18,8.12,-0.06,0.37,0.30
2546,0.46,2.18,8.12,-0.15,0.12,0.32
2551,0.46,2.18,8.12,-0.17,0.03,0.35
2556,0.46,2.18,8.12,-0.19,-0.03,0.37
2563,0.19,1.30,9.27,-0.19,-0.03,0.37
2566,0.19,1.30,9.27,-0.16,0.01,0.37
2571,0.19,1.30,9.27,-0.15,0.09,0.33
2577,-0.50,1.23,8.96,-0.15,0.09,0.33
2581,-0.50,1.23,8.96,-0.10,0.15,0.35
2586,-0.50,1.23,8.96,-0.10,0.15,0.38
2591,0.19,-0.80,9.00,-0.10,0.15,0.38
2597,-0.08,-0.08,9.08,-0.10,0.15,0.38
2601,-0.08,-0.08,9.08,-0.09,0.14,0.43
2606,-0.08,-0.08,9.08,-0.10,0.15,0.37
2612,-0.88,-0.27,9.50,-0.10,0.15,0.37
2616,-0.88,-0.27,9.50,-0.13,0.09,0.32
2621,-0.88,-0.27,9.50,-0.15,0.04,0.33
2627,0.73,-2.72,10.61,-0.15,0.04,0.33
2631,0.73,-2.72,10.61,-0.12,-0.01,0.33
2635,0.73,-2.72,10.61,-0.10,-0.01,0.35
2641,0.73,-2.72,10.61,-0.07,0.03,0.39
2645,1.27,-0.88,10.19,-0.07,0.03,0.39
2653,1.27,-0.88,10.19,-0.05,0.05,0.40
2656,1.27,-0.88,10.19,-0.04,0.14,0.41
2662,0.73,-1.38,10.53,-0.04,0.14,0.41
2666,0.73,-1.38,10.53,-0.04,0.19,0.42
2671,0.73,-1.38,10.53,-0.05,0.13,0.46
2676,0.73,-1.38,10.53,-0.03,0.07,0.55
2682,1.57,-0.50,9.85,-0.03,0.07,0.55
2686,1.57,-0.50,9.85,-0.01,0.05,0.64
2691,1.57,-0.50,9.85,-0.01,0.12,0.64
2697,1.57,-0.50,9.85,-0.02,0.17,0.62
2701,1.57,-0.50,9.85,-0.03,0.19,0.62
2706,1.57,-0.50,9.85,-0.02,0.17,0.64
2711,-0.54,-0.77,8.82,-0.02,0.17,0.64
2717,-0.30,0.50,8.70,-0.02,0.17,0.64
2721,-0.30,0.50,8.70,0.01,0.06,0.75
2726,-0.30,0.50,8.70,-0.02,0.01,0.75
2732,2.11,-0.23,13.48,-0.02,0.01,0.75
2736,2.11,-0.23,13.48,-0.07,-0.00,0.81
2741,2.11,-0.23,13.48,-0.05,0.12,0.86
2746,0.08,-0.61,12.38,-0.05,0.12,0.86
2751,0.96,-1.46,11.72,-0.05,0.12,0.86
2756,0.96,-1.46,11.72,0.04,0.28,0.88
2761,0.96,-1.46,11.72,0.08,0.25,0.92
2767,-2.72,0.84,5.60,0.08,0.25,0.92
2771,-2.72,0.84,5.60,0.08,0.26,0.87
2776,-2.72,0.84,5.60,0.04,0.22,0.84
2782,-3.18,0.30,7.31,0.04,0.22,0.84
2786,-3.18,0.30,7.31,-0.07,0.03,0.82
2791,-3.18,0.30,7.31,-0.13,-0.04,0.80
2796,-3.18,0.30,7.31,-0.17,-0.09,0.79
2802,-1.11,1.57,10.84,-0.17,-0.09,0.79
2806,-1.11,1.57,10.84,-0.11,-0.03,0.75
2811,-1.11,1.57,10.84,-0.12,0.14,0.73
2816,-1.11,1.57,10.84,-0.13,0.30,0.74
2822,-1.46,0.46,9.85,-0.13,0.30,0.74
2826,-1.46,0.46,9.85,-0.09,0.25,0.67
2831,-1.42,-0.84,9.73,-0.09,0.25,0.67
2837,-1.99,-0.08,8.32,-0.09,0.25,0.67
2841,-1.99,-0.08,8.32,-0.10,0.15,0.72
2846,-1.99,-0.08,8.32,-0.10,0.14,0.69
2852,-2.22,1.04,9.12,-0.10,0.14,0.69
2857,-2.22,1.04,9.12,-0.12,0.08,0.67
2861,-2.22,1.04,9.12,-0.14,0.04,0.64
2866,-2.22,1.04,9.12,-0.16,0.02,0.59
2872,-0.11,1.11,9.93,-0.16,0.02,0.59
2876,-0.11,1.11,9.93,-0.20,0.11,0.55
2881,-0.11,1.11,9.93,-0.23,0.20,0.48
2886,0.50,-0.69,9.50,-0.23,0.20,0.48
2891,0.50,-0.69,9.50,-0.20,0.19,0.48
2896,0.50,-0.69,9.50,-0.19,0.18,0.50
2901,0.50,-0.69,9.50,-0.17,0.17,0.50
2907,-0.73,1.27,10.11,-0.17,0.17,0.50
2911,-0.73,1.27,10.11,-0.20,0.24,0.43
2915,-0.73,1.27,10.11,-0.20,0.28,0.38
2920,-1.49,1.91,8.81,-0.20,0.28,0.38
2927,-1.49,1.91,8.81,-0.23,0.29,0.30
2932,-0.54,1.38,8.58,-0.23,0.29,0.30
2937,-0.54,1.38,8.58,-0.29,0.13,0.30
2941,-0.54,1.38,8.58,-0.32,0.06,0.29
2946,-0.54,1.38,8.58,-0.35,0.02,0.26
2951,-0.54,1.38,8.58,-0.37,0.04,0.26
2957,-1.23,1.76,11.26,-0.37,0.04,0.26
2961,-1.23,1.76,11.26,-0.35,0.18,0.23
2966,-1.23,1.76,11.26,-0.34,0.24,0.20
2972,-1.23,1.76,11.26,-0.33,0.27,0.19
2976,-1.23,1.76,11.26,-0.32,0.27,0.21
2981,-1.23,1.76,11.26,-0.29,0.26,0.21
2986,-1.23,1.76,11.26,-0.30,0.24,0.18
2992,-0.96,1.00,8.46,-0.30,0.24,0.18
2996,-0.96,1.00,8.46,-0.35,0.14,0.13
3001,-0.96,1.00,8.46,-0.36,0.11,0.11
3006,-0.96,1.00,8.46,-0.38,0.12,0.07
3011,-0.96,1.00,8.46,-0.37,0.12,0.02
3016,-0.96,1.00,8.46,-0.38,0.12,-0.02
3021,-0.96,1.00,8.46,-0.37,0.12,-0.03
3027,-2.57,1.99,9.61,-0.37,0.12,-0.03
3031,-2.57,1.99,9.61,-0.39,0.13,-0.12
3036,-2.57,1.99,9.61,-0.42,0.13,-0.16
3042,-2.57,1.99,9.61,-0.44,0.11,-0.19
3046,-2.57,1.99,9.61,-0.45,0.04,-0.20
3051,-2.57,1.99,9.61,-0.44,-0.02,-0.15
3056,-2.57,1.99,9.61,-0.42,-0.04,-0.09
3062,-0.11,0.08,8.81,-0.42,-0.04,-0.09
3066,-0.11,0.08,8.81,-0.31,0.09,-0.12
3071,-0.11,0.08,8.81,-0.28,0.16,-0.14
3077,-0.11,0.08,8.81,-0.26,0.21,-0.14
3081,-0.11,0.08,8.81,-0.25,0.22,-0.17
3086,-0.11,0.08,8.81,-0.25,0.18,-0.20
3091,-0.11,0.08,8.81,-0.28,0.14,-0.22
3097,-2.34,-1.00,9.50,-0.28,0.14,-0.22
3101,-2.34,-1.00,9.50,-0.29,0.04,-0.27
3106,-2.34,-1.00,9.50,-0.28,-0.01,-0.29
3112,-2.34,-1.00,9.50,-0.28,-0.05,-0.31
3116,-2.34,-1.00,9.50,-0.25,-0.07,-0.33
3121,-2.34,-1.00,9.50,-0.21,-0.05,-0.35
3126,-2.34,-1.00,9.50,-0.20,-0.01,-0.37
3131,-2.34,-1.00,9.50,-0.17,0.04,-0.36
3136,-2.34,-1.00,9.50,-0.14,0.10,-0.31
3141,-2.34,-1.00,9.50,-0.12,0.18,-0.26
3146,-1.34,-1.68,9.81,-0.12,0.18,-0.26
3151,-1.34,-1.68,9.81,-0.07,0.23,-0.24
3156,-1.34,-1.68,9.81,-0.05,0.21,-0.22
3162,-1.34,-1.68,9.81,-0.04,0.15,-0.20
3166,-1.34,-1.68,9.81,-0.03,0.04,-0.17
3171,-1.34,-1.68,9.81,-0.01,-0.05,-0.12
3176,-1.34,-1.68,9.81,-0.01,-0.11,-0.07
3182,1.72,-2.41,9.58,-0.01,-0.11,-0.07
3186,1.72,-2.41,9.58,0.02,-0.11,-0.04
3191,1.72,-2.41,9.58,0.06,-0.03,0.01
3197,1.72,-2.41,9.58,0.08,0.09,0.06
3201,1.72,-2.41,9.58,0.10,0.15,0.07
3206,1.72,-2.41,9.58,0.10,0.14,0.07
3211,1.72,-2.41,9.58,0.12,0.08,0.12
3217,1.72,-2.41,9.58,0.14,0.02,0.19
3221,1.72,-2.41,9.58,0.15,-0.04,0.22
3226,1.72,-2.41,9.58,0.17,-0.05,0.25
3232,1.72,-2.41,9.58,0.17,0.01,0.32
3236,1.72,-2.41,9.58,0.19,0.08,0.35
3242,1.72,-2.41,9.58,0.18,0.11,0.35
3246,1.72,-2.41,9.58,0.19,0.13,0.37
3252,-1.38,-1.65,9.93,0.19,0.13,0.37
3256,-1.38,-1.65,9.93,0.23,0.04,0.44
3261,-1.38,-1.65,9.93,0.25,-0.03,0.50
3266,-1.38,-1.65,9.93,0.27,-0.07,0.56
3271,-1.38,-1.65,9.93,0.25,-0.12,0.57
3276,-1.38,-1.65,9.93,0.22,-0.13,0.56
3281,-1.38,-1.65,9.93,0.20,-0.12,0.59
3287,-0.08,-1.11,9.65,0.20,-0.12,0.59
3291,-0.08,-1.11,9.65,0.24,0.06,0.65
3296,-0.08,-1.11,9.65,0.26,0.11,0.64
3301,-0.08,-1.11,9.65,0.27,0.13,0.66
3306,-0.08,-1.11,9.65,0.29,0.10,0.65
3311,-0.08,-1.11,9.65,0.28,0.00,0.63
3316,-0.08,-1.11,9.65,0.27,-0.12,0.66
3322,0.69,-2.18,8.85,0.27,-0.12,0.66
3326,0.69,-2.18,8.85,0.27,-0.24,0.74
3331,0.69,-2.18,8.85,0.26,-0.11,0.75
3336,0.69,-2.18,8.85,0.26,0.08,0.77
3341,0.69,-2.18,8.85,0.26,0.16,0.79
3346,0.69,-2.18,8.85,0.30,0.11,0.82
3351,0.69,-2.18,8.85,0.34,0.03,0.82
3357,-0.80,-1.76,9.93,0.34,0.03,0.82
3361,-0.80,-1.76,9.93,0.36,-0.05,0.85
3366,-0.80,-1.76,9.93,0.37,-0.06,0.89
3372,-0.65,-1.19,9.12,0.37,-0.06,0.89
3376,-0.65,-1.19,9.12,0.36,0.00,0.91
3381,-0.65,-1.19,9.12,0.33,0.03,0.88
3386,-0.65,-1.19,9.12,0.30,0.02,0.83
3392,-0.65,-1.19,9.12,0.30,-0.04,0.79
3396,-0.65,-1.19,9.12,0.26,-0.10,0.76
3401,-0.65,-1.19,9.12,0.25,-0.13,0.74
3407,-0.96,-0.88,9.69,0.25,-0.13,0.74
3411,-0.96,-0.88,9.69,0.26,-0.10,0.69
3416,-0.96,-0.88,9.69,0.24,-0.04,0.69
3421,-0.96,-0.88,9.69,0.23,0.01,0.67
3426,-0.96,-0.88,9.69,0.25,-0.01,0.66
3431,-0.96,-0.88,9.69,0.25,-0.06,0.67
3436,-0.96,-0.88,9.69,0.26,-0.08,0.68
3442,-0.34,-0.42,10.38,0.26,-0.08,0.68
3446,-0.34,-0.42,10.38,0.26,0.06,0.70
3451,-0.34,-0.42,10.38,0.27,0.05,0.68
3456,-0.34,-0.42,10.38,0.26,0.04,0.69
3461,-0.34,-0.42,10.38,0.26,0.06,0.70
3466,-0.34,-0.42,10.38,0.25,0.04,0.65
3471,-0.34,-0.42,10.38,0.24,0.04,0.62
3477,-1.38,0.23,8.20,0.24,0.04,0.62
3481,-1.38,0.23,8.20,0.20,-0.01,0.59
3486,-1.38,0.23,8.20,0.18,-0.09,0.55
3491,-1.38,0.23,8.20,0.14,-0.13,0.54
3495,-1.38,0.23,8.20,0.15,-0.18,0.52
3500,-0.19,1.15,10.77,0.15,-0.18,0.52
3506,-0.19,1.15,10.77,0.15,-0.13,0.52
3512,0.50,-0.34,11.60,0.15,-0.13,0.52
3516,0.50,-0.34,11.60,0.11,0.07,0.49
3521,0.50,-0.34,11.60,0.13,0.04,0.49
3527,0.50,-0.34,11.60,0.17,0.05,0.51
3531,0.50,-0.34,11.60,0.16,0.10,0.55
3536,0.50,-0.34,11.60,0.17,0.14,0.54
3541,0.50,-0.34,11.60,0.20,0.14,0.52
3547,-3.91,2.11,6.59,0.20,0.14,0.52
3551,-3.91,2.11,6.59,0.20,0.19,0.47
3556,-3.91,2.11,6.59,0.18,0.14,0.43
3562,-3.91,2.11,6.59,0.12,0.05,0.40
3566,-3.91,2.11,6.59,0.08,-0.07,0.37
3571,-3.91,2.11,6.59,0.02,-0.19,0.35
3576,-3.91,2.11,6.59,-0.03,-0.27,0.36
3581,-3.91,2.11,6.59,-0.01,-0.29,0.36
3586,-3.91,2.11,6.59,0.00,-0.08,0.38
3591,-3.91,2.11,6.59,0.00,0.26,0.37
3597,-3.91,2.11,6.59,0.05,0.37,0.38
3601,-3.91,2.11,6.59,0.17,0.28,0.37
3606,-3.91,2.11,6.59,0.18,0.20,0.40
3611,-3.91,2.11,6.59,0.20,0.15,0.41
3617,-3.75,3.71,6.36,0.20,0.15,0.41
3621,-3.75,3.71,6.36,0.08,0.13,0.40
3626,-3.75,3.71,6.36,0.03,0.09,0.38
3632,-1.07,2.38,9.58,0.03,0.09,0.38
3636,-1.07,2.38,9.58,-0.11,-0.08,0.39
3641,-1.07,2.38,9.58,-0.13,-0.16,0.38
3646,-1.07,2.38,9.58,-0.10,-0.22,0.33
3652,-2.38,-0.19,10.23,-0.10,-0.22,0.33
3656,-2.38,-0.19,10.23,0.00,0.16,0.28
3661,-2.38,-0.19,10.23,0.01,0.28,0.22
3667,-0.27,1.88,8.62,0.01,0.28,0.22
3671,-0.27,1.88,8.62,0.03,0.11,0.33
3676,-0.27,1.88,8.62,0.02,0.05,0.38
3681,-0.27,1.88,8.62,-0.00,0.05,0.42
3687,-1.42,1.99,9.46,-0.00,0.05,0.42
3691,-1.42,1.99,9.46,-0.04,0.24,0.42
3696,-1.42,1.99,9.46,-0.01,0.26,0.41
3702,-4.52,1.95,8.84,-0.01,0.26,0.41
3706,-4.52,1.95,8.84,-0.01,0.16,0.42
3711,-4.52,1.95,8.84,-0.04,0.04,0.42
3716,-4.52,1.95,8.84,-0.05,-0.06,0.46
3722,2.14,0.30,9.58,-0.05,-0.06,0.46
3726,2.14,0.30,9.58,-0.04,-0.16,0.56
3731,2.14,0.30,9.58,-0.02,-0.02,0.62
3737,1.27,0.19,11.57,-0.02,-0.02,0.62
3741,1.27,0.19,11.57,-0.03,0.29,0.66
3746,1.27,0.19,11.57,0.02,0.23,0.69
3751,1.27,0.19,11.57,0.03,0.14,0.71
3757,-0.38,-1.04,9.92,0.03,0.14,0.71
3761,-0.38,-1.04,9.92,0.02,0.01,0.73
3766,-0.38,-1.04,9.92,0.03,-0.02,0.75
3772,0.34,-2.61,9.39,0.03,-0.02,0.75
3776,0.34,-2.61,9.39,0.07,0.10,0.75
3781,0.34,-2.61,9.39,0.05,0.16,0.73
3787,0.34,-2.61,9.39,0.05,0.14,0.70
3791,0.34,-2.61,9.39,0.06,0.09,0.64
3796,0.34,-2.61,9.39,0.05,0.03,0.58
3801,0.34,-2.61,9.39,0.03,-0.02,0.55
3807,1.00,-2.38,11.76,0.03,-0.02,0.55
3811,1.00,-2.38,11.76,-0.01,0.03,0.49
3816,1.00,-2.38,11.76,-0.01,0.07,0.52
3822,1.00,-2.38,11.76,0.02,0.10,0.53
3826,1.00,-2.38,11.76,0.04,0.12,0.53
3831,1.00,-2.38,11.76,0.04,0.15,0.53
3836,1.00,-2.38,11.76,0.04,0.16,0.45
3842,-2.07,-0.73,8.16,0.04,0.16,0.45
3846,-2.07,-0.73,8.16,0.06,0.06,0.39
3851,-2.07,-0.73,8.16,0.06,0.04,0.42
3857,-0.38,-0.69,9.61,0.06,0.04,0.42
3861,-0.38,-0.69,9.61,0.06,0.01,0.45
3866,-0.38,-0.69,9.61,0.04,0.03,0.46
3871,-0.38,-0.69,9.61,0.03,0.05,0.45
3875,-0.15,0.88,10.35,0.03,0.05,0.45
3881,-0.15,0.88,10.35,0.02,0.10,0.46
3886,-0.15,0.88,10.35,0.03,0.13,0.44
3892,-1.76,-0.15,9.58,0.03,0.13,0.44
3896,-1.76,-0.15,9.58,0.08,0.07,0.48
3901,-1.76,-0.15,9.58,0.10,0.06,0.51
3906,-1.76,-0.15,9.58,0.12,0.07,0.56
3912,-0.96,0.54,10.53,0.12,0.07,0.56
3916,-0.96,0.54,10.53,0.08,0.08,0.62
3921,-0.96,0.54,10.53,0.06,0.07,0.62
3927,-0.42,0.54,10.04,0.06,0.07,0.62
3931,-0.42,0.54,10.04,0.03,0.08,0.65
3936,-0.42,0.54,10.04,0.03,0.12,0.69
3941,-0.42,0.54,10.04,0.05,0.13,0.72
3947,-0.80,0.61,10.38,0.05,0.13,0.72
3951,-0.80,0.61,10.38,0.05,0.07,0.80
3956,-0.80,0.61,10.38,0.07,0.05,0.86
3962,-1.42,-0.11,9.77,0.07,0.05,0.86
3966,-1.42,-0.11,9.77,0.10,0.10,0.90
3971,-1.42,-0.11,9.77,0.12,0.10,0.94
3976,-1.42,-0.11,9.77,0.14,0.08,0.96
3982,-0.50,-1.23,8.96,0.14,0.08,0.96
3986,-0.50,-1.23,8.96,0.13,0.09,0.98
3991,-0.50,-1.23,8.96,0.14,0.14,0.97
3997,-1.95,0.15,9.08,0.14,0.14,0.97
4001,-1.95,0.15,9.08,0.12,0.12,0.95
4006,-1.95,0.15,9.08,0.09,0.10,0.93
4011,-1.95,0.15,9.08,0.08,0.08,0.89
4017,-1.38,0.30,11.00,0.08,0.08,0.89
4021,-1.38,0.30,11.00,0.01,0.16,0.83
4026,-1.38,0.30,11.00,0.00,0.16,0.80
4032,-1.19,-0.84,10.23,0.00,0.16,0.80
4036,-1.19,-0.84,10.23,0.00,0.14,0.76
4041,-1.19,-0.84,10.23,-0.00,0.16,0.74
4047,-1.19,-0.84,10.23,0.01,0.20,0.71
4051,-1.19,-0.84,10.23,0.01,0.21,0.68
4056,-1.19,-0.84,10.23,0.01,0.20,0.66
4061,-1.19,-0.84,10.23,-0.00,0.18,0.62
4067,-1.99,1.46,9.00,-0.00,0.18,0.62
4071,-1.99,1.46,9.00,-0.03,0.18,0.57
4076,-1.99,1.46,9.00,-0.04,0.18,0.54
4082,-1.99,1.46,9.00,-0.06,0.18,0.51
4086,-1.99,1.46,9.00,-0.09,0.13,0.48
4091,-1.99,1.46,9.00,-0.11,0.11,0.45
4096,-1.99,1.46,9.00,-0.13,0.12,0.45
4102,0.80,1.72,12.41,-0.13,0.12,0.45
4106,0.80,1.72,12.41,-0.15,0.22,0.43
4111,0.80,1.72,12.41,-0.14,0.20,0.43
4117,0.92,1.49,11.07,-0.14,0.20,0.43
4121,0.92,1.49,11.07,-0.12,0.18,0.45
4126,0.92,1.49,11.07,-0.11,0.21,0.45
4131,0.92,1.49,11.07,-0.12,0.25,0.45
4137,-0.57,1.68,9.85,-0.12,0.25,0.45
4141,-0.57,1.68,9.85,-0.16,0.23,0.38
4146,-0.57,1.68,9.85,-0.17,0.22,0.37
4152,-1.99,0.88,9.65,-0.17,0.22,0.37
4156,-1.99,0.88,9.65,-0.19,0.17,0.36
4161,-1.99,0.88,9.65,-0.21,0.14,0.31
4166,-1.99,0.88,9.65,-0.22,0.11,0.27
4172,-2.99,1.15,8.08,-0.22,0.11,0.27
4176,-2.99,1.15,8.08,-0.22,0.16,0.21
4181,-2.99,1.15,8.08,-0.21,0.18,0.18
4187,-1.72,-0.34,8.01,-0.21,0.18,0.18
4191,-1.72,-0.34,8.01,-0.18,0.12,0.19
4195,-1.72,-0.34,8.01,-0.17,0.10,0.20
4201,-1.72,-0.34,8.01,-0.15,0.14,0.22
4205,-2.03,-1.11,9.46,-0.15,0.14,0.22
4212,-2.03,-1.11,9.46,-0.11,0.18,0.25
4216,-2.03,-1.11,9.46,-0.09,0.15,0.26
4221,-2.03,-1.11,9.46,-0.08,0.10,0.28
4226,-2.03,-1.11,9.46,-0.06,0.07,0.32
4231,-2.03,-1.11,9.46,-0.04,0.07,0.35
4237,-2.03,-1.11,9.46,-0.03,0.09,0.37
4241,-2.03,-1.11,9.46,0.00,0.10,0.43
4246,-2.03,-1.11,9.46,0.02,0.14,0.45
4251,-2.03,-1.11,9.46,0.02,0.14,0.45
4257,-1.42,-2.26,9.08,0.02,0.14,0.45
4261,-1.42,-2.26,9.08,0.05,0.06,0.49
4266,-1.42,-2.26,9.08,0.05,0.08,0.50
4271,-1.42,-2.26,9.08,0.06,0.07,0.54
4277,1.88,-1.84,10.80,0.06,0.07,0.54
4281,1.88,-1.84,10.80,0.09,0.07,0.60
4286,1.88,-1.84,10.80,0.09,0.12,0.62
4292,-0.23,-1.34,10.07,0.09,0.12,0.62
4296,-0.23,-1.34,10.07,0.10,0.17,0.66
4301,-0.23,-1.34,10.07,0.12,0.12,0.69
4307,-1.19,-0.57,8.12,0.12,0.12,0.69
4311,-1.19,-0.57,8.12,0.14,0.04,0.72
4316,-1.19,-0.57,8.12,0.13,0.04,0.71
4321,-1.19,-0.57,8.12,0.12,0.07,0.72
4326,0.61,0.50,9.27,0.12,0.07,0.72
4331,0.61,0.50,9.27,0.10,0.08,0.72
4336,0.61,0.50,9.27,0.09,0.07,0.70
4342,-0.69,-1.11,9.39,0.09,0.07,0.70
4346,-0.69,-1.11,9.39,0.05,0.08,0.63
4351,-0.69,-1.11,9.39,0.04,0.08,0.61
4356,-0.69,-1.11,9.39,0.03,0.08,0.60
4362,1.15,-0.92,11.64,0.03,0.08,0.60
4366,1.15,-0.92,11.64,0.05,0.06,0.61
4371,1.15,-0.92,11.64,0.06,0.10,0.60
4377,1.15,-0.92,11.64,0.06,0.16,0.61
4381,1.15,-0.92,11.64,0.06,0.17,0.61
4386,1.15,-0.92,11.64,0.06,0.15,0.62
4391,1.15,-0.92,11.64,0.06,0.14,0.60
4397,-0.88,0.42,8.96,0.06,0.14,0.60
4401,-0.88,0.42,8.96,0.06,0.13,0.62
4406,-0.88,0.42,8.96,0.04,0.12,0.62
4412,0.77,2.30,7.62,0.04,0.12,0.62
4416,0.77,2.30,7.62,0.00,0.10,0.62
4421,0.77,2.30,7.62,-0.04,0.14,0.58
4426,0.77,2.30,7.62,-0.07,0.14,0.57
4432,-0.65,1.04,8.78,-0.07,0.14,0.57
4436,-0.65,1.04,8.78,-0.08,0.13,0.54
4441,-0.65,1.04,8.78,-0.09,0.13,0.55
4447,0.00,1.19,10.80,-0.09,0.13,0.55
4451,0.00,1.19,10.80,-0.12,0.11,0.54
4456,0.00,1.19,10.80,-0.14,0.12,0.53
4462,0.42,-1.38,10.80,-0.14,0.12,0.53
4466,0.42,-1.38,10.80,-0.09,0.08,0.57
4471,0.42,-1.38,10.80,-0.07,0.09,0.59
4476,0.42,-1.38,10.80,-0.07,0.12,0.62
4482,1.19,-0.77,9.77,-0.07,0.12,0.62
4486,1.19,-0.77,9.77,-0.05,0.18,0.64
4491,1.19,-0.77,9.77,-0.05,0.22,0.63
4497,1.19,-0.77,9.77,-0.06,0.20,0.61
4501,1.19,-0.77,9.77,-0.06,0.15,0.60
4506,1.19,-0.77,9.77,-0.08,0.11,0.58
4511,1.19,-0.77,9.77,-0.11,0.07,0.54
4517,1.19,-0.77,9.77,-0.12,0.04,0.51
4521,1.19,-0.77,9.77,-0.13,0.07,0.49
4526,1.19,-0.77,9.77,-0.16,0.14,0.47
4531,-0.46,-0.19,9.96,-0.16,0.14,0.47
4536,-0.46,-0.19,9.96,-0.15,0.21,0.46
4540,-0.46,-0.19,9.96,-0.15,0.19,0.44
4546,-0.46,-0.19,9.96,-0.15,0.17,0.44
4552,-2.49,0.69,9.50,-0.15,0.17,0.44
4556,-2.49,0.69,9.50,-0.15,0.14,0.41
4561,-2.49,0.69,9.50,-0.13,0.11,0.43
4567,-1.38,0.84,8.74,-0.13,0.11,0.43
4571,-1.38,0.84,8.74,-0.15,0.10,0.45
4576,-1.38,0.84,8.74,-0.14,0.09,0.46
4581,-1.38,0.84,8.74,-0.15,0.09,0.44
4586,0.30,0.84,8.82,-0.15,0.09,0.44
4591,0.30,0.84,8.82,-0.17,0.13,0.45
4596,0.30,0.84,8.82,-0.18,0.14,0.45
4602,0.54,0.54,12.53,-0.18,0.14,0.45
4606,0.54,0.54,12.53,-0.16,0.10,0.48
4611,0.54,0.54,12.53,-0.17,0.12,0.49
4617,0.54,0.54,12.53,-0.15,0.14,0.52
4621,0.54,0.54,12.53,-0.13,0.15,0.54
4626,0.54,0.54,12.53,-0.13,0.15,0.56
4631,0.54,0.54,12.53,-0.13,0.15,0.58
4637,0.54,0.54,12.53,-0.13,0.17,0.58
4641,0.54,0.54,12.53,-0.15,0.17,0.57
4646,0.54,0.54,12.53,-0.17,0.15,0.57
4651,0.54,0.54,12.53,-0.20,0.14,0.56
4657,-0.08,0.57,9.58,-0.20,0.14,0.56
4661,-0.08,0.57,9.58,-0.24,0.07,0.54
4667,-0.08,0.57,9.58,-0.25,0.09,0.51
4671,-0.08,0.57,9.58,-0.26,0.13,0.50
4676,-0.08,0.57,9.58,-0.25,0.18,0.49
4681,-0.08,0.57,9.58,-0.25,0.21,0.48
4686,-1.76,2.49,8.77,-0.25,0.21,0.48
4691,-1.76,2.49,8.77,-0.25,0.16,0.45
4696,-1.76,2.49,8.77,-0.28,0.16,0.42
4701,-1.76,2.49,8.77,-0.30,0.17,0.39
4706,-2.34,1.80,9.20,-0.30,0.17,0.39
4711,-2.34,1.80,9.20,-0.33,0.18,0.34
4716,-2.34,1.80,9.20,-0.35,0.14,0.32
4721,-1.11,2.87,11.60,-0.35,0.14,0.32
4726,-1.11,2.87,11.60,-0.37,0.16,0.27
4731,-1.11,2.87,11.60,-0.41,0.20,0.23
4736,-1.11,2.87,11.60,-0.44,0.21,0.18
4741,0.73,2.45,9.38,-0.44,0.21,0.18
4746,0.73,2.45,9.38,-0.45,0.17,0.11
4751,0.73,2.45,9.38,-0.49,0.23,0.08
4756,0.73,2.45,9.38,-0.51,0.25,0.02
4761,0.73,2.45,9.38,-0.52,0.20,-0.01
4766,0.73,2.45,9.38,-0.52,0.13,-0.04
4771,0.73,2.45,9.38,-0.54,0.12,-0.07
4776,0.00,3.22,9.96,-0.54,0.12,-0.07
4781,0.00,3.22,9.96,-0.57,0.19,-0.13
4786,0.00,3.22,9.96,-0.58,0.20,-0.16
4791,-0.19,1.88,10.15,-0.58,0.20,-0.16
4796,-0.19,1.88,10.15,-0.57,0.23,-0.21
4801,-0.19,1.88,10.15,-0.57,0.27,-0.23
4806,-0.19,1.88,10.15,-0.57,0.25,-0.24
4811,-0.19,1.88,10.15,-0.58,0.19,-0.26
4816,-0.19,1.88,10.15,-0.58,0.14,-0.29
4821,-0.19,1.88,10.15,-0.59,0.12,-0.33
4826,-0.34,1.49,7.85,-0.59,0.12,-0.33
4831,-0.34,1.49,7.85,-0.59,0.16,-0.35
4836,-0.34,1.49,7.85,-0.58,0.16,-0.34
4841,-0.34,1.49,7.85,-0.59,0.12,-0.35
4846,-0.34,1.49,7.85,-0.58,0.07,-0.37
4851,-0.34,1.49,7.85,-0.59,0.08,-0.38
4856,-0.34,1.49,7.85,-0.59,0.12,-0.40
4861,1.46,0.42,9.31,-0.59,0.12,-0.40
4866,1.46,0.42,9.31,-0.54,0.11,-0.37
4871,1.46,0.42,9.31,-0.52,0.12,-0.35
4876,1.46,0.42,9.31,-0.51,0.15,-0.33
4881,-1.72,0.38,10.39,-0.51,0.15,-0.33
4887,-1.72,0.38,10.39,-0.50,0.17,-0.33
4892,-1.72,0.38,10.39,-0.46,0.09,-0.31
4896,-1.72,0.38,10.39,-0.47,0.04,-0.30
4900,1.07,1.57,9.46,-0.47,0.04,-0.30
4906,1.07,1.57,9.46,-0.47,0.10,-0.31
4911,-0.11,1.53,8.32,-0.47,0.10,-0.31
4916,0.00,0.69,7.62,-0.47,0.10,-0.31
4921,0.00,0.69,7.62,-0.45,0.09,-0.27
4826,-0.34,1.49,7.85,-0.59,0.12,-0.33
4831,-0.34,1.49,7.85,-0.59,0.16,-0.35
4836,-0.34,1.49,7.85,-0.58,0.16,-0.34
4841,-0.34,1.49,7.85,-0.59,0.12,-0.35
4846,-0.34,1.49,7.85,-0.58,0.07,-0.37
4851,-0.34,1.49,7.85,-0.59,0.08,-0.38
4856,-0.34,1.49,7.85,-0.59,0.12,-0.40
4861,1.46,0.42,9.31,-0.59,0.12,-0.40
4866,1.46,0.42,9.31,-0.54,0.11,-0.37
4871,1.46,0.42,9.31,-0.52,0.12,-0.35
4876,1.46,0.42,9.31,-0.51,0.15,-0.33
4881,-1.72,0.38,10.39,-0.51,0.15,-0.33
4887,-1.72,0.38,10.39,-0.50,0.17,-0.33
4892,-1.72,0.38,10.39,-0.46,0.09,-0.31
4896,-1.72,0.38,10.39,-0.47,0.04,-0.30
4900,1.07,1.57,9.46,-0.47,0.04,-0.30
