timestamp,accX,accY,accZ,gyroX,gyroY,gyroZ
Straight
6,-3.22,0.27,8.36,0.04,0.06,0.07
18,-3.22,0.27,8.36,0.04,0.10,0.07
20,-1.15,0.08,9.50,0.04,0.10,0.07
21,0.04,-1.19,9.20,0.04,0.10,0.07
26,-0.46,-1.30,9.81,0.04,0.10,0.07
31,-0.46,-1.30,9.81,-0.04,-0.05,0.12
36,-0.46,-1.30,9.81,-0.03,-0.05,0.15
41,-0.46,-1.30,9.81,-0.04,-0.04,0.14
47,-0.46,-1.30,9.81,-0.06,-0.01,0.09
52,-0.04,-1.15,8.58,-0.06,-0.01,0.09
56,-0.04,-1.15,8.58,-0.07,0.01,0.09
61,-0.04,-1.15,8.58,-0.06,-0.01,0.08
67,0.65,-1.23,11.53,-0.06,-0.01,0.08
71,0.65,-1.23,11.53,-0.02,-0.02,0.04
76,0.65,-1.23,11.53,0.01,0.01,0.04
81,0.65,-1.23,11.53,-0.01,0.07,0.03
87,0.30,0.42,8.78,-0.01,0.07,0.03
92,0.30,0.42,8.78,-0.05,0.07,0.03
96,0.30,0.42,8.78,-0.06,0.05,0.01
102,0.77,-0.11,8.77,-0.06,0.05,0.01
106,0.77,-0.11,8.77,-0.07,-0.06,0.01
111,0.77,-0.11,8.77,-0.08,-0.13,0.02
117,0.77,-0.11,8.77,-0.08,-0.17,0.00
122,1.68,-0.61,10.96,-0.08,-0.17,0.00
126,1.68,-0.61,10.96,-0.06,-0.10,-0.10
131,1.68,-0.61,10.96,-0.04,-0.03,-0.11
137,0.80,-0.73,9.73,-0.04,-0.03,-0.11
141,0.80,-0.73,9.73,-0.04,0.08,-0.05
146,0.80,-0.73,9.73,-0.06,0.09,-0.09
152,0.80,-0.73,9.73,-0.08,0.07,-0.13
156,0.80,-0.73,9.73,-0.06,0.04,-0.13
161,0.80,-0.73,9.73,-0.06,-0.00,-0.11
166,0.80,-0.73,9.73,-0.06,-0.03,-0.09
172,0.77,-0.42,10.03,-0.06,-0.03,-0.09
176,0.77,-0.42,10.03,-0.03,-0.01,-0.14
181,0.77,-0.42,10.03,-0.02,0.05,-0.14
187,0.77,-0.42,10.03,-0.02,0.11,-0.11
191,0.77,-0.42,10.03,-0.02,0.11,-0.08
196,0.77,-0.42,10.03,-0.04,0.07,-0.10
202,0.77,-0.42,10.03,-0.08,0.01,-0.14
207,-0.57,-0.04,9.54,-0.08,0.01,-0.14
211,-0.57,-0.04,9.54,-0.08,-0.08,-0.17
216,-0.57,-0.04,9.54,-0.07,-0.09,-0.13
222,-1.30,0.04,10.00,-0.07,-0.09,-0.13
226,-1.30,0.04,10.00,-0.05,0.03,-0.18
232,-1.30,0.04,10.00,-0.06,0.10,-0.17
236,-1.30,0.04,10.00,-0.02,0.09,-0.11
242,-1.30,1.80,7.86,-0.02,0.09,-0.11
246,-1.30,1.80,7.86,-0.07,0.01,-0.11
251,-1.30,1.80,7.86,-0.08,-0.04,-0.11
257,-1.88,0.19,8.20,-0.08,-0.04,-0.11
261,-1.88,0.19,8.20,-0.09,-0.01,-0.10
266,-1.88,0.19,8.20,-0.09,0.00,-0.06
271,-1.88,0.19,8.20,-0.04,-0.03,0.03
277,-0.46,-0.38,11.45,-0.04,-0.03,0.03
281,-0.46,-0.38,11.45,-0.01,-0.10,0.04
286,-0.46,-0.38,11.45,-0.00,-0.13,0.04
292,-0.19,-0.46,11.34,-0.00,-0.13,0.04
296,-0.19,-0.46,11.34,0.01,-0.05,-0.02
301,-0.19,-0.46,11.34,0.02,0.02,-0.01
306,-0.19,-0.46,11.34,0.01,0.14,0.03
312,-0.80,-0.69,8.12,0.01,0.14,0.03
316,-0.80,-0.69,8.12,-0.05,0.14,0.06
321,-0.80,-0.69,8.12,-0.08,0.07,0.02
327,-1.15,-1.95,10.30,-0.08,0.07,0.02
331,-1.15,-1.95,10.30,-0.07,-0.01,-0.04
336,-1.15,-1.95,10.30,-0.04,-0.00,0.02
341,-1.15,-1.95,10.30,0.00,0.03,0.06
347,-2.07,-1.84,9.00,0.00,0.03,0.06
352,-2.07,-1.84,9.00,0.04,0.03,0.15
357,-2.07,-1.84,9.00,0.04,-0.04,0.19
362,-0.88,-0.57,9.12,0.04,-0.04,0.19
366,-0.88,-0.57,9.12,0.02,-0.10,0.13
371,-0.88,-0.57,9.12,0.05,-0.07,0.14
376,-0.88,-0.57,9.12,0.04,0.00,0.19
382,-1.38,-2.18,9.88,0.04,0.00,0.19
386,-1.38,-2.18,9.88,0.06,0.06,0.20
391,-1.38,-2.18,9.88,0.06,0.04,0.16
397,-1.11,-1.68,9.77,0.06,0.04,0.16
401,-1.11,-1.68,9.77,0.03,-0.06,0.18
406,-1.11,-1.68,9.77,0.03,-0.07,0.18
412,-1.11,-1.68,9.77,0.02,-0.04,0.15
416,-1.11,-1.68,9.77,0.00,-0.01,0.14
421,-1.11,-1.68,9.77,0.01,-0.01,0.17
426,-1.11,-1.68,9.77,0.02,0.00,0.17
432,-1.65,-2.14,9.30,0.02,0.00,0.17
436,-1.65,-2.14,9.30,0.05,-0.00,0.25
441,-1.65,-2.14,9.30,0.05,-0.02,0.26
447,-1.42,-1.61,10.07,0.05,-0.02,0.26
451,-1.42,-1.61,10.07,0.05,-0.02,0.18
456,-1.42,-1.61,10.07,0.08,-0.03,0.22
461,-1.42,-1.61,10.07,0.10,-0.04,0.25
466,-2.34,-0.84,8.82,0.10,-0.04,0.25
471,-2.34,-0.84,8.82,0.08,0.01,0.21
476,-2.34,-0.84,8.82,0.04,0.08,0.25
482,-2.57,-0.34,9.46,0.04,0.08,0.25
486,-2.57,-0.34,9.46,0.01,0.05,0.14
491,-2.57,-0.34,9.46,-0.01,-0.00,0.14
496,-2.57,-0.34,9.46,-0.05,-0.06,0.18
502,-1.11,1.88,7.59,-0.05,-0.06,0.18
506,-1.11,1.88,7.59,-0.02,0.01,-0.02
511,-1.11,1.88,7.59,-0.07,-0.02,0.01
517,-3.68,-1.76,10.11,-0.07,-0.02,0.01
521,-3.68,-1.76,10.11,-0.01,0.02,0.20
526,-3.68,-1.76,10.11,-0.05,-0.01,0.11
531,-3.68,-1.76,10.11,-0.03,-0.03,0.00
537,1.99,0.69,10.80,-0.03,-0.03,0.00
541,1.99,0.69,10.80,0.00,0.02,0.11
547,1.99,0.69,10.80,0.01,0.04,0.15
552,-0.88,1.80,9.77,0.01,0.04,0.15
556,-0.88,1.80,9.77,-0.07,0.12,0.01
561,-0.88,1.80,9.77,-0.08,0.12,0.02
566,-0.88,1.80,9.77,-0.10,0.05,0.06
571,2.26,1.72,9.27,-0.10,0.05,0.06
576,2.26,1.72,9.27,-0.12,-0.15,0.03
582,2.26,1.72,9.27,-0.15,-0.20,-0.05
587,1.76,-0.77,11.57,-0.15,-0.20,-0.05
591,1.76,-0.77,11.57,-0.15,-0.09,-0.14
596,1.76,-0.77,11.57,-0.13,0.02,-0.12
602,1.76,-0.77,11.57,-0.12,0.11,-0.10
606,1.76,-0.77,11.57,-0.15,0.15,-0.15
611,1.76,-0.77,11.57,-0.18,0.15,-0.22
617,1.76,-0.77,11.57,-0.21,0.11,-0.28
622,1.76,-0.77,11.57,-0.22,0.04,-0.30
626,1.76,-0.77,11.57,-0.22,-0.04,-0.32
631,1.76,-0.77,11.57,-0.21,-0.07,-0.34
636,-0.11,1.00,10.15,-0.21,-0.07,-0.34
642,0.88,0.46,10.91,-0.21,-0.07,-0.34
646,0.88,0.46,10.91,-0.21,0.11,-0.40
651,0.88,0.46,10.91,-0.21,0.13,-0.43
657,-0.77,1.72,9.08,-0.21,0.13,-0.43
661,-0.77,1.72,9.08,-0.26,0.09,-0.47
666,-0.77,1.72,9.08,-0.26,0.04,-0.48
672,0.65,0.77,10.54,-0.26,0.04,-0.48
676,0.65,0.77,10.54,-0.24,0.01,-0.60
681,0.65,0.77,10.54,-0.22,0.04,-0.58
686,0.65,0.77,10.54,-0.17,0.06,-0.55
692,-2.11,0.27,9.58,-0.17,0.06,-0.55
696,-2.11,0.27,9.58,-0.18,0.16,-0.69
701,-2.11,0.27,9.58,-0.18,0.17,-0.67
707,-3.33,1.49,6.63,-0.18,0.17,-0.67
711,-3.33,1.49,6.63,-0.23,0.11,-0.54
716,-3.33,1.49,6.63,-0.23,0.05,-0.51
721,-3.33,1.49,6.63,-0.27,0.00,-0.53
727,-1.23,-2.80,7.32,-0.27,0.00,-0.53
731,-1.23,-2.80,7.32,-0.19,-0.10,-0.39
737,-1.23,-2.80,7.32,-0.10,-0.15,-0.24
742,-1.23,-2.80,7.32,-0.04,-0.18,-0.14
746,-1.23,-2.80,7.32,0.02,-0.17,-0.14
751,-1.23,-2.80,7.32,0.05,-0.13,-0.17
756,-1.23,-2.80,7.32,0.10,-0.06,-0.19
762,-0.54,-2.76,11.30,0.10,-0.06,-0.19
766,-0.54,-2.76,11.30,0.17,0.21,-0.12
772,-0.54,-2.76,11.30,0.18,0.29,-0.10
777,-2.03,-0.04,7.59,0.18,0.29,-0.10
781,-2.03,-0.04,7.59,0.04,0.30,-0.18
786,-2.03,-0.04,7.59,-0.03,0.20,-0.24
792,-2.80,-0.27,8.54,-0.03,0.20,-0.24
796,-2.80,-0.27,8.54,-0.08,0.00,-0.35
801,-2.80,-0.27,8.54,-0.06,-0.04,-0.33
806,-2.80,-0.27,8.54,-0.04,-0.05,-0.29
812,-0.57,-0.46,8.88,-0.04,-0.05,-0.29
816,-0.57,-0.46,8.88,0.00,-0.08,-0.27
821,-0.57,-0.46,8.88,0.01,-0.10,-0.24
827,0.96,0.46,8.96,0.01,-0.10,-0.24
831,0.96,0.46,8.96,0.03,-0.08,-0.19
836,0.96,0.46,8.96,0.03,-0.01,-0.18
841,0.96,0.46,8.96,0.07,0.05,-0.16
847,-1.07,-0.04,10.19,0.07,0.05,-0.16
851,-1.07,-0.04,10.19,0.12,0.08,-0.11
856,-1.07,-0.04,10.19,0.11,0.04,-0.08
862,-1.07,-0.04,10.19,0.08,0.00,-0.09
866,-1.07,-0.04,10.19,0.06,-0.02,-0.10
871,-1.07,-0.04,10.19,0.04,-0.03,-0.11
876,-1.07,-0.04,10.19,0.04,-0.02,-0.10
882,-1.07,-0.04,10.19,0.03,0.01,-0.08
886,-1.07,-0.04,10.19,0.03,0.04,-0.07
891,-1.07,-0.04,10.19,0.04,0.03,-0.07
897,-2.22,-0.11,9.96,0.04,0.03,-0.07
901,-2.22,-0.11,9.96,0.02,0.00,-0.11
906,-2.22,-0.11,9.96,0.02,0.00,-0.10
912,-2.22,-0.11,9.96,0.03,0.00,-0.10
916,-2.22,-0.11,9.96,0.03,-0.00,-0.11
921,-2.22,-0.11,9.96,0.04,-0.01,-0.11
927,-2.22,-0.11,9.96,0.04,-0.00,-0.10
932,-2.57,1.42,8.66,0.04,-0.00,-0.10
936,-2.57,1.42,8.66,0.02,0.07,-0.13
941,-2.57,1.42,8.66,0.00,0.07,-0.14
947,-2.57,1.42,8.66,-0.00,0.05,-0.16
951,-2.57,1.42,8.66,-0.01,-0.01,-0.18
956,-2.57,1.42,8.66,-0.02,-0.06,-0.19
961,-2.57,1.42,8.66,-0.02,-0.06,-0.20
967,-0.50,0.00,8.92,-0.02,-0.06,-0.20
971,-0.50,0.00,8.92,-0.03,-0.01,-0.22
976,-0.50,0.00,8.92,-0.04,0.01,-0.25
982,-0.50,0.00,8.92,-0.04,0.02,-0.26
986,-0.50,0.00,8.92,-0.05,0.02,-0.25
991,-0.50,0.00,8.92,-0.05,0.00,-0.26
996,-0.50,0.00,8.92,-0.06,-0.01,-0.28
1002,-0.50,0.00,8.92,-0.05,-0.01,-0.27
1006,-0.50,0.00,8.92,-0.03,0.03,-0.25
1011,-0.50,0.00,8.92,-0.02,0.05,-0.22
1016,-0.50,0.00,8.92,-0.02,0.04,-0.21
1022,-0.19,0.50,9.34,-0.02,0.04,-0.21
1026,-0.19,0.50,9.34,-0.02,-0.03,-0.20
1031,-0.19,0.50,9.34,-0.03,-0.07,-0.18
1037,1.99,-0.73,9.61,-0.03,-0.07,-0.18
1041,1.99,-0.73,9.61,0.00,-0.10,-0.11
1046,1.99,-0.73,9.61,-0.00,-0.07,-0.10
1052,0.23,-0.04,10.46,-0.00,-0.07,-0.10
1056,0.23,-0.04,10.46,-0.00,0.05,-0.08
1061,0.23,-0.04,10.46,-0.01,0.07,-0.07
1066,0.23,-0.04,10.46,-0.01,0.07,-0.08
1071,-1.07,-1.30,9.42,-0.01,0.07,-0.08
1076,-1.07,-1.30,9.42,0.00,0.03,-0.05
1081,-1.07,-1.30,9.42,0.02,-0.00,-0.02
1087,-0.80,-1.53,10.03,0.02,-0.00,-0.02
1091,-0.80,-1.53,10.03,0.04,-0.03,0.01
1096,-0.80,-1.53,10.03,0.04,-0.06,0.00
1102,-0.80,-1.53,10.03,0.03,-0.07,0.01
1106,-0.80,-1.53,10.03,0.06,-0.07,0.00
1111,-0.80,-1.53,10.03,0.07,-0.03,0.00
1116,-0.80,-1.53,10.03,0.08,0.01,0.01
1122,-0.80,-1.53,10.03,0.08,0.03,0.02
1126,-0.38,-1.76,8.92,0.08,0.03,0.02
1131,-0.38,-1.76,8.92,0.09,-0.03,0.01
1137,-0.38,-1.76,8.92,0.10,-0.04,0.02
1141,0.23,-1.34,10.04,0.10,-0.04,0.02
1146,0.23,-1.34,10.04,0.10,-0.01,0.04
1151,0.23,-1.34,10.04,0.13,0.05,0.03
1157,-0.80,-1.53,9.16,0.13,0.05,0.03
1161,-0.80,-1.53,9.16,0.14,0.08,0.06
1166,-0.80,-1.53,9.16,0.14,0.01,0.07
1171,-0.80,-1.53,9.16,0.15,-0.04,0.08
1176,-0.80,-1.53,9.16,0.14,-0.06,0.08
1181,-0.80,-1.53,9.16,0.14,-0.02,0.08
1186,-0.80,-1.53,9.16,0.15,0.01,0.09
1192,0.04,0.08,8.66,0.15,0.01,0.09
1196,0.46,-0.84,10.53,0.15,0.01,0.09
1201,0.46,-0.84,10.53,0.08,-0.09,0.08
1207,0.46,-0.84,10.53,0.09,-0.11,0.08
1211,0.46,-0.84,10.53,0.08,-0.10,0.08
1216,0.46,-0.84,10.53,0.06,-0.06,0.09
1222,0.46,-0.84,10.53,0.09,-0.01,0.10
1226,0.46,-0.84,10.53,0.10,0.07,0.10
1231,0.46,-0.84,10.53,0.10,0.14,0.11
1236,0.46,-0.84,10.53,0.11,0.16,0.10
1241,0.46,-0.84,10.53,0.10,0.14,0.09
1246,0.46,-0.84,10.53,0.09,0.15,0.10
1251,0.46,-0.84,10.53,0.06,0.14,0.08
1256,0.46,-0.84,10.53,0.05,0.11,0.06
1262,0.46,-0.84,10.53,0.01,0.06,0.03
1266,0.46,-0.84,10.53,-0.02,0.00,0.01
1271,0.46,-0.84,10.53,-0.00,-0.10,0.01
1276,0.46,-0.84,10.53,0.01,-0.20,0.03
1282,1.76,-0.04,8.78,0.01,-0.20,0.03
1286,1.76,-0.04,8.78,-0.01,-0.23,0.03
1292,1.76,-0.04,8.78,0.02,-0.17,0.01
1296,1.76,-0.04,8.78,0.04,-0.04,-0.00
1301,-1.42,-1.27,10.15,0.04,-0.04,-0.00
1306,-1.42,-1.27,10.15,0.11,0.17,0.04
1312,-0.88,-0.38,10.77,0.11,0.17,0.04
1316,-0.88,-0.38,10.77,0.12,0.14,0.06
1321,-0.88,-0.38,10.77,0.10,0.04,0.05
1326,-0.88,-0.38,10.77,0.09,-0.05,0.05
1332,-0.88,-0.38,10.77,0.07,-0.12,0.04
1336,-1.76,-1.15,9.08,0.07,-0.12,0.04
1341,-0.65,-1.57,10.11,0.07,-0.12,0.04
1347,-0.84,-1.11,9.96,0.07,-0.12,0.04
1351,-0.84,-1.11,9.96,0.06,-0.01,0.04
1356,-0.84,-1.11,9.96,0.07,0.02,0.02
1361,-0.84,-1.11,9.96,0.07,0.01,0.04
1367,-0.84,-1.11,9.96,0.08,-0.01,0.06
1371,-0.23,-1.53,9.42,0.08,-0.01,0.06
1376,-0.23,-1.53,9.42,0.09,-0.04,0.07
1382,-0.23,-1.53,9.42,0.11,-0.02,0.08
1386,-2.61,-0.38,8.31,0.11,-0.02,0.08
1391,-3.83,-0.69,8.12,0.11,-0.02,0.08
1396,-3.83,-0.69,8.12,0.13,0.04,0.16
1401,-3.83,-0.69,8.12,0.11,0.03,0.17
1406,-3.83,-0.69,8.12,0.12,-0.02,0.18
1411,-3.83,-0.69,8.12,0.10,-0.10,0.17
1417,-3.83,-0.69,8.12,0.09,-0.16,0.15
1421,-0.42,-2.53,9.12,0.09,-0.16,0.15
1426,-0.42,-2.53,9.12,0.10,-0.14,0.17
1432,-0.42,-2.53,9.12,0.10,-0.05,0.15
1437,-0.42,-2.53,9.12,0.10,0.04,0.13
1441,-1.53,-1.00,8.50,0.10,0.04,0.13
1446,-1.53,-1.00,8.50,0.10,0.03,0.14
1452,-1.30,-2.49,10.57,0.10,0.03,0.14
1456,-1.30,-2.49,10.57,0.12,-0.06,0.15
1461,0.00,-2.22,10.07,0.12,-0.06,0.15
1466,0.00,-2.22,10.07,0.16,-0.15,0.15
1471,0.00,-2.22,10.07,0.15,-0.12,0.16
1476,0.00,-2.22,10.07,0.17,-0.07,0.18
1482,0.00,-2.22,10.07,0.17,-0.04,0.19
1486,0.00,-2.22,10.07,0.16,-0.02,0.18
1491,0.00,-2.22,10.07,0.19,-0.01,0.17
1496,0.00,-2.22,10.07,0.18,-0.04,0.19
1502,0.00,-2.22,10.07,0.16,-0.09,0.21
1507,0.00,-2.22,10.07,0.15,-0.13,0.19
1511,-0.57,-1.07,9.96,0.15,-0.13,0.19
1516,-1.15,-1.72,9.50,0.15,-0.13,0.19
1521,-3.10,-0.77,9.20,0.15,-0.13,0.19
1526,-3.10,-0.77,9.20,0.12,0.03,0.09
1532,-3.10,-0.77,9.20,0.11,0.01,0.10
1537,0.69,-0.73,9.23,0.11,0.01,0.10
1541,2.26,0.27,10.80,0.11,0.01,0.10
1546,2.72,-0.38,10.27,0.11,0.01,0.10
1551,2.91,-0.65,11.19,0.11,0.01,0.10
1556,2.91,-0.65,11.19,0.10,-0.07,0.03
1561,2.91,-0.65,11.19,0.10,0.00,-0.00
1566,2.91,-0.65,11.19,0.09,0.08,-0.02
1572,2.91,-0.65,11.19,0.10,0.10,-0.01
1576,-1.46,2.30,8.04,0.10,0.10,-0.01
1581,-0.88,2.07,7.73,0.10,0.10,-0.01
1587,-0.88,2.07,7.73,0.04,0.08,-0.05
1591,-0.88,2.07,7.73,0.01,0.02,-0.07
1596,-1.15,2.03,5.86,0.01,0.02,-0.07
1602,-1.15,2.03,5.86,-0.00,-0.08,-0.11
1607,-1.15,2.03,5.86,-0.03,-0.07,-0.08
1611,3.56,1.49,11.38,-0.03,-0.07,-0.08
1616,2.26,1.99,11.30,-0.03,-0.07,-0.08
1622,2.26,1.99,11.30,-0.05,-0.20,-0.12
1627,2.26,1.99,11.30,-0.05,-0.19,-0.19
1631,2.18,-1.80,13.41,-0.05,-0.19,-0.19
1636,-2.26,-1.04,11.80,-0.05,-0.19,-0.19
1642,-2.26,-1.04,11.80,0.01,0.19,-0.27
1646,0.19,1.07,10.80,0.01,0.19,-0.27
1651,-1.84,1.07,8.77,0.01,0.19,-0.27
1656,-1.15,2.03,10.65,0.01,0.19,-0.27
1662,1.34,1.30,9.84,0.01,0.19,-0.27
1666,0.50,-0.08,8.85,0.01,0.19,-0.27
1671,-0.30,-0.92,7.74,0.01,0.19,-0.27
1677,-0.30,-0.92,7.74,-0.03,0.02,-0.24
1681,-2.38,-0.77,6.51,-0.03,0.02,-0.24
1686,-2.22,-0.61,5.29,-0.03,0.02,-0.24
1691,-2.14,0.54,6.05,-0.03,0.02,-0.24
1697,-2.14,0.54,6.05,-0.00,0.04,-0.09
1701,-0.15,-0.57,8.16,-0.00,0.04,-0.09
1706,0.42,-0.77,8.62,-0.00,0.04,-0.09
1711,0.42,-0.77,8.62,-0.01,-0.16,-0.06
1716,0.42,-0.77,8.62,0.02,-0.17,-0.05
1721,0.42,-0.77,8.62,0.06,-0.12,-0.03
1727,-2.03,-1.46,10.57,0.06,-0.12,-0.03
1731,-2.95,-2.07,9.46,0.06,-0.12,-0.03
1736,-1.23,-1.38,9.54,0.06,-0.12,-0.03
1742,-1.23,-1.38,9.54,0.20,0.12,0.12
1747,-1.23,-1.38,9.54,0.18,0.04,0.14
1751,-0.42,-2.45,9.58,0.18,0.04,0.14
1756,0.73,-2.49,9.00,0.18,0.04,0.14
1762,0.73,-2.49,9.00,0.19,-0.12,0.23
1767,0.73,-2.49,9.00,0.18,-0.11,0.26
1771,-2.45,-1.46,10.80,0.18,-0.11,0.26
1776,-3.07,-1.00,9.69,0.18,-0.11,0.26
1781,-2.91,-1.49,10.03,0.18,-0.11,0.26
1786,-2.91,-1.49,10.03,0.18,0.11,0.29
1792,-2.91,-1.49,10.03,0.16,0.07,0.28
1796,-2.91,-1.49,10.03,0.15,-0.01,0.27
1801,-0.54,-2.34,8.77,0.15,-0.01,0.27
1806,-0.08,-1.99,9.38,0.15,-0.01,0.27
1811,-0.54,-1.46,9.04,0.15,-0.01,0.27
1816,-0.54,-1.46,9.04,0.15,-0.17,0.36
1821,-0.54,-1.46,9.04,0.14,-0.15,0.36
1827,-0.54,-1.46,9.04,0.16,-0.13,0.36
1832,-0.54,-1.46,9.04,0.16,-0.07,0.35
1836,2.03,-1.65,9.16,0.16,-0.07,0.35
1841,-0.57,-0.80,8.96,0.16,-0.07,0.35
1846,-3.83,0.50,9.58,0.16,-0.07,0.35
1851,-3.83,0.50,9.58,0.19,0.27,0.38
1856,-5.21,0.92,8.66,0.19,0.27,0.38
1861,-8.62,1.84,8.27,0.19,0.27,0.38
1866,-8.62,1.84,8.27,0.14,0.29,0.46
1871,-1.65,-0.08,8.62,0.14,0.29,0.46
1876,-3.07,-0.34,10.57,0.14,0.29,0.46
1881,-2.84,-0.04,7.47,0.14,0.29,0.46
1886,2.45,-0.30,8.35,0.14,0.29,0.46
1891,1.65,-0.30,8.20,0.14,0.29,0.46
1896,1.65,-0.30,8.20,0.02,-0.39,0.40
1901,1.65,-0.30,8.20,0.02,-0.33,0.35
1906,1.65,-0.30,8.20,0.00,-0.23,0.36
1911,1.65,-0.30,8.20,0.02,-0.13,0.39
1917,1.65,-0.30,8.20,0.01,-0.06,0.39
1922,1.65,-0.30,8.20,0.01,0.01,0.34
1926,1.65,-0.30,8.20,0.01,0.12,0.31
1931,-2.14,0.80,9.30,0.01,0.12,0.31
1936,-2.14,0.80,9.30,-0.01,0.11,0.31
1941,-0.11,0.42,9.23,-0.01,0.11,0.31
1946,-0.11,1.72,10.03,-0.01,0.11,0.31
1951,0.04,0.30,8.84,-0.01,0.11,0.31
1956,-0.27,1.53,9.12,-0.01,0.11,0.31
1961,-1.07,0.69,8.28,-0.01,0.11,0.31
1967,-1.07,0.69,8.28,-0.12,-0.02,0.08
1971,-1.07,0.69,8.28,-0.14,0.05,0.03
1976,-1.61,0.30,8.16,-0.14,0.05,0.03
1981,-0.80,0.69,9.30,-0.14,0.05,0.03
1986,0.19,0.54,9.27,-0.14,0.05,0.03
1991,0.30,1.53,9.89,-0.14,0.05,0.03
1996,1.07,1.34,10.15,-0.14,0.05,0.03
2001,1.19,0.11,11.15,-0.14,0.05,0.03
2006,1.19,0.11,11.15,-0.22,-0.11,-0.18
2011,1.30,0.19,10.39,-0.22,-0.11,-0.18
2016,0.96,1.49,9.34,-0.22,-0.11,-0.18
2022,0.96,1.49,9.34,-0.20,0.08,-0.20
2027,0.11,2.11,8.85,-0.20,0.08,-0.20
2031,0.11,2.11,8.85,-0.21,0.19,-0.25
2036,0.34,2.22,8.92,-0.21,0.19,-0.25
2042,-0.04,1.76,9.12,-0.21,0.19,-0.25
2046,0.61,1.38,8.85,-0.21,0.19,-0.25
2051,-0.34,1.27,9.12,-0.21,0.19,-0.25
2056,-0.34,1.27,9.12,-0.26,0.04,-0.29
2061,-0.34,1.27,9.12,-0.25,0.01,-0.27
2066,-0.15,0.96,10.35,-0.25,0.01,-0.27
2071,0.34,0.34,9.69,-0.25,0.01,-0.27
2076,2.14,0.30,9.96,-0.25,0.01,-0.27
2081,2.38,-0.46,9.08,-0.25,0.01,-0.27
2086,1.27,-0.27,8.04,-0.25,0.01,-0.27
2091,1.27,-0.27,8.04,-0.22,-0.04,-0.28
2096,1.23,0.19,8.32,-0.22,-0.04,-0.28
2101,0.69,0.42,8.66,-0.22,-0.04,-0.28
2106,-0.27,-0.38,9.35,-0.22,-0.04,-0.28
2111,0.34,0.42,12.18,-0.22,-0.04,-0.28
2116,0.88,-0.77,12.22,-0.22,-0.04,-0.28
2121,2.30,-1.80,12.61,-0.22,-0.04,-0.28
2126,2.30,-1.80,12.61,-0.21,-0.03,-0.28
2131,1.99,-1.38,10.27,-0.21,-0.03,-0.28
2136,1.38,-0.96,9.42,-0.21,-0.03,-0.28
2141,0.69,-1.76,8.23,-0.21,-0.03,-0.28
2146,1.46,-0.61,8.46,-0.21,-0.03,-0.28
2151,1.34,-0.88,9.27,-0.21,-0.03,-0.28
2156,0.61,-0.61,8.70,-0.21,-0.03,-0.28
2162,-0.92,-0.69,9.00,-0.21,-0.03,-0.28
2166,-2.07,-1.30,8.82,-0.21,-0.03,-0.28
2171,-2.07,-1.30,8.82,-0.07,0.18,-0.16
2176,-3.79,-0.38,7.39,-0.07,0.18,-0.16
2181,-3.79,-0.38,7.39,-0.06,0.17,-0.14
2186,-1.19,-0.11,7.86,-0.06,0.17,-0.14
2191,-0.11,0.50,6.79,-0.06,0.17,-0.14
2196,0.92,-0.54,9.00,-0.06,0.17,-0.14
2201,1.49,-1.07,9.12,-0.06,0.17,-0.14
2206,0.80,-1.11,10.73,-0.06,0.17,-0.14
2211,0.04,-0.73,9.54,-0.06,0.17,-0.14
2216,0.15,-1.53,10.73,-0.06,0.17,-0.14
2221,0.50,-0.61,11.68,-0.06,0.17,-0.14
2226,0.11,-0.42,12.11,-0.06,0.17,-0.14
2231,-2.61,0.19,11.04,-0.06,0.17,-0.14
2236,-1.65,-0.77,11.07,-0.06,0.17,-0.14
2241,-1.76,-0.11,10.23,-0.06,0.17,-0.14
2246,0.19,0.04,10.61,-0.06,0.17,-0.14
2251,-1.34,-0.04,10.45,-0.06,0.17,-0.14
2256,-1.34,-0.04,10.45,-0.05,0.07,-0.06
2261,-0.57,-0.57,9.23,-0.05,0.07,-0.06
2266,-1.00,-1.49,9.46,-0.05,0.07,-0.06
2271,-1.38,-0.50,9.50,-0.05,0.07,-0.06
2276,-1.88,-1.42,8.92,-0.05,0.07,-0.06
2282,-1.38,-0.84,8.89,-0.05,0.07,-0.06
2286,-0.11,-1.46,9.20,-0.05,0.07,-0.06
2291,-0.11,-1.46,9.20,-0.01,0.00,-0.09
2296,-0.11,-1.46,9.20,0.01,0.03,-0.08
2301,-1.53,0.00,7.85,0.01,0.03,-0.08
2306,-1.91,-0.80,8.74,0.01,0.03,-0.08
2311,-3.18,-0.38,7.93,0.01,0.03,-0.08
2316,-0.92,-1.23,8.74,0.01,0.03,-0.08
2321,0.42,-1.11,9.50,0.01,0.03,-0.08
2326,-1.11,-1.42,9.84,0.01,0.03,-0.08
2332,-0.38,-1.27,9.50,0.01,0.03,-0.08
2337,-1.00,-1.07,8.62,0.01,0.03,-0.08
2341,-1.00,-1.07,8.62,0.01,-0.02,-0.03
2346,-2.61,-1.11,8.39,0.01,-0.02,-0.03
2351,-2.11,-0.54,7.97,0.01,-0.02,-0.03
2356,-1.19,-1.88,9.85,0.01,-0.02,-0.03
2361,-1.30,-2.34,9.12,0.01,-0.02,-0.03
2366,-1.68,-2.72,10.73,0.01,-0.02,-0.03
2371,-0.61,-1.38,11.34,0.01,-0.02,-0.03
2376,-0.61,-1.38,11.34,0.08,-0.08,-0.06
2381,-1.46,-1.11,10.69,0.08,-0.08,-0.06
2386,-2.03,-1.46,10.27,0.08,-0.08,-0.06
2391,-1.38,-1.49,9.38,0.08,-0.08,-0.06
2397,-1.04,-1.72,8.31,0.08,-0.08,-0.06
2401,-0.96,-1.38,8.46,0.08,-0.08,-0.06
2406,-0.65,-1.88,8.01,0.08,-0.08,-0.06
2411,-0.19,-1.76,8.66,0.08,-0.08,-0.06
2416,-0.50,-1.46,8.58,0.08,-0.08,-0.06
2421,-0.08,-1.49,10.38,0.08,-0.08,-0.06
2426,-1.11,-1.30,9.23,0.08,-0.08,-0.06
2431,-1.11,-1.30,9.23,0.14,0.01,0.05
2436,-2.18,-1.65,8.58,0.14,0.01,0.05
2441,-1.88,-2.68,9.23,0.14,0.01,0.05
2446,-1.80,-2.03,9.35,0.14,0.01,0.05
2451,-1.68,-1.84,8.70,0.14,0.01,0.05
2456,-0.88,-2.03,9.46,0.14,0.01,0.05
2461,-0.77,-1.27,9.46,0.14,0.01,0.05
2466,0.57,-2.03,9.54,0.14,0.01,0.05
2471,0.61,-0.96,9.35,0.14,0.01,0.05
2476,0.57,-1.46,8.46,0.14,0.01,0.05
2481,0.92,-0.96,9.69,0.14,0.01,0.05
2487,0.54,-1.38,9.27,0.14,0.01,0.05
2491,-0.19,-1.68,9.42,0.14,0.01,0.05
2496,-0.19,-1.68,9.42,0.21,-0.03,0.29
2501,1.15,-1.27,10.35,0.21,-0.03,0.29
2506,0.54,-1.27,9.58,0.21,-0.03,0.29
2512,1.04,-1.15,10.31,0.21,-0.03,0.29
2516,1.04,-1.15,10.31,0.22,-0.11,0.36
2521,0.61,-2.38,10.11,0.22,-0.11,0.36
2526,0.61,-1.57,9.12,0.22,-0.11,0.36
2531,1.00,-1.19,9.96,0.22,-0.11,0.36
2536,2.38,-2.07,10.38,0.22,-0.11,0.36
2542,0.84,-1.68,9.58,0.22,-0.11,0.36
2547,-0.46,-0.96,8.78,0.22,-0.11,0.36
2551,-0.46,-0.96,8.78,0.19,-0.02,0.34
2556,-0.46,-0.96,8.78,0.18,-0.03,0.33
2561,-0.23,-0.54,10.31,0.18,-0.03,0.33
2566,-0.34,-0.88,10.99,0.18,-0.03,0.33
2572,1.30,-1.27,11.30,0.18,-0.03,0.33
2576,2.07,-1.65,11.80,0.18,-0.03,0.33
2581,1.49,-1.88,10.15,0.18,-0.03,0.33
2587,-0.46,-1.91,10.04,0.18,-0.03,0.33
2591,-0.69,-0.84,8.32,0.18,-0.03,0.33
2596,-0.08,-1.65,8.62,0.18,-0.03,0.33
2601,-0.15,-1.07,8.84,0.18,-0.03,0.33
2606,-0.23,0.04,9.00,0.18,-0.03,0.33
2611,-1.65,0.88,9.12,0.18,-0.03,0.33
2616,-2.68,-0.19,9.43,0.18,-0.03,0.33
2622,-2.61,-0.77,9.38,0.18,-0.03,0.33
2626,-2.49,0.11,7.51,0.18,-0.03,0.33
2631,-2.22,0.61,8.66,0.18,-0.03,0.33
2637,-0.61,1.23,6.97,0.18,-0.03,0.33
2641,0.92,1.61,7.62,0.18,-0.03,0.33
2646,0.61,1.42,7.86,0.18,-0.03,0.33
2651,-1.23,1.68,7.74,0.18,-0.03,0.33
2656,-1.23,1.68,7.74,0.00,-0.01,-0.08
2662,-0.54,1.84,9.73,0.00,-0.01,-0.08
2667,-1.11,1.11,9.42,0.00,-0.01,-0.08
2671,-1.11,1.11,9.42,0.03,0.09,-0.08
2677,-1.11,1.11,9.42,0.02,0.01,-0.07
2682,0.61,0.61,10.45,0.02,0.01,-0.07
2686,0.61,0.61,10.45,0.00,-0.09,-0.08
2691,0.61,0.61,10.45,-0.00,-0.09,-0.07
2696,0.65,0.04,10.49,-0.00,-0.09,-0.07
2702,-0.23,2.07,10.07,-0.00,-0.09,-0.07
2706,-0.23,2.07,10.07,-0.03,0.01,-0.09
2711,1.57,-0.46,13.67,-0.03,0.01,-0.09
2716,-0.38,-0.30,11.61,-0.03,0.01,-0.09
2722,-1.11,-0.77,10.91,-0.03,0.01,-0.09
2726,-1.11,-0.77,10.91,-0.00,0.08,-0.13
2731,-0.84,-0.65,10.39,-0.00,0.08,-0.13
2736,1.57,-0.04,10.80,-0.00,0.08,-0.13
2742,-0.34,0.65,9.27,-0.00,0.08,-0.13
2746,-0.69,0.73,6.89,-0.00,0.08,-0.13
2751,-0.88,0.57,7.55,-0.00,0.08,-0.13
2756,-1.46,0.54,7.05,-0.00,0.08,-0.13
2762,-2.57,1.38,6.59,-0.00,0.08,-0.13
2766,-2.30,0.54,8.12,-0.00,0.08,-0.13
2772,-1.23,1.30,8.93,-0.00,0.08,-0.13
2776,-1.23,1.30,8.93,-0.04,-0.01,0.01
2781,-0.19,-0.34,10.34,-0.04,-0.01,0.01
2786,0.08,-1.23,10.41,-0.04,-0.01,0.01
2791,0.23,-1.30,9.39,-0.04,-0.01,0.01
2796,0.23,-1.30,9.39,0.03,-0.13,0.16
2801,-0.27,-1.30,9.27,0.03,-0.13,0.16
2807,-0.23,-1.76,10.42,0.03,-0.13,0.16
2811,-0.23,-1.76,10.42,0.07,-0.04,0.21
2816,-0.23,-1.76,10.42,0.07,-0.03,0.23
2821,0.19,-0.84,12.02,0.07,-0.03,0.23
2827,-0.19,-0.80,12.06,0.07,-0.03,0.23
2831,-2.49,-1.04,9.38,0.07,-0.03,0.23
2836,-2.45,-1.19,9.23,0.07,-0.03,0.23
2842,-3.91,-0.30,8.93,0.07,-0.03,0.23
2846,-3.91,-0.30,8.93,0.05,0.05,0.26
2851,0.34,-0.11,7.86,0.05,0.05,0.26
2857,0.27,-0.57,9.08,0.05,0.05,0.26
2861,0.27,-0.57,9.08,-0.00,-0.20,0.24
2866,1.23,-1.46,9.96,-0.00,-0.20,0.24
2872,0.46,-0.69,9.16,-0.00,-0.20,0.24
2876,0.46,-0.69,9.16,0.01,-0.04,0.22
2881,0.46,-0.69,9.16,0.04,0.05,0.22
2886,-1.27,-0.84,10.65,0.04,0.05,0.22
2892,-0.27,-0.57,9.50,0.04,0.05,0.22
2896,-0.27,-0.57,9.50,-0.00,0.08,0.19
2901,-1.38,0.00,10.57,-0.00,0.08,0.19
2907,-0.80,-1.07,9.96,-0.00,0.08,0.19
2911,-0.80,-1.07,9.96,0.01,0.01,0.22
2916,-0.80,-1.07,9.96,0.03,0.00,0.25
2921,-1.04,0.42,8.66,0.03,0.00,0.25
2927,-1.57,1.27,8.32,0.03,0.00,0.25
2931,-1.57,1.27,8.32,-0.02,0.05,0.21
2936,-1.57,1.27,8.32,-0.02,0.04,0.20
2942,-4.48,1.99,7.51,-0.02,0.04,0.20
2946,-4.48,1.99,7.51,-0.07,0.13,0.15
2951,-4.48,1.99,7.51,-0.09,0.07,0.14
2956,0.19,1.68,9.12,-0.09,0.07,0.14
2962,-0.42,0.57,10.27,-0.09,0.07,0.14
2966,-0.42,0.57,10.27,-0.16,-0.22,0.09
2971,2.45,-0.54,11.34,-0.16,-0.22,0.09
2976,2.84,-0.23,11.07,-0.16,-0.22,0.09
2982,2.53,-1.00,10.73,-0.16,-0.22,0.09
2986,2.53,-1.00,10.73,-0.16,-0.10,0.07
2991,0.04,0.15,9.23,-0.16,-0.10,0.07
2996,-0.96,1.53,7.89,-0.16,-0.10,0.07
3002,-0.15,0.54,9.30,-0.16,-0.10,0.07
3006,-0.27,0.61,9.30,-0.16,-0.10,0.07
3011,-0.38,0.08,9.73,-0.16,-0.10,0.07
3016,-0.38,0.08,9.73,-0.19,0.05,-0.06
3021,-0.38,0.08,9.73,-0.20,-0.03,-0.08
3027,1.72,-0.46,11.03,-0.20,-0.03,-0.08
3031,1.72,-0.46,11.03,-0.20,-0.11,-0.08
3036,1.72,-0.46,11.03,-0.19,-0.11,-0.11
3041,0.92,-0.73,9.27,-0.19,-0.11,-0.11
3047,1.07,-0.46,8.77,-0.19,-0.11,-0.11
3051,1.07,-0.46,8.77,-0.17,0.09,-0.17
3056,1.07,-0.46,8.77,-0.18,0.12,-0.18
3062,0.69,-1.11,9.61,-0.18,0.12,-0.18
3066,0.69,-1.11,9.61,-0.18,0.07,-0.20
3071,0.69,-1.11,9.61,-0.19,0.01,-0.21
3076,0.69,-1.11,9.61,-0.17,-0.01,-0.21
3082,0.92,-0.65,10.15,-0.17,-0.01,-0.21
3086,0.92,-0.65,10.15,-0.14,0.08,-0.20
3091,-0.57,-0.88,8.70,-0.14,0.08,-0.20
3096,-1.23,0.46,8.74,-0.14,0.08,-0.20
3102,-0.61,0.42,9.34,-0.14,0.08,-0.20
3106,-0.61,0.42,9.34,-0.12,0.01,-0.17
3111,-0.15,0.00,10.23,-0.12,0.01,-0.17
3117,1.07,-0.19,10.27,-0.12,0.01,-0.17
3121,1.07,-0.19,10.27,-0.10,-0.04,-0.10
3126,1.49,-0.50,9.27,-0.10,-0.04,-0.10
3132,0.30,-0.08,9.38,-0.10,-0.04,-0.10
3136,0.30,-0.08,9.38,-0.05,0.04,0.01
3142,0.30,-0.08,9.38,-0.05,0.08,0.03
3148,-2.14,0.23,8.04,-0.05,0.08,0.03
3151,-2.14,0.23,8.04,-0.04,0.08,0.06
3156,-2.14,0.23,8.04,-0.05,0.02,0.09
3161,-0.23,-0.73,8.70,-0.05,0.02,0.09
3167,0.92,-1.00,8.66,-0.05,0.02,0.09
3171,0.92,-1.00,8.66,-0.07,-0.20,0.19
3176,0.92,-1.00,8.66,-0.06,-0.19,0.20
3183,1.53,-1.99,11.53,-0.06,-0.19,0.20
3186,1.53,-1.99,11.53,-0.03,-0.12,0.25
3191,1.53,-1.99,11.53,-0.01,-0.04,0.28
3196,1.53,-1.99,11.53,0.01,0.06,0.29
3202,-1.76,-1.04,11.41,0.01,0.06,0.29
3206,-1.76,-1.04,11.41,0.02,0.21,0.26
3211,-3.52,-0.61,8.66,0.02,0.21,0.26
3216,-2.87,0.23,7.66,0.02,0.21,0.26
3222,-0.80,-0.65,7.74,0.02,0.21,0.26
3226,-0.80,-0.65,7.74,-0.04,-0.01,0.24
3232,-0.42,-0.46,7.51,-0.04,-0.01,0.24
3237,-0.54,-0.42,8.46,-0.04,-0.01,0.24
3241,-0.54,-0.42,8.46,-0.11,-0.10,0.13
3246,-0.54,-0.42,8.46,-0.11,-0.02,0.10
3252,-4.33,-0.80,8.39,-0.11,-0.02,0.10
3257,-4.33,-0.80,8.39,-0.10,0.12,0.03
3261,-4.33,-0.80,8.39,-0.12,0.10,-0.00
3266,0.50,-0.69,9.69,-0.12,0.10,-0.00
3272,1.38,-1.65,10.57,-0.12,0.10,-0.00
3277,1.38,-1.65,10.57,-0.16,-0.20,-0.10
3281,1.38,-1.65,10.57,-0.15,-0.20,-0.09
3287,-0.30,-0.23,10.41,-0.15,-0.20,-0.09
3291,-0.30,-0.23,10.41,-0.10,0.00,-0.11
3297,-0.30,-0.23,10.41,-0.10,0.15,-0.14
3303,-3.03,-0.23,9.30,-0.10,0.15,-0.14
3306,-3.03,-0.23,9.30,-0.08,0.23,-0.16
3311,-3.03,-0.23,9.30,-0.09,0.15,-0.15
3316,-3.03,-0.23,9.30,-0.09,0.06,-0.16
3322,0.38,-0.19,8.62,-0.09,0.06,-0.16
3327,0.38,-0.19,8.62,-0.12,-0.07,-0.19
3331,0.38,-0.19,8.62,-0.14,-0.04,-0.22
3336,0.38,-0.19,8.62,-0.13,0.01,-0.26
3341,-2.03,0.11,10.11,-0.13,0.01,-0.26
3346,-2.03,0.11,10.11,-0.13,0.09,-0.28
3352,-3.52,-0.61,9.85,-0.13,0.09,-0.28
3357,-3.22,-0.80,8.54,-0.13,0.09,-0.28
3361,-3.22,-0.80,8.54,-0.12,0.01,-0.29
3366,-3.22,-0.80,8.54,-0.11,-0.08,-0.30
3372,1.53,-0.92,9.81,-0.11,-0.08,-0.30
3377,1.53,-0.92,9.81,-0.09,-0.15,-0.23
3381,1.53,-0.92,9.81,-0.07,-0.13,-0.21
3386,-1.00,-0.30,7.39,-0.07,-0.13,-0.21
3392,-2.41,-0.04,8.54,-0.07,-0.13,-0.21
3396,-2.41,-0.04,8.54,-0.02,0.22,-0.21
3402,-2.41,-0.04,8.54,0.01,0.28,-0.20
3407,-3.03,-0.30,9.85,0.01,0.28,-0.20
3411,-3.03,-0.30,9.85,0.00,0.19,-0.14
3417,-3.03,-0.30,9.85,-0.02,0.05,-0.14
3422,0.27,-0.46,10.39,-0.02,0.05,-0.14
3427,1.04,-1.07,11.00,-0.02,0.05,-0.14
3431,1.04,-1.07,11.00,-0.03,-0.25,-0.12
3436,1.04,-1.07,11.00,-0.02,-0.23,-0.10
3442,0.57,-1.34,9.73,-0.02,-0.23,-0.10
3447,0.57,-1.34,9.73,0.01,-0.05,-0.07
3451,0.57,-1.34,9.73,0.03,0.02,-0.06
3456,0.57,-1.34,9.73,0.04,0.05,-0.04
3462,-0.34,-0.73,7.17,0.04,0.05,-0.04
3466,-0.34,-0.73,7.17,0.04,-0.02,-0.03
3471,-0.34,-0.73,7.17,0.04,-0.11,-0.02
3476,-0.34,-0.73,7.17,0.03,-0.17,-0.02
3482,2.53,-1.04,12.72,0.03,-0.17,-0.02
3486,2.53,-1.04,12.72,0.03,-0.18,-0.02
3491,2.07,-1.27,11.68,0.03,-0.18,-0.02
3497,0.42,-1.42,10.07,0.03,-0.18,-0.02
3501,0.42,-1.42,10.07,0.08,0.08,-0.01
3506,0.42,-1.42,10.07,0.08,0.12,0.00
3512,0.77,-0.84,9.04,0.08,0.12,0.00
3516,0.77,-0.84,9.04,0.05,0.06,0.00
3521,0.77,-0.84,9.04,0.02,0.01,-0.03
3527,0.57,-1.19,10.15,0.02,0.01,-0.03
3531,0.57,-1.19,10.15,0.02,0.03,-0.02
3537,0.57,-1.19,10.15,0.04,0.08,0.00
3541,0.57,-1.19,10.15,0.05,0.11,0.01
3547,0.00,-0.57,8.36,0.05,0.11,0.01
3551,0.00,-0.57,8.36,0.05,0.02,0.03
3556,0.00,-0.57,8.36,0.03,-0.03,0.03
3562,-1.34,-0.27,8.58,0.03,-0.03,0.03
3566,-1.34,-0.27,8.58,0.02,-0.05,0.00
3571,-1.34,-0.27,8.58,0.03,-0.06,0.01
3576,-1.34,-0.27,8.58,0.04,-0.08,0.02
3582,0.27,-1.53,9.00,0.04,-0.08,0.02
3587,0.27,-1.53,9.00,0.05,-0.10,0.06
3591,0.27,-1.53,9.00,0.07,-0.07,0.07
3596,0.27,-1.53,9.00,0.08,-0.01,0.07
3602,-2.34,-0.50,10.23,0.08,-0.01,0.07
3606,-2.34,-0.50,10.23,0.08,0.08,0.07
3611,-2.34,-0.50,10.23,0.10,0.06,0.09
3618,0.30,-1.00,10.27,0.10,0.06,0.09
3621,0.30,-1.00,10.27,0.08,-0.06,0.11
3626,0.30,-1.00,10.27,0.09,-0.07,0.13
3632,-0.65,-0.84,8.42,0.09,-0.07,0.13
3636,-0.65,-0.84,8.42,0.09,-0.02,0.14
3641,-0.65,-0.84,8.42,0.08,-0.02,0.15
3646,-0.11,0.11,9.73,0.08,-0.02,0.15
3652,-1.57,-0.50,10.27,0.08,-0.02,0.15
3656,-1.57,-0.50,10.27,0.06,0.03,0.13
3661,-1.57,-0.50,10.27,0.07,0.04,0.13
3667,-1.57,-0.08,9.46,0.07,0.04,0.13
3671,-1.57,-0.08,9.46,0.07,0.02,0.13
3676,-1.57,-0.08,9.46,0.05,-0.01,0.12
3681,0.54,0.11,8.85,0.05,-0.01,0.12
3688,0.08,0.42,8.58,0.05,-0.01,0.12
3691,0.08,0.42,8.58,0.03,-0.08,0.09
3696,0.08,0.42,8.58,0.03,-0.02,0.10
3703,-1.46,-0.54,8.62,0.03,-0.02,0.10
3706,-1.46,-0.54,8.62,0.03,0.06,0.10
3712,-1.46,-0.54,8.62,0.01,0.05,0.06
3717,-1.46,-0.54,8.62,0.01,0.02,0.04
3721,-1.46,-0.54,8.62,-0.01,-0.02,0.03
3727,-1.46,-0.54,8.62,-0.00,-0.07,0.04
3731,-1.46,-0.54,8.62,0.02,-0.11,0.04
3738,-0.92,0.69,9.88,0.02,-0.11,0.04
3741,-0.92,0.69,9.88,0.03,-0.03,0.04
3746,-0.92,0.69,9.88,0.01,0.04,0.03
3752,-0.42,1.30,9.08,0.01,0.04,0.03
3756,-0.42,1.30,9.08,-0.03,0.03,-0.04
3761,-0.42,1.30,9.08,-0.04,0.00,-0.05
3766,-0.42,1.30,9.08,-0.03,-0.02,-0.04
3772,1.42,-0.38,10.11,-0.03,-0.02,-0.04
3776,1.42,-0.38,10.11,-0.04,-0.06,-0.03
3781,1.42,-0.38,10.11,-0.04,-0.02,-0.04
3787,-0.80,0.30,10.39,-0.04,-0.02,-0.04
3791,-0.80,0.30,10.39,-0.06,0.13,-0.08
3796,-0.80,0.30,10.39,-0.03,0.16,-0.08
3801,-2.49,0.42,9.30,-0.03,0.16,-0.08
3807,-2.87,0.42,8.01,-0.03,0.16,-0.08
3811,-2.87,0.42,8.01,-0.06,0.11,-0.08
3816,-2.87,0.42,8.01,-0.07,0.05,-0.08
3822,-0.19,0.15,9.00,-0.07,0.05,-0.08
3826,-0.19,0.15,9.00,-0.08,-0.12,-0.07
3832,-0.19,0.15,9.00,-0.08,-0.11,-0.06
3838,-0.19,0.15,9.00,-0.10,-0.08,-0.08
3841,-0.19,0.15,9.00,-0.11,-0.03,-0.10
3846,-0.19,0.15,9.00,-0.11,0.00,-0.12
3851,-0.19,0.15,9.00,-0.10,0.03,-0.14
3857,-0.19,0.19,10.53,-0.10,0.03,-0.14
3861,-0.19,0.19,10.53,-0.12,0.02,-0.17
3866,-0.19,0.19,10.53,-0.11,0.01,-0.17
3871,-2.22,0.57,8.96,-0.11,0.01,-0.17
3878,-1.80,-0.42,9.16,-0.11,0.01,-0.17
3882,-1.80,-0.42,9.16,-0.09,0.12,-0.20
3886,-1.80,-0.42,9.16,-0.11,0.09,-0.18
3892,-1.19,0.00,8.70,-0.11,0.09,-0.18
3896,-1.19,0.00,8.70,-0.11,-0.03,-0.20
3901,-1.19,0.00,8.70,-0.12,-0.08,-0.22
3907,-1.11,0.34,7.62,-0.12,-0.08,-0.22
3911,-1.11,0.34,7.62,-0.11,-0.07,-0.22
3916,-1.11,0.34,7.62,-0.12,-0.04,-0.22
3921,-1.11,0.34,7.62,-0.11,-0.05,-0.23
3927,1.61,-0.46,11.38,-0.11,-0.05,-0.23
3931,1.61,-0.46,11.38,-0.12,-0.17,-0.23
3936,1.61,-0.46,11.38,-0.10,-0.19,-0.24
3942,2.76,-1.61,12.22,-0.10,-0.19,-0.24
3946,2.76,-1.61,12.22,-0.06,-0.03,-0.25
3951,2.76,-1.61,12.22,-0.05,0.12,-0.24
3956,2.76,-1.61,12.22,-0.03,0.20,-0.23
3962,1.27,-0.92,9.81,-0.03,0.20,-0.23
3966,1.27,-0.92,9.81,-0.04,0.13,-0.23
3971,1.27,-0.92,9.81,-0.06,0.05,-0.23
3976,1.27,-0.92,9.81,-0.07,0.02,-0.24
3983,-2.18,-0.96,9.31,-0.07,0.02,-0.24
3987,-2.18,-0.96,9.31,-0.06,0.14,-0.26
3991,-1.76,-1.11,8.70,-0.06,0.14,-0.26
3997,-1.23,-1.65,7.97,-0.06,0.14,-0.26
4001,-1.23,-1.65,7.97,0.02,0.03,-0.19
4006,-1.23,-1.65,7.97,0.01,-0.06,-0.17
4012,1.04,-1.07,7.28,0.01,-0.06,-0.17
4016,1.04,-1.07,7.28,0.02,-0.21,-0.16
4021,1.04,-1.07,7.28,0.01,-0.23,-0.15
4026,1.88,-3.22,8.93,0.01,-0.23,-0.15
4032,2.80,-3.41,10.96,0.01,-0.23,-0.15
4036,2.80,-3.41,10.96,0.10,-0.20,-0.04
4041,2.80,-3.41,10.96,0.12,-0.13,-0.00
4046,-0.61,-1.68,10.19,0.12,-0.13,-0.00
4051,-0.61,-1.68,10.19,0.13,0.06,-0.00
4056,-0.61,-1.68,10.19,0.15,0.10,0.01
4061,-0.30,-2.26,10.57,0.15,0.10,0.01
4067,0.73,-3.03,10.80,0.15,0.10,0.01
4071,0.73,-3.03,10.80,0.16,0.03,0.13
4076,0.73,-3.03,10.80,0.18,0.02,0.17
4082,-1.49,-1.68,9.16,0.18,0.02,0.17
4086,-1.49,-1.68,9.16,0.18,0.07,0.18
4091,-1.49,-1.68,9.16,0.18,0.08,0.21
4097,-1.49,-1.68,9.16,0.19,0.04,0.25
4101,-1.49,-1.68,9.16,0.19,-0.02,0.30
4106,-1.49,-1.68,9.16,0.21,-0.08,0.34
4111,-1.49,-1.68,9.16,0.20,-0.10,0.35
4117,-0.57,-0.46,8.23,0.20,-0.10,0.35
4121,-0.57,-0.46,8.23,0.21,-0.08,0.38
4126,-0.57,-0.46,8.23,0.18,-0.05,0.39
4132,-0.57,-0.46,8.23,0.20,-0.04,0.38
4136,-0.57,-0.46,8.23,0.18,-0.04,0.38
4141,-0.57,-0.46,8.23,0.18,-0.04,0.37
4146,-0.57,-0.46,8.23,0.18,-0.02,0.38
4152,-3.48,-1.04,8.85,0.18,-0.02,0.38
4156,-3.48,-1.04,8.85,0.16,0.01,0.34
4161,-3.48,-1.04,8.85,0.14,-0.03,0.32
4166,-3.48,-1.04,8.85,0.12,-0.09,0.30
4171,-3.48,-1.04,8.85,0.11,-0.14,0.28
4176,-3.48,-1.04,8.85,0.10,-0.13,0.27
4181,-3.48,-1.04,8.85,0.12,-0.09,0.28
4187,-1.00,-0.46,9.77,0.12,-0.09,0.28
4191,-1.00,-0.46,9.77,0.14,0.05,0.29
4196,-1.00,-0.46,9.77,0.13,0.11,0.28
4202,-1.00,-0.46,9.77,0.13,0.11,0.26
4206,-1.00,-0.46,9.77,0.12,0.05,0.25
4211,-1.00,-0.46,9.77,0.09,-0.06,0.25
4216,-1.00,-0.46,9.77,0.10,-0.15,0.25
4222,0.30,-0.65,8.70,0.10,-0.15,0.25
4226,0.30,-0.65,8.70,0.08,-0.17,0.25
4231,0.30,-0.65,8.70,0.07,-0.11,0.22
4237,-0.88,0.50,8.78,0.07,-0.11,0.22
4241,-0.88,0.50,8.78,0.04,-0.00,0.15
4246,-0.88,0.50,8.78,0.04,0.00,0.14
4251,-0.88,0.50,8.78,0.03,-0.01,0.15
4257,-1.19,-0.30,10.19,0.03,-0.01,0.15
4261,-1.19,-0.30,10.19,0.03,-0.01,0.11
4266,-1.19,-0.30,10.19,0.02,-0.02,0.10
4272,-0.77,-0.38,10.92,0.02,-0.02,0.10
4276,-0.77,-0.38,10.92,0.02,-0.01,0.11
4281,-0.77,-0.38,10.92,0.02,0.02,0.10
4287,-0.77,-0.38,10.92,0.02,0.03,0.09
4291,-0.77,-0.38,10.92,0.03,0.03,0.09
4296,-0.77,-0.38,10.92,0.03,0.04,0.10
4301,-0.77,-0.38,10.92,0.05,0.04,0.10
4306,-1.38,-0.65,8.92,0.05,0.04,0.10
4311,-1.38,-0.65,8.92,0.01,-0.04,0.07
4316,-1.38,-0.65,8.92,0.01,-0.08,0.06
4322,-1.38,-0.65,8.92,0.01,-0.10,0.07
4326,-1.38,-0.65,8.92,0.01,-0.10,0.09
4331,-1.38,-0.65,8.92,0.01,-0.06,0.10
4336,-1.38,-0.65,8.92,0.02,-0.02,0.10
4342,-0.80,-0.77,9.69,0.02,-0.02,0.10
4346,-0.80,-0.77,9.69,0.05,0.01,0.12
4351,-0.80,-0.77,9.69,0.04,-0.00,0.13
4357,-0.80,-0.77,9.69,0.04,-0.00,0.12
4361,-0.80,-0.77,9.69,0.04,0.01,0.12
4366,-0.80,-0.77,9.69,0.05,-0.01,0.12
4371,-0.80,-0.77,9.69,0.05,-0.04,0.12
4377,1.04,-1.61,11.46,0.05,-0.04,0.12
4381,1.04,-1.61,11.46,0.05,-0.13,0.16
4386,1.04,-1.61,11.46,0.05,-0.14,0.16
4392,1.04,-1.61,11.46,0.04,-0.10,0.15
4396,1.04,-1.61,11.46,0.04,-0.04,0.13
4401,1.04,-1.61,11.46,0.05,0.04,0.15
4406,1.04,-1.61,11.46,0.05,0.07,0.16
4412,1.27,-0.57,9.65,0.05,0.07,0.16
4416,1.27,-0.57,9.65,0.06,0.04,0.19
4421,1.27,-0.57,9.65,0.05,0.04,0.18
4426,1.27,-0.57,9.65,0.04,0.06,0.16
4432,1.27,-0.57,9.65,0.05,0.09,0.15
4436,1.27,-0.57,9.65,0.04,0.10,0.15
4442,1.27,-0.57,9.65,0.05,0.05,0.16
4446,1.27,-0.57,9.65,0.04,-0.05,0.18
4451,1.27,-0.57,9.65,0.03,-0.13,0.19
4456,1.27,-0.57,9.65,0.01,-0.18,0.17
4462,1.04,-0.23,9.34,0.01,-0.18,0.17
4466,1.04,-0.23,9.34,0.01,-0.04,0.13
4471,1.04,-0.23,9.34,-0.00,0.08,0.12
4476,1.04,-0.23,9.34,0.00,0.12,0.12
4481,1.04,-0.23,9.34,-0.00,0.09,0.12
4486,1.04,-0.23,9.34,-0.01,0.05,0.11
4491,1.04,-0.23,9.34,-0.03,0.03,0.08
4497,-1.46,0.65,10.45,-0.03,0.03,0.08
4501,-1.46,0.65,10.45,-0.04,0.01,0.04
4506,-1.46,0.65,10.45,-0.04,0.00,0.04
4511,-1.46,0.65,10.45,-0.06,-0.02,0.03
4516,-1.46,0.65,10.45,-0.06,-0.06,0.02
4521,-1.46,0.65,10.45,-0.08,-0.07,-0.00
4526,-1.46,0.65,10.45,-0.07,-0.04,-0.02
4532,0.69,-0.08,10.31,-0.07,-0.04,-0.02
4536,0.69,-0.08,10.31,-0.07,0.08,-0.03
4541,0.69,-0.08,10.31,-0.08,0.11,-0.06
4546,0.69,-0.08,10.31,-0.09,0.12,-0.09
4551,0.69,-0.08,10.31,-0.09,0.13,-0.12
4556,0.69,-0.08,10.31,-0.09,0.14,-0.11
4561,0.69,-0.08,10.31,-0.08,0.14,-0.09
4567,-0.61,1.30,9.46,-0.08,0.14,-0.09
4571,-0.61,1.30,9.46,-0.11,0.04,-0.09
4576,-0.61,1.30,9.46,-0.13,-0.04,-0.11
4582,-0.61,1.30,9.46,-0.14,-0.09,-0.14
4586,-0.61,1.30,9.46,-0.14,-0.08,-0.14
4591,-0.61,1.30,9.46,-0.13,-0.02,-0.13
4596,-0.61,1.30,9.46,-0.12,0.04,-0.10
4602,-0.54,0.38,8.62,-0.12,0.04,-0.10
4606,-0.54,0.38,8.62,-0.13,0.01,-0.11
4611,-0.54,0.38,8.62,-0.13,-0.07,-0.12
4616,-0.54,0.38,8.62,-0.13,-0.12,-0.11
4621,-0.54,0.38,8.62,-0.13,-0.13,-0.10
4626,-0.54,0.38,8.62,-0.08,-0.08,-0.07
4631,-0.54,0.38,8.62,-0.06,0.05,-0.04
4637,-2.14,0.19,10.03,-0.06,0.05,-0.04
4641,-2.14,0.19,10.03,-0.04,0.21,-0.03
4647,-2.14,0.19,10.03,-0.04,0.17,-0.03
4651,-2.14,0.19,10.03,-0.06,0.10,-0.04
4656,-2.14,0.19,10.03,-0.07,0.00,-0.06
4661,-2.14,0.19,10.03,-0.08,-0.08,-0.04
4666,-2.14,0.19,10.03,-0.06,-0.09,-0.01
4671,-2.14,0.19,10.03,-0.08,-0.04,0.00
4676,-2.14,0.19,10.03,-0.08,0.03,-0.03
4681,-2.14,0.19,10.03,-0.09,0.07,-0.06
4687,-2.14,0.19,10.03,-0.09,0.08,-0.06
4691,-2.14,0.19,10.03,-0.11,0.05,-0.05
4696,-2.14,0.19,10.03,-0.12,0.02,-0.06
4701,-2.14,0.19,10.03,-0.13,-0.03,-0.07
4706,-2.14,0.19,10.03,-0.12,-0.06,-0.07
4711,-2.14,0.19,10.03,-0.11,-0.08,-0.05
4716,-2.14,0.19,10.03,-0.12,-0.10,-0.04
4722,-0.69,-0.15,8.88,-0.12,-0.10,-0.04
4726,-0.69,-0.15,8.88,-0.09,-0.06,-0.01
4731,-0.69,-0.15,8.88,-0.08,0.01,0.00
4737,-0.69,-0.15,8.88,-0.09,0.09,-0.01
4741,-0.69,-0.15,8.88,-0.07,0.13,-0.02
4746,-0.69,-0.15,8.88,-0.08,0.12,-0.03
4751,-0.69,-0.15,8.88,-0.09,0.06,-0.03
4757,1.46,-1.04,10.23,-0.09,0.06,-0.03
4761,1.46,-1.04,10.23,-0.09,-0.12,-0.02
4767,1.46,-1.04,10.23,-0.09,-0.12,-0.02
4771,1.46,-1.04,10.23,-0.10,-0.07,-0.03
4776,1.46,-1.04,10.23,-0.09,-0.01,-0.03
4781,1.46,-1.04,10.23,-0.11,0.03,-0.04
4786,1.46,-1.04,10.23,-0.12,0.06,-0.05
4792,-2.84,0.84,8.23,-0.12,0.06,-0.05
4796,-2.84,0.84,8.23,-0.11,0.12,-0.08
4801,-2.84,0.84,8.23,-0.12,0.10,-0.08
4806,-2.84,0.84,8.23,-0.14,0.05,-0.08
4811,-2.84,0.84,8.23,-0.14,-0.02,-0.10
4816,-2.84,0.84,8.23,-0.14,-0.10,-0.10
4821,-2.84,0.84,8.23,-0.14,-0.14,-0.08
4827,1.15,-0.69,11.26,-0.14,-0.14,-0.08
4831,1.15,-0.69,11.26,-0.10,-0.08,-0.07
4836,1.15,-0.69,11.26,-0.11,0.08,-0.08
4841,1.15,-0.69,11.26,-0.10,0.16,-0.09
4847,-0.34,-0.34,8.78,-0.10,0.16,-0.09
4851,-0.34,-0.34,8.78,-0.08,0.08,-0.07
4856,-0.34,-0.34,8.78,-0.08,0.00,-0.04
4862,1.19,-0.30,9.27,-0.08,0.00,-0.04
4866,1.19,-0.30,9.27,-0.09,-0.05,-0.07
4871,1.19,-0.30,9.27,-0.08,0.01,-0.09
4877,1.19,-0.30,9.27,-0.07,0.08,-0.10
4882,1.19,-0.30,9.27,-0.07,0.13,-0.09
4886,1.19,-0.30,9.27,-0.08,0.11,-0.08
4891,1.19,-0.30,9.27,-0.07,0.04,-0.08
4897,1.07,-0.50,8.58,-0.07,0.04,-0.08
4901,1.07,-0.50,8.58,-0.08,-0.15,-0.09
4906,1.07,-0.50,8.58,-0.09,-0.19,-0.09
4911,1.07,-0.50,8.58,-0.07,-0.17,-0.07
4917,2.57,-1.72,8.16,-0.07,-0.17,-0.07
4921,2.57,-1.72,8.16,-0.04,0.04,-0.05
4926,2.57,-1.72,8.16,-0.05,0.12,-0.04
4831,1.15,-0.69,11.26,-0.10,-0.08,-0.07
4836,1.15,-0.69,11.26,-0.11,0.08,-0.08
4841,1.15,-0.69,11.26,-0.10,0.16,-0.09
4847,-0.34,-0.34,8.78,-0.10,0.16,-0.09
4851,-0.34,-0.34,8.78,-0.08,0.08,-0.07
4856,-0.34,-0.34,8.78,-0.08,0.00,-0.04
4862,1.19,-0.30,9.27,-0.08,0.00,-0.04
4866,1.19,-0.30,9.27,-0.09,-0.05,-0.07
4871,1.19,-0.30,9.27,-0.08,0.01,-0.09
4877,1.19,-0.30,9.27,-0.07,0.08,-0.10
4882,1.19,-0.30,9.27,-0.07,0.13,-0.09
4886,1.19,-0.30,9.27,-0.08,0.11,-0.08
4891,1.19,-0.30,9.27,-0.07,0.04,-0.08
4897,1.07,-0.50,8.58,-0.07,0.04,-0.08
4901,1.07,-0.50,8.58,-0.08,-0.15,-0.09
