timestamp,accX,accY,accZ,gyroX,gyroY,gyroZ
Straight
7,0.11,-2.91,12.91,-0.15,-0.08,0.20
19,0.11,-2.91,12.91,-0.16,-0.05,0.13
21,0.11,-2.91,12.91,-0.07,0.03,-0.07
22,1.76,0.73,9.12,-0.07,0.03,-0.07
26,1.76,0.73,9.12,-0.14,-0.01,-0.14
31,2.18,0.80,8.92,-0.14,-0.01,-0.14
36,2.18,0.80,8.92,-0.13,0.02,-0.16
42,2.18,0.80,8.92,-0.13,0.04,-0.18
46,2.18,0.80,8.92,-0.12,0.03,-0.18
51,2.18,0.80,8.92,-0.13,0.02,-0.18
56,2.18,0.80,8.92,-0.15,0.03,-0.23
62,1.34,-0.04,10.41,-0.15,0.03,-0.23
66,1.34,-0.04,10.41,-0.17,0.03,-0.29
71,1.34,-0.04,10.41,-0.16,0.06,-0.32
77,1.34,-0.04,10.41,-0.18,0.07,-0.31
81,1.34,-0.04,10.41,-0.17,0.01,-0.32
86,1.34,-0.04,10.41,-0.19,0.03,-0.34
92,1.34,-0.04,10.41,-0.19,0.06,-0.35
97,1.65,-0.27,10.69,-0.19,0.06,-0.35
101,1.65,-0.27,10.69,-0.15,0.03,-0.35
106,1.65,-0.27,10.69,-0.13,0.09,-0.36
112,1.65,-0.27,10.69,-0.11,0.08,-0.37
116,1.65,-0.27,10.69,-0.11,0.03,-0.34
121,1.65,-0.27,10.69,-0.09,0.04,-0.32
126,1.65,-0.27,10.69,-0.11,0.06,-0.32
132,1.65,-0.27,10.69,-0.14,0.07,-0.33
136,1.65,-0.27,10.69,-0.16,0.02,-0.35
142,1.65,-0.27,10.69,-0.17,0.00,-0.37
147,1.65,-0.27,10.69,-0.17,0.09,-0.37
151,1.65,-0.27,10.69,-0.16,0.07,-0.34
156,1.65,-0.27,10.69,-0.14,-0.02,-0.29
161,1.65,-0.27,10.69,-0.13,0.04,-0.29
167,-1.88,0.73,9.46,-0.13,0.04,-0.29
171,-1.88,0.73,9.46,-0.12,-0.01,-0.24
176,-1.88,0.73,9.46,-0.13,-0.06,-0.23
182,2.76,0.23,11.88,-0.13,-0.06,-0.23
186,2.76,0.23,11.88,-0.21,0.04,-0.27
191,2.76,0.23,11.88,-0.22,0.17,-0.45
197,2.76,0.23,11.88,-0.16,0.17,-0.52
202,2.76,0.23,11.88,-0.07,-0.07,-0.35
206,2.76,0.23,11.88,0.05,-0.04,-0.20
212,2.76,0.23,11.88,-0.09,0.16,-0.26
217,2.76,0.23,11.88,-0.14,0.09,-0.27
221,-2.53,0.96,8.96,-0.14,0.09,-0.27
226,-2.53,0.96,8.96,-0.12,-0.04,-0.37
232,-2.53,0.96,8.96,-0.11,0.03,-0.24
236,-2.53,0.96,8.96,-0.06,0.04,-0.19
242,-2.53,0.96,8.96,-0.09,0.04,-0.28
246,-2.53,0.96,8.96,-0.08,0.02,-0.29
252,-2.53,0.96,8.96,-0.04,0.05,-0.21
256,-2.53,0.96,8.96,0.00,0.02,-0.17
262,-2.53,0.96,8.96,0.01,-0.04,-0.16
266,-2.53,0.96,8.96,-0.02,0.02,-0.21
272,-2.53,0.96,8.96,-0.04,0.03,-0.24
276,-2.53,0.96,8.96,-0.02,-0.05,-0.23
282,-2.53,0.96,8.96,0.02,-0.03,-0.20
287,-2.53,0.96,8.96,0.04,0.07,-0.19
291,-2.38,0.23,7.70,0.04,0.07,-0.19
296,-2.38,0.23,7.70,0.02,-0.06,-0.15
302,-2.38,0.23,7.70,0.00,-0.05,-0.15
306,-2.38,0.23,7.70,-0.00,0.01,-0.16
311,-2.38,0.23,7.70,0.02,-0.02,-0.15
316,-2.38,0.23,7.70,0.04,-0.02,-0.15
322,-0.92,-0.88,10.19,0.04,-0.02,-0.15
326,-1.61,-1.46,9.04,0.04,-0.02,-0.15
331,-1.61,-1.46,9.04,0.08,-0.03,-0.11
337,-1.61,-1.46,9.04,0.10,-0.04,-0.10
342,-1.61,-1.46,9.04,0.11,0.05,-0.12
346,-2.41,-1.42,8.20,0.11,0.05,-0.12
351,-2.41,-1.42,8.20,0.10,-0.05,-0.07
357,-2.03,0.23,7.47,0.10,-0.05,-0.07
361,-2.03,0.23,7.47,0.04,0.04,-0.09
366,-2.03,0.23,7.47,0.01,-0.02,-0.06
372,-2.03,0.23,7.47,0.02,-0.11,-0.02
376,-2.03,0.23,7.47,0.04,-0.06,0.01
381,-2.03,0.23,7.47,0.08,-0.02,0.06
386,-2.03,0.23,7.47,0.11,-0.08,0.13
392,-2.03,0.23,7.47,0.14,-0.08,0.15
396,-2.03,0.23,7.47,0.16,0.00,0.16
401,-2.03,0.23,7.47,0.18,-0.00,0.16
406,-2.03,0.23,7.47,0.20,-0.05,0.20
412,-2.95,-3.10,8.08,0.20,-0.05,0.20
416,-2.95,-3.10,8.08,0.25,-0.02,0.28
422,-2.95,-3.10,8.08,0.24,-0.07,0.30
427,-2.95,-3.10,8.08,0.22,-0.10,0.30
431,-2.95,-3.10,8.08,0.19,-0.05,0.27
437,-2.95,-3.10,8.08,0.19,-0.03,0.26
442,-2.95,-3.10,8.08,0.19,-0.02,0.25
446,-1.34,-1.57,9.54,0.19,-0.02,0.25
451,-1.34,-0.80,8.66,0.19,-0.02,0.25
457,-1.34,-0.80,8.66,0.21,-0.06,0.27
462,-1.34,-0.80,8.66,0.20,-0.07,0.28
466,0.57,-0.50,9.20,0.20,-0.07,0.28
471,0.57,-0.50,9.20,0.19,-0.10,0.27
477,1.72,-0.92,8.54,0.19,-0.10,0.27
481,1.27,-0.23,9.04,0.19,-0.10,0.27
486,1.38,-0.61,8.92,0.19,-0.10,0.27
492,1.38,-0.61,8.92,0.13,-0.05,0.18
497,1.38,-0.61,8.92,0.13,-0.05,0.15
501,0.34,0.34,9.73,0.13,-0.05,0.15
506,0.34,0.96,10.53,0.13,-0.05,0.15
512,0.34,0.96,10.53,0.08,-0.02,0.06
517,0.34,0.96,10.53,0.06,-0.02,0.05
521,-0.08,0.96,10.39,0.06,-0.02,0.05
526,0.27,-0.30,10.23,0.06,-0.02,0.05
532,0.34,0.73,9.89,0.06,-0.02,0.05
537,0.34,0.73,9.89,0.03,-0.02,-0.03
541,0.69,1.15,10.27,0.03,-0.02,-0.03
546,0.69,1.15,10.27,0.04,0.01,-0.03
552,0.69,1.15,10.27,0.02,0.01,-0.04
557,0.69,1.15,10.27,0.03,0.02,-0.05
562,1.04,0.38,10.11,0.03,0.02,-0.05
567,-0.19,2.07,9.00,0.03,0.02,-0.05
571,-0.34,1.00,8.96,0.03,0.02,-0.05
577,-0.34,1.00,8.96,0.02,0.04,-0.11
581,-0.34,1.00,8.96,0.02,0.03,-0.14
586,-0.34,1.00,8.96,-0.01,0.04,-0.20
591,-0.34,1.00,8.96,-0.02,0.03,-0.24
597,-0.34,1.00,8.96,-0.03,0.00,-0.27
601,-1.15,0.34,7.85,-0.03,0.00,-0.27
606,-0.69,0.27,7.85,-0.03,0.00,-0.27
612,-0.69,0.27,7.85,-0.05,-0.04,-0.34
616,-0.69,0.27,7.85,-0.06,-0.05,-0.38
622,-0.69,0.27,7.85,-0.07,-0.03,-0.42
626,-0.69,0.27,7.85,-0.06,-0.02,-0.44
632,-0.69,0.27,7.85,-0.04,-0.02,-0.45
636,-0.11,0.84,9.16,-0.04,-0.02,-0.45
641,-1.27,1.72,8.84,-0.04,-0.02,-0.45
646,-1.27,1.72,8.84,0.00,-0.01,-0.40
652,-1.27,1.72,8.84,-0.00,-0.01,-0.39
657,-1.27,1.72,8.84,-0.02,-0.02,-0.40
662,0.38,1.61,10.11,-0.02,-0.02,-0.40
666,1.30,1.38,10.27,-0.02,-0.02,-0.40
671,1.91,0.77,11.34,-0.02,-0.02,-0.40
676,1.91,0.77,11.34,-0.02,-0.01,-0.34
682,1.91,0.77,11.34,-0.02,-0.00,-0.34
687,1.91,0.77,11.34,-0.02,0.00,-0.33
691,-0.88,-0.34,9.61,-0.02,0.00,-0.33
696,-1.23,-0.38,9.77,-0.02,0.00,-0.33
702,-1.23,-0.38,9.77,-0.01,0.01,-0.29
706,0.04,-0.08,9.73,-0.01,0.01,-0.29
711,-0.11,0.30,10.80,-0.01,0.01,-0.29
717,-0.11,0.30,10.80,0.02,0.02,-0.24
722,-0.11,0.30,10.80,0.03,0.02,-0.23
726,-1.04,-0.84,9.42,0.03,0.02,-0.23
731,-2.30,-0.04,8.66,0.03,0.02,-0.23
737,-2.30,-0.04,8.66,0.08,0.00,-0.15
741,-3.41,-0.27,8.58,0.08,0.00,-0.15
746,-1.07,-0.30,8.96,0.08,0.00,-0.15
751,0.19,-0.19,8.74,0.08,0.00,-0.15
756,0.19,-0.19,8.74,0.09,-0.05,-0.05
761,0.19,-0.19,8.74,0.10,0.01,-0.04
766,0.19,-0.19,8.74,0.12,0.01,-0.01
772,0.19,-0.19,8.74,0.11,-0.01,0.01
776,-1.23,-1.57,10.49,0.11,-0.01,0.01
781,-2.80,-0.80,10.07,0.11,-0.01,0.01
786,-2.80,-0.80,10.07,0.15,0.04,0.07
792,-3.07,-1.07,10.00,0.15,0.04,0.07
797,-3.07,-1.07,10.00,0.15,-0.05,0.12
802,-1.30,-0.50,8.58,0.15,-0.05,0.12
806,-0.30,-0.57,7.13,0.15,-0.05,0.12
811,0.96,-0.61,7.43,0.15,-0.05,0.12
816,0.96,-0.61,7.43,0.16,-0.06,0.21
822,0.96,-0.61,7.43,0.16,-0.00,0.24
826,0.57,-0.30,9.73,0.16,-0.00,0.24
831,-0.15,-0.77,10.57,0.16,-0.00,0.24
837,-0.15,-0.77,10.57,0.17,0.01,0.31
842,-0.15,-0.77,10.57,0.16,0.04,0.33
846,-3.95,-1.72,6.85,0.16,0.04,0.33
851,-4.45,-0.54,4.75,0.16,0.04,0.33
857,-4.45,-0.54,4.75,0.19,-0.07,0.36
862,-4.45,-0.54,4.75,0.18,-0.08,0.38
866,2.18,-1.04,11.80,0.18,-0.08,0.38
871,4.71,-0.19,13.79,0.18,-0.08,0.38
876,4.71,-0.19,13.79,0.11,-0.04,0.38
881,4.71,-0.19,13.79,0.10,0.03,0.36
886,4.71,-0.19,13.79,0.08,0.12,0.35
892,4.71,-0.19,13.79,0.09,0.15,0.36
896,-6.32,-1.49,8.12,0.09,0.15,0.36
901,-6.36,-0.61,7.55,0.09,0.15,0.36
906,-6.36,-0.61,7.55,0.22,0.06,0.34
912,-6.36,-0.61,7.55,0.22,0.02,0.34
917,-6.36,-0.61,7.55,0.18,-0.03,0.33
922,-0.27,1.99,5.66,0.18,-0.03,0.33
926,-1.61,1.80,4.41,0.18,-0.03,0.33
931,-3.67,1.53,2.95,0.18,-0.03,0.33
936,-3.67,1.53,2.95,0.01,-0.00,0.17
942,-3.67,1.53,2.95,-0.02,-0.05,0.13
946,-2.95,1.00,4.75,-0.02,-0.05,0.13
951,1.00,0.50,8.46,-0.02,-0.05,0.13
957,1.00,0.50,8.46,-0.09,-0.16,-0.04
962,1.00,0.50,8.46,-0.09,-0.17,-0.06
966,9.73,-0.42,19.92,-0.09,-0.17,-0.06
971,9.84,-0.30,20.72,-0.09,-0.17,-0.06
977,6.44,0.00,18.42,-0.09,-0.17,-0.06
981,0.27,-0.30,14.44,-0.09,-0.17,-0.06
986,-0.73,0.50,12.22,-0.09,-0.17,-0.06
992,-0.73,0.50,12.22,-0.02,0.11,-0.08
997,-0.73,0.50,12.22,0.02,0.12,-0.06
1001,-2.11,1.80,7.51,0.02,0.12,-0.06
1006,-2.11,2.49,6.97,0.02,0.12,-0.06
1012,-1.04,3.64,5.82,0.02,0.12,-0.06
1016,-2.95,4.10,1.65,0.02,0.12,-0.06
1021,-2.64,3.11,2.64,0.02,0.12,-0.06
1026,-3.79,2.26,1.61,0.02,0.12,-0.06
1032,-3.75,2.72,1.95,0.02,0.12,-0.06
1036,0.61,1.42,8.35,0.02,0.12,-0.06
1041,2.34,0.00,11.61,0.02,0.12,-0.06
1046,7.12,-0.50,16.59,0.02,0.12,-0.06
1052,7.12,-0.50,16.59,-0.25,-0.09,-0.25
1056,2.64,-0.19,14.36,-0.25,-0.09,-0.25
1061,2.14,-0.23,13.79,-0.25,-0.09,-0.25
1067,2.14,-0.23,13.79,-0.19,0.01,-0.30
1071,0.04,-1.23,10.27,-0.19,0.01,-0.30
1076,0.65,-2.26,10.07,-0.19,0.01,-0.30
1082,-0.08,-0.69,8.32,-0.19,0.01,-0.30
1086,0.30,0.23,8.16,-0.19,0.01,-0.30
1091,-1.88,0.27,7.89,-0.19,0.01,-0.30
1097,-5.09,0.92,7.17,-0.19,0.01,-0.30
1101,-8.50,1.38,5.90,-0.19,0.01,-0.30
1106,-8.50,0.92,6.63,-0.19,0.01,-0.30
1111,-6.74,0.42,7.36,-0.19,0.01,-0.30
1117,-4.45,-0.34,8.62,-0.19,0.01,-0.30
1122,4.18,-1.42,13.14,-0.19,0.01,-0.30
1126,4.18,-1.42,13.14,-0.18,-0.60,-0.13
1131,10.15,-1.15,15.55,-0.18,-0.60,-0.13
1136,6.89,-1.11,13.21,-0.18,-0.60,-0.13
1141,1.34,-0.73,11.15,-0.18,-0.60,-0.13
1146,-2.45,-0.69,4.63,-0.18,-0.60,-0.13
1152,-3.07,-1.11,6.09,-0.18,-0.60,-0.13
1156,-2.26,-1.15,7.89,-0.18,-0.60,-0.13
1161,-1.76,-1.00,7.27,-0.18,-0.60,-0.13
1167,-1.04,-1.00,8.35,-0.18,-0.60,-0.13
1171,2.49,-0.80,9.69,-0.18,-0.60,-0.13
1176,3.60,-0.73,10.27,-0.18,-0.60,-0.13
1181,2.26,-0.54,10.61,-0.18,-0.60,-0.13
1187,2.26,-0.54,10.61,0.01,0.30,-0.21
1191,-9.12,0.96,6.70,0.01,0.30,-0.21
1196,-9.69,1.30,7.97,0.01,0.30,-0.21
1202,-9.35,1.76,10.00,0.01,0.30,-0.21
1206,-7.36,0.88,10.30,0.01,0.30,-0.21
1211,-4.25,-0.46,9.88,0.01,0.30,-0.21
1216,-0.30,0.19,10.39,0.01,0.30,-0.21
1222,-0.30,0.19,10.39,-0.10,-0.27,-0.39
1226,8.89,-1.15,10.96,-0.10,-0.27,-0.39
1231,8.89,-1.15,10.96,-0.04,0.22,-0.32
1236,7.20,-0.27,9.65,-0.04,0.22,-0.32
1241,0.92,0.80,5.74,-0.04,0.22,-0.32
1247,0.92,0.80,5.74,0.04,-0.04,-0.24
1252,-1.95,1.91,8.20,0.04,-0.04,-0.24
1256,-0.77,0.57,6.47,0.04,-0.04,-0.24
1261,-0.77,0.84,8.46,0.04,-0.04,-0.24
1266,-1.91,0.73,9.27,0.04,-0.04,-0.24
1272,-2.57,0.57,10.23,0.04,-0.04,-0.24
1277,-7.59,0.34,11.26,0.04,-0.04,-0.24
1281,-7.59,0.34,11.26,0.02,-0.04,-0.22
1286,-7.59,0.34,11.26,0.01,-0.09,-0.25
1291,1.00,-1.49,13.29,0.01,-0.09,-0.25
1296,1.84,-1.15,11.64,0.01,-0.09,-0.25
1301,2.64,-0.34,9.69,0.01,-0.09,-0.25
1307,2.72,-0.23,8.54,0.01,-0.09,-0.25
1312,0.38,-0.46,6.82,0.01,-0.09,-0.25
1316,0.38,-0.46,6.82,0.04,-0.01,-0.19
1321,1.46,-2.53,8.43,0.04,-0.01,-0.19
1326,1.91,-2.87,9.58,0.04,-0.01,-0.19
1331,0.65,-2.26,9.73,0.04,-0.01,-0.19
1336,-1.11,-1.42,10.77,0.04,-0.01,-0.19
1342,-2.18,-0.77,10.30,0.04,-0.01,-0.19
1347,-3.95,-0.77,10.53,0.04,-0.01,-0.19
1351,-3.95,-0.77,10.53,0.19,-0.00,0.05
1356,-5.94,-1.84,9.42,0.19,-0.00,0.05
1361,-1.49,-2.03,9.04,0.19,-0.00,0.05
1366,0.77,-2.87,10.99,0.19,-0.00,0.05
1372,2.11,-2.49,9.69,0.19,-0.00,0.05
1376,1.68,-2.76,8.96,0.19,-0.00,0.05
1381,0.96,-1.65,7.35,0.19,-0.00,0.05
1387,2.07,-1.34,9.35,0.19,-0.00,0.05
1391,0.73,-2.68,7.73,0.19,-0.00,0.05
1396,-0.57,-1.00,7.39,0.19,-0.00,0.05
1401,-0.65,-1.80,8.08,0.19,-0.00,0.05
1406,-0.30,-1.53,9.08,0.19,-0.00,0.05
1412,-2.41,-1.57,7.89,0.19,-0.00,0.05
1417,-0.69,-1.30,10.69,0.19,-0.00,0.05
1421,-0.69,-1.30,10.69,0.25,-0.15,0.32
1426,-0.69,-1.30,10.69,0.24,-0.11,0.33
1431,3.60,-1.95,12.26,0.24,-0.11,0.33
1436,2.87,-2.07,12.14,0.24,-0.11,0.33
1442,1.88,-2.76,12.18,0.24,-0.11,0.33
1446,-0.34,-2.30,10.77,0.24,-0.11,0.33
1451,-1.19,-2.11,9.85,0.24,-0.11,0.33
1456,-0.96,-1.99,10.00,0.24,-0.11,0.33
1462,-1.07,-1.80,9.46,0.24,-0.11,0.33
1467,-0.42,-0.08,9.50,0.24,-0.11,0.33
1471,-0.42,-0.08,9.50,0.29,-0.02,0.44
1476,-0.19,0.23,9.30,0.29,-0.02,0.44
1481,-0.54,0.69,8.82,0.29,-0.02,0.44
1486,-0.54,-0.19,7.59,0.29,-0.02,0.44
1491,-0.84,-0.27,7.59,0.29,-0.02,0.44
1497,-1.11,0.15,7.01,0.29,-0.02,0.44
1502,-1.95,-0.19,6.89,0.29,-0.02,0.44
1506,-1.95,-0.19,6.89,0.18,-0.06,0.38
1511,-0.92,0.77,8.16,0.18,-0.06,0.38
1516,-0.34,-0.38,8.04,0.18,-0.06,0.38
1521,-0.65,-0.46,8.42,0.18,-0.06,0.38
1527,1.07,-0.88,10.34,0.18,-0.06,0.38
1531,0.15,-0.34,8.62,0.18,-0.06,0.38
1536,-0.69,-0.42,8.78,0.18,-0.06,0.38
1541,-0.57,-0.38,9.50,0.18,-0.06,0.38
1547,-0.84,-0.69,10.34,0.18,-0.06,0.38
1552,-0.69,-0.80,11.19,0.18,-0.06,0.38
1556,-0.69,-0.80,11.19,0.10,-0.04,0.20
1561,-0.69,-0.80,11.19,0.11,-0.06,0.19
1566,1.04,-1.07,11.26,0.11,-0.06,0.19
1572,0.92,-0.80,10.92,0.11,-0.06,0.19
1576,0.92,-0.80,10.92,0.09,0.01,0.14
1581,-1.19,-0.69,9.34,0.09,0.01,0.14
1586,-0.96,0.34,9.27,0.09,0.01,0.14
1591,-1.07,0.19,8.62,0.09,0.01,0.14
1597,-1.49,1.38,8.50,0.09,0.01,0.14
1601,-1.88,0.42,7.97,0.09,0.01,0.14
1607,-1.23,0.77,7.85,0.09,0.01,0.14
1611,-1.23,0.77,7.85,0.02,-0.05,0.07
1616,0.46,0.00,8.66,0.02,-0.05,0.07
1621,1.84,0.77,9.50,0.02,-0.05,0.07
1626,0.84,0.61,9.46,0.02,-0.05,0.07
1632,1.49,0.50,10.84,0.02,-0.05,0.07
1636,0.96,0.61,10.45,0.02,-0.05,0.07
1642,1.15,0.57,10.99,0.02,-0.05,0.07
1646,1.15,0.57,10.99,0.03,0.03,0.11
1651,0.27,-0.08,10.80,0.03,0.03,0.11
1656,-0.15,0.54,10.41,0.03,0.03,0.11
1661,-0.54,0.46,10.95,0.03,0.03,0.11
1667,-2.07,0.88,11.07,0.03,0.03,0.11
1673,-2.68,1.34,10.69,0.03,0.03,0.11
1676,-2.68,1.34,10.69,0.01,-0.01,0.15
1681,-2.68,1.34,10.69,0.01,0.01,0.17
1686,-2.68,1.34,10.69,-0.01,0.04,0.15
1691,-2.61,0.34,8.66,-0.01,0.04,0.15
1697,-1.91,0.30,7.39,-0.01,0.04,0.15
1701,-1.15,0.73,6.59,-0.01,0.04,0.15
1706,-1.23,0.65,6.59,-0.01,0.04,0.15
1712,-1.11,0.61,7.09,-0.01,0.04,0.15
1716,-1.11,0.61,7.09,-0.05,-0.07,0.12
1721,0.77,-0.04,9.58,-0.05,-0.07,0.12
1726,1.34,-0.65,10.41,-0.05,-0.07,0.12
1732,0.88,-0.27,11.49,-0.05,-0.07,0.12
1736,0.50,-1.42,11.95,-0.05,-0.07,0.12
1741,0.65,-2.11,11.84,-0.05,-0.07,0.12
1746,-0.23,-1.72,10.57,-0.05,-0.07,0.12
1752,-1.07,-1.30,9.54,-0.05,-0.07,0.12
1756,-0.15,-0.65,9.42,-0.05,-0.07,0.12
1761,0.46,0.80,9.27,-0.05,-0.07,0.12
1767,0.08,1.15,10.31,-0.05,-0.07,0.12
1771,-0.57,1.00,10.42,-0.05,-0.07,0.12
1776,-1.30,1.34,9.77,-0.05,-0.07,0.12
1782,-1.38,0.65,9.04,-0.05,-0.07,0.12
1786,-1.38,0.65,9.04,-0.07,0.09,0.06
1791,-3.71,0.15,7.59,-0.07,0.09,0.06
1797,-4.45,1.27,7.23,-0.07,0.09,0.06
1801,-4.45,1.27,7.23,-0.07,-0.00,0.04
1807,-4.45,1.27,7.23,-0.09,-0.03,0.02
1812,-1.11,2.72,8.92,-0.09,-0.03,0.02
1816,-1.11,2.72,8.92,-0.13,-0.03,-0.04
1821,-1.11,2.72,8.92,-0.14,-0.03,-0.05
1826,0.96,1.07,8.66,-0.14,-0.03,-0.05
1832,0.80,1.07,8.35,-0.14,-0.03,-0.05
1836,0.80,1.07,8.35,-0.13,0.04,-0.02
1841,-0.34,0.46,9.77,-0.13,0.04,-0.02
1847,-1.11,0.69,10.23,-0.13,0.04,-0.02
1851,-1.11,0.69,10.23,-0.14,0.08,-0.04
1857,-1.46,1.57,11.30,-0.14,0.08,-0.04
1862,-2.07,2.26,10.57,-0.14,0.08,-0.04
1866,-2.07,2.26,10.57,-0.15,0.09,-0.03
1871,-2.07,2.26,10.57,-0.15,0.04,-0.02
1876,-1.38,0.92,9.65,-0.15,0.04,-0.02
1882,0.00,-0.19,9.46,-0.15,0.04,-0.02
1886,0.00,-0.19,9.46,-0.18,0.02,-0.06
1892,-0.04,-0.57,9.77,-0.18,0.02,-0.06
1897,0.00,-0.15,8.89,-0.18,0.02,-0.06
1901,0.00,-0.15,8.89,-0.18,0.02,-0.07
1906,0.00,-0.15,8.89,-0.18,0.02,-0.08
1911,0.84,0.34,8.92,-0.18,0.02,-0.08
1917,1.00,-0.27,9.39,-0.18,0.02,-0.08
1921,1.00,-0.27,9.39,-0.16,0.02,-0.07
1927,1.00,-0.27,9.39,-0.16,0.04,-0.07
1932,1.61,-0.08,10.69,-0.16,0.04,-0.07
1936,1.61,-0.08,10.69,-0.17,0.06,-0.10
1941,1.61,-0.08,10.69,-0.16,0.04,-0.11
1946,1.61,-0.08,10.69,-0.15,0.05,-0.10
1952,-0.34,-0.27,9.27,-0.15,0.05,-0.10
1956,-0.34,-0.27,9.27,-0.13,0.03,-0.10
1961,0.00,-0.38,9.80,-0.13,0.03,-0.10
1966,0.65,-0.15,9.85,-0.13,0.03,-0.10
1972,0.34,-0.27,9.42,-0.13,0.03,-0.10
1977,0.34,-0.27,9.42,-0.17,-0.01,-0.17
1981,1.34,-0.34,9.20,-0.17,-0.01,-0.17
1986,1.23,-0.34,8.50,-0.17,-0.01,-0.17
1992,0.15,0.57,7.66,-0.17,-0.01,-0.17
1996,-0.92,0.08,7.82,-0.17,-0.01,-0.17
2002,-1.11,0.50,8.88,-0.17,-0.01,-0.17
2006,-1.11,0.50,8.88,-0.16,-0.01,-0.17
2012,-1.11,0.50,8.88,-0.15,-0.02,-0.18
2017,0.34,0.42,9.88,-0.15,-0.02,-0.18
2021,0.34,0.42,9.88,-0.12,-0.02,-0.13
2026,0.34,0.42,9.88,-0.11,-0.01,-0.12
2032,0.04,-0.27,9.77,-0.11,-0.01,-0.12
2037,0.15,-0.46,9.96,-0.11,-0.01,-0.12
2041,0.15,-0.46,9.96,-0.10,0.02,-0.12
2047,0.15,-0.46,9.96,-0.10,0.05,-0.11
2052,-0.69,-0.34,10.15,-0.10,0.05,-0.11
2056,-0.69,-0.34,10.15,-0.09,0.03,-0.07
2061,-0.69,-0.34,10.15,-0.08,0.02,-0.07
2067,-0.69,-0.34,10.15,-0.09,0.04,-0.08
2072,-1.65,-0.80,9.04,-0.09,0.04,-0.08
2076,-1.65,-0.80,9.04,-0.07,0.03,-0.05
2081,-1.76,-0.46,8.35,-0.07,0.03,-0.05
2086,-1.46,-0.15,8.58,-0.07,0.03,-0.05
2092,-1.80,0.15,8.46,-0.07,0.03,-0.05
2097,-1.80,0.15,8.46,-0.05,-0.01,-0.04
2101,0.30,-0.54,9.27,-0.05,-0.01,-0.04
2106,0.88,-0.57,9.43,-0.05,-0.01,-0.04
2112,1.42,-1.27,9.54,-0.05,-0.01,-0.04
2117,-0.88,-0.73,9.23,-0.05,-0.01,-0.04
2122,-1.65,-0.50,8.82,-0.05,-0.01,-0.04
2126,-1.65,-0.50,8.82,-0.04,0.03,-0.06
2132,-1.65,-0.50,8.82,-0.04,0.01,-0.07
2137,-0.23,-0.69,10.73,-0.04,0.01,-0.07
2141,-0.23,-0.69,10.73,-0.05,0.03,-0.08
2146,-0.23,-0.69,10.73,-0.05,0.04,-0.10
2152,-1.30,-0.38,9.20,-0.05,0.04,-0.10
2157,-0.50,-0.27,8.50,-0.05,0.04,-0.10
2161,-0.50,-0.27,8.50,-0.05,0.00,-0.12
2167,-0.50,-0.27,8.50,-0.05,0.02,-0.13
2173,-1.27,-0.65,7.31,-0.05,0.02,-0.13
2176,-1.27,-0.65,7.31,-0.04,-0.07,-0.12
2181,-1.27,-0.65,7.31,-0.03,-0.01,-0.12
2187,-1.27,-0.65,7.31,-0.02,-0.01,-0.10
2192,1.07,-0.54,11.50,-0.02,-0.01,-0.10
2197,1.07,-0.54,11.50,-0.02,-0.03,-0.05
2201,1.07,-0.54,11.50,-0.01,0.04,-0.05
2207,1.07,-0.54,11.50,-0.01,0.02,-0.04
2212,-1.19,-0.23,8.16,-0.01,0.02,-0.04
2217,-1.19,-0.23,8.16,0.02,-0.01,0.00
2222,-1.19,-0.23,8.16,0.03,0.02,0.01
2227,-0.92,-0.92,9.35,0.03,0.02,0.01
2232,-0.92,-0.92,9.35,0.03,-0.05,0.04
2237,-0.92,-0.92,9.35,0.03,0.00,0.03
2242,-0.46,-1.84,8.96,0.03,0.00,0.03
2247,-0.46,-1.84,8.96,0.04,0.04,0.02
2251,-0.46,-1.84,8.96,0.03,0.02,0.03
2257,-3.91,-0.54,8.85,0.03,0.02,0.03
2262,-4.21,0.30,8.16,0.03,0.02,0.03
2267,-4.21,0.30,8.16,0.03,-0.06,0.04
2272,-4.21,0.30,8.16,0.02,-0.08,0.03
2277,-0.23,-0.77,10.00,0.02,-0.08,0.03
2281,-0.23,-0.77,10.00,0.02,-0.05,0.05
2286,-0.23,-0.77,10.00,0.03,-0.06,0.06
2292,-0.38,-0.96,8.81,0.03,-0.06,0.06
2297,-0.73,-0.30,9.00,0.03,-0.06,0.06
2301,-0.73,-0.30,9.00,0.07,-0.05,0.13
2307,-0.73,-0.30,9.00,0.06,-0.04,0.14
2312,-0.84,-0.77,10.07,0.06,-0.04,0.14
2317,-0.84,-0.77,10.07,0.08,-0.02,0.14
2321,-0.84,-0.77,10.07,0.07,-0.03,0.14
2327,-0.84,-0.77,10.07,0.07,-0.02,0.14
2332,-0.54,-0.73,10.99,0.07,-0.02,0.14
2337,-0.54,-0.73,10.99,0.06,-0.07,0.13
2342,-0.54,-0.73,10.99,0.05,-0.03,0.12
2347,1.99,-1.30,10.99,0.05,-0.03,0.12
2352,1.99,-1.30,10.99,0.06,0.02,0.13
2357,1.99,-1.30,10.99,0.07,0.04,0.13
2363,-1.42,-1.07,9.61,0.07,0.04,0.13
2367,-1.42,-1.07,9.61,0.08,0.01,0.13
2371,-1.42,-1.07,9.61,0.10,0.01,0.12
2377,-0.30,0.00,8.62,0.10,0.01,0.12
2382,-1.04,0.80,8.23,0.10,0.01,0.12
2387,-1.04,0.80,8.23,0.09,-0.01,0.13
2392,-1.04,0.80,8.23,0.07,-0.01,0.10
2398,0.00,0.04,9.23,0.07,-0.01,0.10
2401,0.00,0.04,9.23,0.05,-0.01,0.05
2407,0.00,0.04,9.23,0.04,0.01,0.05
2412,-1.42,0.77,7.93,0.04,0.01,0.05
2417,-1.23,0.42,8.04,0.04,0.01,0.05
2421,-1.23,0.42,8.04,0.01,-0.04,-0.01
2427,-1.23,0.42,8.04,-0.01,-0.04,-0.04
2433,0.50,-0.23,9.93,-0.01,-0.04,-0.04
2437,0.50,-0.23,9.93,-0.03,-0.04,-0.08
2441,0.50,-0.23,9.93,-0.02,-0.02,-0.08
2447,0.50,-0.23,9.93,-0.01,0.01,-0.08
2452,0.69,0.84,10.07,-0.01,0.01,-0.08
2456,0.69,0.84,10.07,0.00,0.02,-0.06
2461,0.69,0.84,10.07,-0.01,0.02,-0.07
2466,0.69,0.84,10.07,-0.01,0.02,-0.09
2472,0.04,0.42,10.42,-0.01,0.02,-0.09
2476,0.04,0.42,10.42,-0.00,0.03,-0.09
2482,0.04,0.42,10.42,-0.01,0.03,-0.10
2487,0.73,0.96,8.96,-0.01,0.03,-0.10
2492,0.73,0.96,8.96,-0.04,0.03,-0.15
2497,0.73,0.96,8.96,-0.06,0.05,-0.17
2502,-1.19,0.34,8.54,-0.06,0.05,-0.17
2507,-1.19,0.34,8.54,-0.07,0.04,-0.20
2512,-1.19,0.34,8.54,-0.07,0.03,-0.20
2518,-0.88,-0.42,9.08,-0.07,0.03,-0.20
2521,-0.88,-0.42,9.08,-0.07,0.04,-0.23
2527,-0.88,-0.42,9.08,-0.05,0.00,-0.23
2532,-0.88,-0.42,9.08,-0.05,0.01,-0.23
2537,0.23,-0.34,9.34,-0.05,0.01,-0.23
2541,0.23,-0.34,9.34,-0.01,0.02,-0.21
2547,0.23,-0.34,9.34,-0.01,0.02,-0.22
2552,-0.65,-0.46,8.85,-0.01,0.02,-0.22
2557,-0.65,-0.46,8.85,-0.00,-0.02,-0.21
2562,-0.65,-0.46,8.85,0.01,-0.01,-0.19
2567,-0.65,-0.46,8.85,0.01,0.01,-0.19
2572,1.00,0.04,9.61,0.01,0.01,-0.19
2577,1.00,0.04,9.61,-0.01,0.02,-0.19
2581,1.00,0.04,9.61,-0.02,0.04,-0.18
2586,1.00,0.04,9.61,-0.02,0.03,-0.17
2593,-1.46,-0.08,9.65,-0.02,0.03,-0.17
2597,-1.46,-0.08,9.65,-0.02,-0.01,-0.14
2602,-1.46,-0.08,9.65,-0.02,-0.01,-0.13
2608,-0.30,0.00,9.93,-0.02,-0.01,-0.13
2611,-0.30,0.00,9.93,0.00,0.01,-0.11
2617,-0.30,0.00,9.93,0.01,-0.02,-0.08
2622,-0.73,-0.80,8.16,0.01,-0.02,-0.08
2627,-0.73,-0.80,8.16,0.04,-0.01,-0.04
2631,-0.73,-0.80,8.16,0.05,-0.01,-0.01
2637,-1.46,-1.04,9.46,0.05,-0.01,-0.01
2642,-1.65,-1.00,9.88,0.05,-0.01,-0.01
2646,-1.65,-1.00,9.88,0.06,-0.04,0.03
2652,-1.65,-1.00,9.88,0.07,-0.04,0.04
2657,0.73,-2.53,12.30,0.07,-0.04,0.04
2661,0.73,-2.53,12.30,0.10,-0.01,0.08
2667,0.73,-2.53,12.30,0.11,-0.01,0.10
2671,-2.22,-0.92,8.50,0.11,-0.01,0.10
2678,-2.68,-0.27,7.73,0.11,-0.01,0.10
2681,-2.68,-0.27,7.73,0.13,-0.02,0.15
2686,-2.68,-0.27,7.73,0.11,-0.03,0.17
2692,-1.19,-0.65,9.96,0.11,-0.03,0.17
2697,-1.19,-0.65,9.96,0.09,-0.03,0.16
2702,-1.19,-0.65,9.96,0.10,-0.04,0.17
2708,-1.19,-0.65,9.96,0.11,-0.02,0.18
2712,-1.19,-0.65,9.96,0.12,0.00,0.20
2717,-1.19,-0.65,9.96,0.13,-0.04,0.22
2722,-2.18,-0.04,7.51,0.13,-0.04,0.22
2727,-1.49,0.19,8.20,0.13,-0.04,0.22
2732,-1.49,0.19,8.20,0.14,-0.04,0.25
2737,-1.49,0.19,8.20,0.13,-0.07,0.24
2741,-0.27,-0.08,8.81,0.13,-0.07,0.24
2748,-0.08,0.00,8.46,0.13,-0.07,0.24
2751,-0.08,0.00,8.46,0.10,-0.05,0.24
2757,-0.73,-0.46,8.96,0.10,-0.05,0.24
2762,-0.34,-1.23,9.89,0.10,-0.05,0.24
2766,-0.34,-1.23,9.89,0.09,-0.04,0.24
2772,-0.34,-1.23,9.89,0.08,-0.01,0.22
2777,-0.96,0.80,10.19,0.08,-0.01,0.22
2781,-0.96,0.80,10.19,0.07,-0.04,0.21
2787,-0.96,0.80,10.19,0.06,-0.01,0.21
2792,-0.96,0.80,10.19,0.04,-0.01,0.20
2797,-1.68,0.80,9.27,0.04,-0.01,0.20
2801,-1.68,0.80,9.27,0.01,-0.04,0.17
2807,-1.68,0.80,9.27,0.01,-0.02,0.17
2812,-1.38,0.00,9.58,0.01,-0.02,0.17
2817,-1.38,0.00,9.58,0.02,-0.01,0.18
2822,-1.38,0.00,9.58,0.01,-0.03,0.17
2827,-1.38,0.00,9.58,-0.00,-0.01,0.14
2832,-1.23,-0.11,9.20,-0.00,-0.01,0.14
2837,-1.23,-0.11,9.20,-0.01,0.00,0.12
2842,-1.23,-0.11,9.20,-0.01,-0.01,0.12
2847,-0.84,1.46,9.30,-0.01,-0.01,0.12
2852,-0.84,1.46,9.30,-0.04,0.00,0.09
2857,-0.84,1.46,9.30,-0.06,-0.01,0.05
2861,-0.96,0.42,9.81,-0.06,-0.01,0.05
2868,-0.88,0.34,9.27,-0.06,-0.01,0.05
2872,-0.88,0.34,9.27,-0.09,-0.03,0.02
2877,-0.88,0.34,9.27,-0.09,-0.02,0.02
2882,-0.30,-0.27,9.12,-0.09,-0.02,0.02
2887,-0.30,-0.27,9.12,-0.10,-0.05,-0.01
2892,-0.30,-0.27,9.12,-0.11,-0.03,-0.02
2897,1.76,-0.11,11.11,-0.11,-0.03,-0.02
2901,1.76,-0.11,11.11,-0.09,-0.03,-0.03
2907,1.76,-0.11,11.11,-0.08,-0.02,-0.02
2912,1.76,-0.11,11.11,-0.07,0.02,-0.01
2917,0.34,-0.08,10.07,-0.07,0.02,-0.01
2921,0.34,-0.08,10.07,-0.06,0.01,-0.01
2927,0.34,-0.08,10.07,-0.08,0.02,-0.02
2932,0.69,-0.50,11.00,-0.08,0.02,-0.02
2937,0.69,-0.50,11.00,-0.06,0.00,-0.01
2942,0.69,-0.50,11.00,-0.05,0.01,0.00
2947,0.69,-0.50,11.00,-0.05,0.02,0.00
2952,0.65,-0.73,9.61,-0.05,0.02,0.00
2956,0.65,-0.73,9.61,-0.05,0.02,-0.02
2961,0.65,-0.73,9.61,-0.07,0.06,-0.04
2966,0.65,-0.73,9.61,-0.07,0.07,-0.04
2973,-0.54,0.08,9.12,-0.07,0.07,-0.04
2977,-0.54,0.08,9.12,-0.07,0.05,-0.02
2982,-0.73,-0.23,9.20,-0.07,0.05,-0.02
2988,-1.23,-0.34,9.04,-0.07,0.05,-0.02
2992,-1.23,-0.34,9.04,-0.05,0.04,0.00
2997,-1.23,-0.34,9.04,-0.05,0.06,0.01
3002,-0.92,0.42,9.27,-0.05,0.06,0.01
3007,-0.92,0.42,9.27,-0.03,0.06,0.05
3012,-0.92,0.42,9.27,-0.03,0.04,0.07
3016,-0.61,0.34,9.42,-0.03,0.04,0.07
3022,0.92,-0.15,9.92,-0.03,0.04,0.07
3027,0.92,-0.15,9.92,-0.04,0.02,0.10
3032,0.92,-0.15,9.92,-0.04,0.06,0.11
3037,0.23,-0.19,9.61,-0.04,0.06,0.11
3041,0.23,-0.19,9.61,-0.02,0.08,0.12
3046,0.23,-0.19,9.61,-0.03,0.08,0.12
3051,-1.88,-0.23,9.54,-0.03,0.08,0.12
3057,-1.88,-0.23,10.23,-0.03,0.08,0.12
3061,-1.88,-0.23,10.23,-0.04,0.06,0.11
3067,-1.88,-0.23,10.23,-0.03,0.06,0.10
3072,-1.76,-0.46,9.69,-0.03,0.06,0.10
3077,-1.76,-0.46,9.69,-0.04,0.06,0.09
3082,-1.76,-0.46,9.69,-0.04,0.02,0.08
3087,-1.76,-0.46,9.69,-0.04,0.01,0.07
3092,-1.76,-0.46,9.69,-0.05,0.03,0.05
3096,-1.76,-0.46,9.69,-0.05,0.03,0.05
3101,-1.76,-0.46,9.69,-0.05,0.03,0.03
3107,0.23,-0.34,10.11,-0.05,0.03,0.03
3111,0.23,-0.34,10.11,-0.05,0.03,0.01
3117,0.23,-0.34,10.11,-0.06,0.05,0.00
3122,0.23,-0.34,10.11,-0.07,0.05,-0.01
3127,0.23,-0.34,10.11,-0.07,0.03,-0.03
3132,0.23,-0.34,10.11,-0.07,0.03,-0.04
3137,0.23,-0.34,10.11,-0.07,0.09,-0.06
3142,-1.57,-0.11,9.23,-0.07,0.09,-0.06
3146,-1.57,-0.11,9.23,-0.08,-0.01,-0.06
3152,-1.57,-0.11,9.23,-0.09,0.04,-0.07
3157,-1.57,-0.11,9.23,-0.10,0.09,-0.09
3161,-1.57,-0.11,9.23,-0.08,0.05,-0.09
3167,-1.57,-0.11,9.23,-0.08,0.01,-0.10
3172,-1.57,-0.11,9.23,-0.07,0.06,-0.09
3177,-2.76,-0.08,8.08,-0.07,0.06,-0.09
3181,-2.76,-0.08,8.08,-0.05,-0.02,-0.07
3187,-2.76,-0.08,8.08,-0.06,-0.03,-0.07
3192,-2.76,-0.08,8.08,-0.06,0.01,-0.08
3197,-2.76,-0.08,8.08,-0.06,-0.03,-0.08
3201,-2.76,-0.08,8.08,-0.06,-0.08,-0.07
3206,-2.76,-0.08,8.08,-0.06,-0.02,-0.07
3212,-0.61,-0.54,8.78,-0.06,-0.02,-0.07
3217,-0.61,-0.54,8.78,-0.05,0.00,-0.06
3222,-0.61,-0.54,8.78,-0.05,-0.03,-0.07
3227,-0.61,-0.54,8.78,-0.06,0.02,-0.07
3232,-0.61,-0.54,8.78,-0.06,0.05,-0.08
3237,-0.61,-0.54,8.78,-0.06,0.03,-0.08
3241,-0.61,-0.54,8.78,-0.05,0.01,-0.07
3247,-2.41,-0.69,10.45,-0.05,0.01,-0.07
3252,-2.41,-0.69,10.45,-0.05,0.05,-0.09
3257,-2.41,-0.69,10.45,-0.05,-0.02,-0.09
3262,-0.77,-1.27,9.69,-0.05,-0.02,-0.09
3266,-0.77,-1.27,9.69,-0.03,0.05,-0.08
3271,-0.77,-1.27,9.69,-0.01,0.04,-0.07
3277,-0.77,-1.27,9.69,-0.01,-0.01,-0.06
3281,-0.77,-1.27,9.69,0.01,0.01,-0.06
3287,-0.77,-1.27,9.69,0.01,0.05,-0.05
3292,-0.77,-1.27,9.69,0.02,0.04,-0.05
3297,-1.46,-0.54,8.66,0.02,0.04,-0.05
3301,-1.46,-0.54,8.66,0.05,0.01,-0.02
3307,-1.46,-0.54,8.66,0.04,0.04,-0.02
3312,-1.46,-0.54,8.66,0.04,0.02,-0.02
3317,-1.46,-0.54,8.66,0.03,-0.01,-0.04
3321,-1.46,-0.54,8.66,0.01,0.01,-0.05
3327,-1.46,-0.54,8.66,-0.01,0.03,-0.06
3333,-1.53,-0.11,8.84,-0.01,0.03,-0.06
3337,-1.53,-0.11,8.84,0.00,0.00,-0.05
3342,-1.53,-0.11,8.84,0.01,-0.01,-0.05
3347,-1.53,-0.11,8.84,-0.01,-0.01,-0.07
3352,-1.53,-0.11,8.84,-0.02,-0.02,-0.08
3357,-1.53,-0.11,8.84,-0.02,-0.04,-0.07
3361,-1.53,-0.11,8.84,0.00,-0.02,-0.06
3368,-1.53,-0.11,8.84,0.03,0.02,-0.04
3371,-1.53,-0.11,8.84,0.05,0.04,-0.03
3377,-1.53,-0.11,8.84,0.05,0.01,-0.01
3382,-1.53,-0.11,8.84,0.06,0.00,-0.00
3386,-1.53,-0.11,8.84,0.06,0.01,-0.01
3392,-1.53,-0.11,8.84,0.05,-0.01,-0.02
3396,-1.53,-0.11,8.84,0.05,-0.01,-0.03
3402,0.54,0.00,9.85,0.05,-0.01,-0.03
3407,0.54,0.00,9.85,0.05,0.02,-0.04
3412,0.54,0.00,9.85,0.04,0.01,-0.06
3417,0.54,0.00,9.85,0.02,0.02,-0.09
3421,0.54,0.00,9.85,0.01,0.04,-0.11
3427,0.54,0.00,9.85,-0.01,0.03,-0.13
3431,0.54,0.00,9.85,-0.02,0.03,-0.14
3437,-0.38,-0.27,9.80,-0.02,0.03,-0.14
3442,-0.38,-0.27,9.80,-0.03,0.03,-0.15
3447,-0.38,-0.27,9.80,-0.01,0.02,-0.15
3452,-0.38,-0.27,9.80,-0.02,0.01,-0.16
3456,-0.38,-0.27,9.80,-0.01,-0.01,-0.15
3462,-0.38,-0.27,9.80,-0.00,-0.01,-0.15
3467,-0.38,-0.27,9.80,-0.00,0.01,-0.15
3472,-0.38,-0.27,9.80,-0.01,0.00,-0.15
3477,-0.38,-0.27,9.80,0.00,-0.01,-0.15
3481,-0.38,-0.27,9.80,-0.00,-0.01,-0.14
3487,-0.38,-0.27,9.80,0.01,-0.01,-0.13
3491,-0.38,-0.27,9.80,0.01,0.01,-0.12
3497,-0.38,-0.27,9.80,0.03,0.02,-0.11
3501,-0.38,-0.27,9.80,0.03,0.05,-0.11
3507,-1.15,-0.46,9.34,0.03,0.05,-0.11
3512,-1.15,-0.46,9.34,0.04,0.01,-0.09
3517,-1.15,-0.46,9.34,0.04,0.01,-0.07
3522,-0.84,-1.00,9.08,0.04,0.01,-0.07
3527,-0.84,-1.00,9.08,0.05,0.01,-0.04
3532,-0.84,-1.00,9.08,0.06,-0.02,-0.03
3537,-0.84,-1.00,9.08,0.06,-0.01,-0.00
3542,-0.84,-1.00,9.08,0.08,-0.02,0.03
3546,-0.84,-1.00,9.08,0.08,-0.04,0.04
3551,-0.84,-1.00,9.08,0.08,-0.08,0.05
3557,0.38,-0.50,8.70,0.08,-0.08,0.05
3562,0.38,-0.50,8.70,0.07,-0.02,0.05
3567,0.38,-0.50,8.70,0.07,-0.04,0.06
3572,0.38,-0.50,8.70,0.08,-0.08,0.07
3576,0.38,-0.50,8.70,0.08,-0.04,0.07
3582,0.38,-0.50,8.70,0.08,0.01,0.07
3586,0.38,-0.50,8.70,0.09,-0.02,0.08
3592,-1.19,-1.07,9.31,0.09,-0.02,0.08
3597,-1.19,-1.07,9.31,0.12,-0.01,0.10
3602,-1.19,-1.07,9.31,0.11,0.00,0.12
3607,-1.19,-1.07,9.31,0.11,-0.02,0.13
3611,-1.19,-1.07,9.31,0.09,-0.04,0.13
3617,-1.19,-1.07,9.31,0.07,-0.04,0.12
3621,-1.19,-1.07,9.31,0.06,0.00,0.11
3627,-1.15,-1.15,9.30,0.06,0.00,0.11
3632,-1.15,-1.15,9.30,0.07,0.01,0.13
3637,-1.15,-1.15,9.30,0.08,-0.01,0.16
3642,-1.15,-1.15,9.30,0.09,-0.05,0.17
3647,-1.15,-1.15,9.30,0.09,-0.03,0.18
3652,-1.15,-1.15,9.30,0.08,-0.03,0.17
3656,-1.15,-1.15,9.30,0.08,-0.07,0.17
3662,0.57,-1.04,10.61,0.08,-0.07,0.17
3667,0.57,-1.04,10.61,0.10,-0.03,0.17
3672,0.57,-1.04,10.61,0.11,-0.02,0.18
3677,0.57,-1.04,10.61,0.11,-0.09,0.20
3681,0.57,-1.04,10.61,0.10,-0.07,0.21
3687,0.57,-1.04,10.61,0.09,-0.01,0.20
3691,0.57,-1.04,10.61,0.08,-0.05,0.19
3697,1.11,-0.88,10.92,0.08,-0.05,0.19
3701,1.11,-0.88,10.92,0.07,-0.02,0.16
3706,1.11,-0.88,10.92,0.06,0.04,0.15
3712,1.11,-0.88,10.92,0.05,-0.01,0.15
3717,1.11,-0.88,10.92,0.04,-0.06,0.15
3722,1.11,-0.88,10.92,0.03,-0.06,0.14
3727,1.11,-0.88,10.92,0.01,-0.01,0.11
3732,1.11,-0.88,10.92,0.01,-0.01,0.11
3737,1.11,-0.88,10.92,0.02,-0.04,0.12
3741,1.11,-0.88,10.92,0.03,-0.03,0.14
3747,-1.38,0.42,9.34,0.03,-0.03,0.14
3751,-1.38,0.42,9.34,0.02,0.02,0.12
3757,-1.38,0.42,9.34,0.01,-0.02,0.13
3761,-1.38,0.42,9.34,0.01,-0.02,0.12
3767,-1.27,1.15,8.62,0.01,-0.02,0.12
3772,-1.27,1.15,8.62,-0.00,0.01,0.12
3776,-1.27,1.15,8.62,-0.02,-0.00,0.11
3782,-1.49,1.68,10.23,-0.02,-0.00,0.11
3787,-1.49,1.68,10.23,-0.06,0.04,0.05
3792,-1.49,1.68,10.23,-0.06,0.01,0.04
3796,-1.49,1.68,10.23,-0.07,-0.03,0.04
3802,-1.34,0.84,8.04,-0.07,-0.03,0.04
3807,-1.34,0.84,8.04,-0.09,0.01,0.02
3811,-1.34,0.84,8.04,-0.12,-0.02,-0.01
3817,0.15,-0.08,9.27,-0.12,-0.02,-0.01
3822,0.15,-0.08,9.27,-0.12,0.00,-0.05
3827,0.15,-0.08,9.27,-0.12,0.01,-0.05
3832,0.15,-0.08,9.27,-0.10,-0.00,-0.03
3837,0.00,0.04,9.50,-0.10,-0.00,-0.03
3842,0.00,0.04,9.50,-0.09,0.06,-0.02
3846,0.00,0.04,9.50,-0.10,0.01,-0.03
3852,0.80,-0.08,10.42,-0.10,0.01,-0.03
3857,0.80,-0.08,10.42,-0.12,0.02,-0.05
3861,0.80,-0.08,10.42,-0.12,0.03,-0.04
3867,0.80,-0.08,10.42,-0.11,0.01,-0.03
3872,0.96,0.46,9.73,-0.11,0.01,-0.03
3877,0.96,0.46,9.73,-0.09,0.02,-0.02
3881,0.96,0.46,9.73,-0.11,0.03,-0.03
3887,0.08,-0.23,9.27,-0.11,0.03,-0.03
3892,0.08,-0.23,9.27,-0.14,-0.00,-0.08
3897,0.08,-0.23,9.27,-0.14,0.02,-0.09
3901,0.08,-0.23,9.27,-0.14,0.03,-0.08
3907,-0.69,-0.15,9.34,-0.14,0.03,-0.08
3912,-0.69,-0.15,9.34,-0.11,0.00,-0.07
3916,-0.69,-0.15,9.34,-0.11,0.00,-0.06
3922,1.07,-0.11,9.20,-0.11,0.00,-0.06
3927,1.07,-0.11,9.20,-0.09,0.00,-0.06
3931,1.07,-0.11,9.20,-0.08,0.02,-0.04
3937,1.07,-0.11,9.20,-0.07,0.01,-0.03
3942,1.07,-0.11,9.20,-0.06,-0.02,-0.02
3947,1.07,-0.11,9.20,-0.06,-0.01,-0.02
3951,1.07,-0.11,9.20,-0.06,0.00,-0.02
3957,0.84,-0.19,9.08,-0.06,0.00,-0.02
3962,0.84,-0.19,9.08,-0.05,0.01,-0.02
3966,0.84,-0.19,9.08,-0.04,0.02,-0.02
3972,0.84,-0.19,9.08,-0.04,0.01,-0.03
3977,0.84,-0.19,9.08,-0.06,0.02,-0.04
3982,0.84,-0.19,9.08,-0.05,0.03,-0.04
3987,0.84,-0.19,9.08,-0.07,0.03,-0.05
3992,-0.65,-0.50,10.15,-0.07,0.03,-0.05
3997,-0.65,-0.50,10.15,-0.06,0.01,-0.06
4001,-0.65,-0.50,10.15,-0.07,0.02,-0.06
4007,-1.49,-0.23,7.43,-0.07,0.02,-0.06
4012,-1.49,-0.23,7.43,-0.05,-0.02,-0.04
4017,-1.49,-0.23,7.43,-0.05,-0.03,-0.04
4021,-1.49,-0.23,7.43,-0.05,-0.02,-0.05
4027,-0.38,-0.27,8.85,-0.05,-0.02,-0.05
4032,-0.38,-0.27,8.85,-0.04,-0.00,-0.05
4036,-0.38,-0.27,8.85,-0.04,-0.02,-0.04
4042,0.96,-0.04,12.56,-0.04,-0.02,-0.04
4046,0.96,-0.04,12.56,-0.04,0.02,-0.04
4051,0.96,-0.04,12.56,-0.04,0.03,-0.04
4057,0.96,-0.04,12.56,-0.04,0.03,-0.05
4062,-2.14,0.11,8.20,-0.04,0.03,-0.05
4067,-2.14,0.11,8.20,-0.05,0.01,-0.05
4071,-2.14,0.11,8.20,-0.05,0.01,-0.05
4077,0.34,-0.34,10.73,-0.05,0.01,-0.05
4082,0.34,-0.34,10.73,-0.06,-0.01,-0.06
4086,0.34,-0.34,10.73,-0.05,0.03,-0.07
4092,0.34,-0.34,10.73,-0.05,0.06,-0.06
4097,-3.56,-0.61,7.51,-0.05,0.06,-0.06
4102,-3.56,-0.61,7.51,-0.02,-0.00,-0.03
4106,-3.56,-0.61,7.51,-0.02,-0.04,-0.02
4112,-1.84,0.27,8.62,-0.02,-0.04,-0.02
4116,-1.84,0.27,8.62,-0.01,-0.00,-0.01
4121,-1.84,0.27,8.62,-0.02,-0.05,-0.02
4127,-1.84,0.27,8.62,-0.01,-0.07,-0.01
4132,-1.84,0.27,8.62,-0.01,-0.00,-0.01
4137,-1.84,0.27,8.62,-0.01,0.02,-0.00
4141,-1.84,0.27,8.62,-0.01,-0.02,0.00
4147,-0.15,0.11,10.35,-0.01,-0.02,0.00
4151,-0.15,0.11,10.35,-0.03,0.02,-0.01
4156,-0.15,0.11,10.35,-0.02,0.03,-0.02
4162,-0.15,0.11,10.35,-0.02,0.01,-0.02
4167,-0.23,-0.84,11.68,-0.02,0.01,-0.02
4172,-0.23,-0.84,11.68,-0.01,0.08,-0.03
4176,-0.23,-0.84,11.68,-0.01,0.03,-0.03
4182,-0.50,-0.77,10.73,-0.01,0.03,-0.03
4187,-0.50,-0.77,10.73,-0.02,0.01,-0.05
4191,-0.50,-0.77,10.73,-0.02,0.06,-0.05
4197,-0.50,-0.77,10.73,0.01,0.02,-0.04
4202,-0.50,-0.77,10.73,0.02,0.03,-0.03
4206,-0.50,-0.77,10.73,0.03,0.08,-0.03
4212,-0.50,-0.77,10.73,0.03,0.05,-0.02
4217,-1.72,-0.50,8.78,0.03,0.05,-0.02
4222,-1.72,-0.50,8.78,0.04,0.02,-0.03
4226,-1.72,-0.50,8.78,0.04,0.06,-0.03
4232,-1.80,0.57,8.04,0.04,0.06,-0.03
4236,-1.80,0.57,8.04,0.05,-0.02,-0.02
4241,-1.80,0.57,8.04,0.03,0.03,-0.03
4247,-1.80,0.57,8.04,0.01,0.03,-0.07
4252,-0.77,-0.23,9.80,0.01,0.03,-0.07
4257,-0.77,-0.23,9.80,-0.00,0.01,-0.10
4261,-0.77,-0.23,9.80,-0.00,0.02,-0.10
4267,-2.30,0.30,8.73,-0.00,0.02,-0.10
4272,-2.30,0.30,8.73,-0.01,-0.02,-0.13
4276,-2.30,0.30,8.73,-0.03,-0.02,-0.15
4282,-2.30,0.30,8.73,-0.04,-0.01,-0.17
4287,2.26,-0.77,11.07,-0.04,-0.01,-0.17
4292,2.26,-0.77,11.07,-0.03,0.03,-0.18
4296,2.26,-0.77,11.07,0.00,0.07,-0.16
4302,-0.77,0.04,9.27,0.00,0.07,-0.16
4307,-0.77,0.04,9.27,0.02,0.07,-0.14
4311,-0.77,0.04,9.27,0.03,0.04,-0.12
4316,-0.77,0.04,9.27,0.03,0.03,-0.12
4322,-0.61,-0.77,9.20,0.03,0.03,-0.12
4327,-0.61,-0.77,9.20,0.05,0.01,-0.11
4332,-0.61,-0.77,9.20,0.04,-0.00,-0.08
4337,0.61,-0.23,8.46,0.04,-0.00,-0.08
4342,0.61,-0.23,8.46,0.05,0.00,-0.08
4346,0.61,-0.23,8.46,0.05,0.00,-0.08
4352,0.61,-0.23,8.46,0.04,0.01,-0.09
4357,-0.69,-0.69,8.89,0.04,0.01,-0.09
4361,-0.69,-0.69,8.89,0.03,-0.01,-0.09
4367,-0.69,-0.69,8.89,0.03,-0.01,-0.09
4372,-0.08,-1.00,10.95,0.03,-0.01,-0.09
4377,-0.08,-1.00,10.95,0.04,-0.00,-0.07
4381,-0.08,-1.00,10.95,0.04,-0.01,-0.05
4387,-0.08,-1.00,10.95,0.06,-0.05,-0.03
4392,-0.08,-1.00,10.95,0.07,-0.04,-0.02
4397,-0.08,-1.00,10.95,0.08,-0.02,-0.00
4402,-0.08,-1.00,10.95,0.08,-0.02,0.01
4407,0.15,-0.77,9.81,0.08,-0.02,0.01
4412,0.15,-0.77,9.81,0.10,-0.04,0.04
4416,0.15,-0.77,9.81,0.10,-0.03,0.06
4422,0.38,-1.23,9.65,0.10,-0.03,0.06
4427,-0.46,-1.19,8.81,0.10,-0.03,0.06
4431,-0.46,-1.19,8.81,0.10,-0.03,0.07
4437,-0.46,-1.19,8.81,0.10,-0.05,0.08
4442,1.42,-1.72,11.11,0.10,-0.05,0.08
4447,1.42,-1.72,11.11,0.12,0.01,0.09
4451,1.42,-1.72,11.11,0.12,-0.00,0.10
4457,-0.08,-0.92,8.96,0.12,-0.00,0.10
4462,-0.08,-0.92,8.96,0.12,-0.01,0.11
4466,-0.08,-0.92,8.96,0.13,0.00,0.13
4472,-0.08,-0.92,8.96,0.12,-0.03,0.13
4477,-0.92,-0.38,8.04,0.12,-0.03,0.13
4482,-0.92,-0.38,8.04,0.10,-0.00,0.12
4487,-0.92,-0.38,8.04,0.10,-0.02,0.11
4492,-0.15,0.08,8.70,0.10,-0.02,0.11
4497,-0.15,0.08,8.70,0.08,0.00,0.10
4501,-0.15,0.08,8.70,0.07,-0.01,0.09
4507,-0.15,0.08,8.70,0.06,-0.05,0.07
4512,0.88,-0.57,12.11,0.06,-0.05,0.07
4517,0.88,-0.57,12.11,0.05,0.03,0.04
4522,0.88,-0.57,12.11,0.06,-0.01,0.03
4527,0.88,-0.57,12.11,0.07,-0.06,0.04
4532,0.88,-0.57,12.11,0.09,-0.04,0.05
4536,0.88,-0.57,12.11,0.08,-0.00,0.04
4542,0.88,-0.57,12.11,0.07,-0.03,0.04
4547,1.30,-0.23,10.27,0.07,-0.03,0.04
4551,1.30,-0.23,10.27,0.04,0.02,-0.00
4557,1.30,-0.23,10.27,0.04,0.04,0.00
4562,-0.88,-0.34,8.46,0.04,0.04,0.00
4567,-0.88,-0.34,8.46,0.05,-0.01,0.01
4571,-0.88,-0.34,8.46,0.05,0.02,-0.00
4577,-1.72,1.53,7.89,0.05,0.02,-0.00
4582,-1.72,1.53,7.89,0.05,-0.05,-0.01
4586,-1.72,1.53,7.89,0.03,-0.01,-0.03
4592,-1.72,1.53,7.89,0.02,-0.01,-0.04
4597,-0.57,0.57,9.04,0.02,-0.01,-0.04
4602,-0.57,0.57,9.04,0.02,-0.06,-0.06
4606,-0.57,0.57,9.04,0.02,-0.02,-0.05
4612,-1.30,-0.23,10.03,0.02,-0.02,-0.05
4616,-1.30,-0.23,10.03,0.05,-0.03,-0.04
4621,-1.30,-0.23,10.03,0.04,-0.03,-0.05
4627,-1.30,-0.23,10.03,0.03,-0.01,-0.07
4632,-0.69,0.54,11.11,0.03,-0.01,-0.07
4637,-0.69,0.54,11.11,0.03,0.02,-0.08
4641,-0.69,0.54,11.11,0.03,-0.01,-0.07
4647,-0.69,0.54,11.11,0.02,0.01,-0.07
4652,-0.69,0.54,11.11,0.01,0.02,-0.08
4656,-0.69,0.54,11.11,0.00,0.01,-0.09
4662,-0.69,0.54,11.11,0.01,-0.01,-0.09
4667,-0.96,-0.54,10.69,0.01,-0.01,-0.09
4671,-0.96,-0.54,10.69,0.02,0.05,-0.09
4676,-0.96,-0.54,10.69,0.04,-0.01,-0.06
4682,-0.84,0.80,9.08,0.04,-0.01,-0.06
4686,-0.84,0.80,9.08,0.04,0.03,-0.05
4691,-0.84,0.80,9.08,0.04,0.00,-0.05
4697,-0.84,0.80,9.08,0.05,-0.03,-0.06
4701,-0.84,0.80,9.08,0.03,0.01,-0.05
4706,-0.84,0.80,9.08,0.04,0.02,-0.06
4712,-0.84,0.80,9.08,0.03,-0.01,-0.05
4717,-2.03,0.92,9.34,0.03,-0.01,-0.05
4721,-2.03,0.92,9.34,0.01,-0.03,-0.05
4726,-2.03,0.92,9.34,0.01,-0.04,-0.04
4732,-2.03,0.92,9.34,0.02,-0.03,-0.04
4736,-2.03,0.92,9.34,0.01,-0.01,-0.03
4741,-2.03,0.92,9.34,0.01,-0.02,-0.04
4747,-2.03,0.92,9.34,0.00,-0.02,-0.04
4752,-0.23,-0.61,9.38,0.00,-0.02,-0.04
4756,-0.23,-0.61,9.38,0.02,0.01,-0.01
4761,-0.23,-0.61,9.38,0.03,0.01,0.00
4767,-0.23,-0.61,9.38,0.03,0.01,0.03
4771,-0.23,-0.61,9.38,0.04,-0.00,0.04
4776,-0.23,-0.61,9.38,0.03,-0.03,0.05
4782,-0.23,-0.61,9.38,0.02,-0.03,0.05
4787,-0.23,-0.61,9.38,0.02,-0.02,0.05
4792,-0.23,-0.61,9.38,0.02,-0.05,0.06
4796,-0.23,-0.61,9.38,0.03,-0.06,0.07
4801,0.30,-0.19,9.30,0.03,-0.06,0.07
4807,0.42,-1.76,10.23,0.03,-0.06,0.07
4811,0.42,-1.76,10.23,0.04,-0.04,0.09
4817,0.42,-1.76,10.23,0.04,-0.01,0.08
4821,0.42,-1.76,10.23,0.02,0.04,0.07
4826,0.42,-1.76,10.23,0.04,0.01,0.08
4831,0.42,-1.76,10.23,0.04,-0.00,0.10
4837,-0.57,-0.77,9.69,0.04,-0.00,0.10
4841,-0.57,-0.77,9.69,0.04,0.01,0.13
4846,-0.57,-0.77,9.69,0.05,-0.01,0.14
4851,-0.57,-0.77,9.69,0.05,-0.03,0.16
4857,0.92,-0.88,11.07,0.05,-0.03,0.16
4861,0.92,-0.88,11.07,0.06,-0.01,0.20
4866,0.92,-0.88,11.07,0.06,-0.02,0.21
4872,-1.19,-0.92,7.47,0.06,-0.02,0.21
4876,-1.19,-0.92,7.47,0.07,-0.07,0.23
4881,-1.19,-0.92,7.47,0.07,-0.07,0.25
4887,-1.19,-0.92,7.47,0.07,-0.03,0.25
4891,-1.19,-0.92,7.47,0.07,-0.03,0.25
4896,-1.19,-0.92,7.47,0.07,-0.03,0.26
4901,-1.19,-0.92,7.47,0.07,-0.03,0.27
4907,-1.19,-0.92,7.47,0.07,-0.01,0.27
4911,-1.19,-0.92,7.47,0.08,0.01,0.29
4916,-1.19,-0.92,7.47,0.10,-0.01,0.31
4921,-1.19,-0.92,7.47,0.09,-0.02,0.31
4826,0.42,-1.76,10.23,0.04,0.01,0.08
4831,0.42,-1.76,10.23,0.04,-0.00,0.10
4837,-0.57,-0.77,9.69,0.04,-0.00,0.10
4841,-0.57,-0.77,9.69,0.04,0.01,0.13
4846,-0.57,-0.77,9.69,0.05,-0.01,0.14
4851,-0.57,-0.77,9.69,0.05,-0.03,0.16
4857,0.92,-0.88,11.07,0.05,-0.03,0.16
4861,0.92,-0.88,11.07,0.06,-0.01,0.20
4866,0.92,-0.88,11.07,0.06,-0.02,0.21
4872,-1.19,-0.92,7.47,0.06,-0.02,0.21
4876,-1.19,-0.92,7.47,0.07,-0.07,0.23
4881,-1.19,-0.92,7.47,0.07,-0.07,0.25
4887,-1.19,-0.92,7.47,0.07,-0.03,0.25
4891,-1.19,-0.92,7.47,0.07,-0.03,0.25
4896,-1.19,-0.92,7.47,0.07,-0.03,0.26
