timestamp,accX,accY,accZ,gyroX,gyroY,gyroZ
Break
7,-0.73,-0.34,8.81,-0.10,0.06,-0.40
18,-0.73,-0.34,8.81,-0.09,0.05,-0.40
21,0.57,-0.92,10.77,-0.09,0.05,-0.40
22,0.77,-1.00,11.50,-0.09,0.05,-0.40
25,0.77,-1.00,11.50,0.07,0.01,0.34
31,0.77,-0.69,11.49,0.07,0.01,0.34
36,0.77,-0.69,11.49,0.09,-0.01,0.35
41,0.77,-0.69,11.49,0.08,-0.02,0.35
47,0.77,-0.69,11.49,0.06,-0.00,0.35
51,0.77,-0.69,11.49,0.04,0.01,0.34
56,0.77,-0.69,11.49,0.04,0.03,0.35
61,0.77,-0.69,11.49,0.02,0.03,0.36
67,0.80,0.73,9.69,0.02,0.03,0.36
71,0.80,0.73,9.69,-0.01,0.01,0.36
76,0.80,0.73,9.69,-0.03,0.04,0.35
82,0.80,0.73,9.69,-0.04,0.06,0.35
86,0.80,0.73,9.69,-0.04,0.05,0.35
91,0.80,0.73,9.69,-0.06,0.04,0.35
96,0.80,0.73,9.69,-0.06,0.01,0.35
102,-1.11,0.61,9.16,-0.06,0.01,0.35
106,-1.11,0.61,9.16,-0.06,0.02,0.35
111,-1.11,0.61,9.16,-0.05,0.02,0.36
117,-1.11,0.61,9.16,-0.04,0.03,0.34
121,-1.11,0.61,9.16,-0.03,0.07,0.34
126,-1.11,0.61,9.16,-0.04,0.11,0.32
131,-1.11,0.61,9.16,-0.05,0.10,0.31
137,-1.30,0.69,9.54,-0.05,0.10,0.31
141,-1.30,0.69,9.54,-0.09,0.08,0.23
146,-1.30,0.69,9.54,-0.11,0.12,0.19
152,-1.91,0.15,9.50,-0.11,0.12,0.19
156,-1.91,0.15,9.50,-0.13,0.08,0.10
161,-1.91,0.15,9.50,-0.15,0.04,0.07
166,-1.91,0.15,9.50,-0.17,0.06,0.02
172,-1.07,0.50,7.97,-0.17,0.06,0.02
176,-1.07,0.50,7.97,-0.20,0.04,-0.07
181,-1.07,0.50,7.97,-0.22,0.04,-0.11
187,-1.27,0.92,7.85,-0.22,0.04,-0.11
191,-1.27,0.92,7.85,-0.24,0.12,-0.17
196,-1.27,0.92,7.85,-0.26,0.10,-0.19
201,-1.27,0.92,7.85,-0.26,0.05,-0.21
206,1.07,2.03,12.41,-0.26,0.05,-0.21
211,1.07,2.03,12.41,-0.25,0.11,-0.24
216,1.07,2.03,12.41,-0.23,0.13,-0.25
222,-0.46,1.00,10.77,-0.23,0.13,-0.25
226,-0.46,1.00,10.77,-0.22,0.15,-0.26
231,-0.46,1.00,10.77,-0.23,0.15,-0.25
236,-0.46,1.00,10.77,-0.24,0.11,-0.25
242,-0.42,2.91,8.35,-0.24,0.11,-0.25
246,-0.42,2.91,8.35,-0.27,0.12,-0.25
251,-0.42,2.91,8.35,-0.28,0.14,-0.25
257,-0.42,2.91,8.35,-0.28,0.13,-0.26
261,-0.42,2.91,8.35,-0.29,0.08,-0.23
266,-0.42,2.91,8.35,-0.27,0.03,-0.20
271,-2.26,2.22,8.81,-0.27,0.03,-0.20
277,-0.69,2.11,8.77,-0.27,0.03,-0.20
281,-0.69,2.11,8.77,-0.26,-0.03,-0.14
286,-0.69,2.11,8.77,-0.26,-0.02,-0.13
292,0.19,0.50,9.73,-0.26,-0.02,-0.13
296,0.19,0.50,9.73,-0.21,0.04,-0.06
301,0.19,0.50,9.73,-0.18,0.02,-0.04
307,-0.77,0.15,10.65,-0.18,0.02,-0.04
311,-0.77,0.15,10.65,-0.19,0.10,-0.02
316,-0.77,0.15,10.65,-0.21,0.12,-0.03
321,-0.77,0.15,10.65,-0.23,0.04,-0.03
326,0.57,-1.30,12.38,-0.23,0.04,-0.03
331,0.57,-1.30,12.38,-0.21,-0.08,-0.02
336,0.57,-1.30,12.38,-0.18,0.04,0.00
342,1.00,-1.15,9.65,-0.18,0.04,0.00
346,1.00,-1.15,9.65,-0.14,0.08,0.02
351,1.00,-1.15,9.65,-0.13,0.07,0.05
356,1.00,-1.15,9.65,-0.14,0.08,0.04
362,-2.87,-1.46,6.89,-0.14,0.08,0.04
366,-2.87,-1.46,6.89,-0.15,0.07,0.03
371,-2.87,-1.46,6.89,-0.14,0.02,0.04
377,-2.87,-1.46,6.89,-0.15,0.00,0.04
381,-2.87,-1.46,6.89,-0.14,-0.00,0.04
386,-2.87,-1.46,6.89,-0.13,-0.02,0.04
391,-2.87,-1.46,6.89,-0.11,-0.04,0.04
397,-0.27,-1.07,7.66,-0.11,-0.04,0.04
401,-0.27,-1.07,7.66,-0.08,-0.00,0.05
406,-0.27,-1.07,7.66,-0.08,-0.00,0.05
412,1.34,-1.65,10.54,-0.08,-0.00,0.05
416,1.34,-1.65,10.54,-0.07,-0.03,0.05
421,1.34,-1.65,10.54,-0.04,0.01,0.06
427,1.72,0.11,11.57,-0.04,0.01,0.06
431,1.72,0.11,11.57,-0.01,0.06,0.08
436,1.72,0.11,11.57,-0.04,0.06,0.06
441,1.72,0.11,11.57,-0.06,0.04,0.05
446,1.61,-0.88,10.96,-0.06,0.04,0.05
451,1.61,-0.88,10.96,-0.08,0.03,0.05
456,1.61,-0.88,10.96,-0.08,0.08,0.04
462,0.34,0.54,9.50,-0.08,0.08,0.04
466,0.34,0.54,9.50,-0.11,0.09,0.04
471,0.34,0.54,9.50,-0.13,0.08,0.00
476,0.34,0.54,9.50,-0.14,0.06,-0.02
482,0.23,-0.65,8.20,-0.14,0.06,-0.02
486,0.23,-0.65,8.20,-0.14,-0.04,0.01
491,0.23,-0.65,8.20,-0.12,-0.06,0.03
497,0.23,-0.65,8.20,-0.09,-0.04,0.01
501,0.23,-0.65,8.20,-0.08,0.03,-0.01
506,0.23,-0.65,8.20,-0.07,0.07,0.00
511,0.23,-0.65,8.20,-0.07,0.06,0.02
517,0.23,-0.65,8.20,-0.07,0.05,0.04
521,0.23,-0.65,8.20,-0.08,0.07,0.03
526,0.23,-0.65,8.20,-0.07,0.09,0.03
532,0.34,-0.30,9.00,-0.07,0.09,0.03
536,0.34,-0.30,9.00,-0.07,0.04,0.05
541,0.34,-0.30,9.00,-0.07,0.04,0.05
546,0.34,-0.30,9.00,-0.06,-0.01,0.07
551,0.34,-0.30,9.00,-0.07,-0.06,0.09
556,0.34,-0.30,9.00,-0.06,-0.06,0.08
561,0.34,-0.30,9.00,-0.05,-0.05,0.11
567,-0.27,0.65,11.03,-0.05,-0.05,0.11
571,-0.27,0.65,11.03,-0.06,0.05,-0.00
576,-0.27,0.65,11.03,-0.04,0.05,-0.03
582,-0.27,0.65,11.03,-0.04,0.11,-0.03
586,-0.27,0.65,11.03,-0.07,0.20,-0.05
591,-0.27,0.65,11.03,-0.09,0.20,-0.08
596,-0.27,0.65,11.03,-0.12,0.20,-0.16
602,-1.88,-0.92,8.35,-0.12,0.20,-0.16
606,-1.88,-0.92,8.35,-0.12,0.04,-0.14
611,-1.88,-0.92,8.35,-0.14,-0.10,-0.12
617,-1.88,-0.92,8.35,-0.12,-0.18,-0.14
621,-1.88,-0.92,8.35,-0.11,-0.19,-0.19
626,-1.88,-0.92,8.35,-0.07,-0.12,-0.20
631,-1.88,-0.92,8.35,-0.04,0.05,-0.15
636,-1.88,-0.92,8.35,-0.03,0.19,-0.10
641,-1.88,-0.92,8.35,-0.04,0.22,-0.08
646,-1.88,-0.92,8.35,-0.09,0.24,-0.10
651,-2.18,1.61,7.23,-0.09,0.24,-0.10
656,-2.72,1.49,7.32,-0.09,0.24,-0.10
661,-2.72,1.49,7.32,-0.17,0.12,-0.16
666,-2.72,1.49,7.32,-0.13,0.04,-0.10
671,-0.11,0.84,9.30,-0.13,0.04,-0.10
676,-0.11,0.84,9.30,-0.10,-0.14,0.04
681,-0.11,0.84,9.30,-0.10,-0.18,0.06
686,0.80,0.96,8.96,-0.10,-0.18,0.06
691,0.80,0.96,8.96,-0.06,-0.13,0.13
696,0.80,0.96,8.96,-0.03,-0.07,0.19
701,0.80,0.96,8.96,0.01,0.01,0.24
706,-0.65,-0.80,10.04,0.01,0.01,0.24
711,-0.65,-0.80,10.04,0.03,0.08,0.30
716,-0.65,-0.80,10.04,0.02,0.07,0.27
721,-1.27,-1.80,9.58,0.02,0.07,0.27
726,-1.27,-1.80,9.58,-0.01,-0.05,0.23
731,-1.27,-1.80,9.58,-0.01,-0.13,0.21
736,-1.27,-1.80,9.58,-0.03,-0.18,0.19
741,-1.27,-1.80,9.58,0.01,-0.18,0.16
746,-1.27,-1.80,9.58,0.02,-0.05,0.13
751,-1.27,-1.80,9.58,0.02,0.12,0.11
756,-1.27,-1.80,9.58,0.03,0.19,0.09
761,-1.27,-1.80,9.58,0.05,0.12,0.06
766,-1.27,-1.80,9.58,0.07,0.06,0.04
771,-1.27,-1.80,9.58,0.06,0.05,0.01
776,-2.30,0.46,9.30,0.06,0.05,0.01
781,-2.30,0.46,9.30,0.01,-0.05,-0.03
786,-2.30,0.46,9.30,-0.02,-0.16,-0.02
791,2.91,-0.54,8.96,-0.02,-0.16,-0.02
796,2.91,-0.54,8.96,-0.02,-0.23,-0.02
801,2.91,-0.54,8.96,-0.01,-0.06,-0.02
806,2.91,-0.54,8.96,-0.03,0.08,-0.04
811,2.91,-0.54,8.96,-0.03,0.06,-0.06
816,2.91,-0.54,8.96,-0.03,-0.04,-0.07
821,2.91,-0.54,8.96,-0.03,-0.08,-0.07
826,1.72,0.08,13.60,-0.03,-0.08,-0.07
831,1.72,0.08,13.60,-0.04,0.06,-0.07
836,1.72,0.08,13.60,-0.04,0.03,-0.07
841,1.72,0.08,13.60,-0.05,-0.05,-0.06
846,1.72,0.08,13.60,-0.06,-0.07,-0.06
851,1.72,0.08,13.60,-0.07,-0.01,-0.06
856,1.72,0.08,13.60,-0.08,0.08,-0.07
861,1.72,0.08,13.60,-0.07,0.09,-0.07
866,1.72,0.08,13.60,-0.07,0.04,-0.07
871,1.72,0.08,13.60,-0.09,-0.02,-0.06
876,1.72,0.08,13.60,-0.11,-0.05,-0.04
881,1.72,0.08,13.60,-0.10,-0.04,-0.03
886,1.72,0.08,13.60,-0.10,-0.02,-0.02
891,1.72,0.08,13.60,-0.10,0.01,0.00
896,1.72,0.08,13.60,-0.09,-0.02,0.01
901,1.72,0.08,13.60,-0.09,-0.07,0.03
906,1.72,0.08,13.60,-0.10,-0.07,0.05
911,2.22,-0.11,8.81,-0.10,-0.07,0.05
916,2.11,-0.69,8.43,-0.10,-0.07,0.05
921,2.11,-0.69,8.43,-0.07,0.02,0.10
926,2.11,-0.69,8.43,-0.05,0.01,0.11
931,2.11,-0.69,8.43,-0.04,0.00,0.12
936,2.11,-0.69,8.43,-0.03,-0.00,0.13
941,2.11,-0.69,8.43,-0.02,-0.01,0.13
946,-0.15,-1.19,11.03,-0.02,-0.01,0.13
951,-0.15,-1.19,11.03,-0.02,-0.03,0.10
956,-0.15,-1.19,11.03,-0.03,-0.03,0.09
961,-0.15,-1.19,11.03,-0.02,-0.01,0.08
966,-0.15,-1.19,11.03,-0.03,0.03,0.08
970,0.50,-1.53,10.42,-0.03,0.03,0.08
976,0.50,-1.53,10.42,-0.05,0.02,0.06
982,0.54,-0.88,7.77,-0.05,0.02,0.06
986,0.88,-0.73,6.82,-0.05,0.02,0.06
991,0.19,0.73,6.55,-0.05,0.02,0.06
996,0.19,0.73,6.55,-0.09,0.05,0.07
1001,0.19,0.73,6.55,-0.09,0.04,0.08
1006,0.19,0.73,6.55,-0.10,-0.01,0.09
1011,0.19,0.73,6.55,-0.09,-0.04,0.11
1016,0.19,0.73,6.55,-0.10,-0.02,0.13
1021,0.19,0.73,6.55,-0.09,0.03,0.14
1026,0.19,0.73,6.55,-0.08,0.04,0.15
1031,0.19,0.73,6.55,-0.08,0.01,0.14
1036,1.95,-0.08,10.34,-0.08,0.01,0.14
1041,1.95,-0.08,10.34,-0.09,0.00,0.13
1046,1.95,-0.08,10.34,-0.10,0.07,0.12
1051,1.95,-0.08,10.34,-0.12,0.11,0.10
1056,1.95,-0.08,10.34,-0.13,0.12,0.07
1061,1.95,-0.08,10.34,-0.14,0.11,0.05
1067,1.95,-0.08,10.34,-0.15,0.08,0.02
1071,1.95,-0.08,10.34,-0.15,0.07,-0.01
1075,-0.84,0.15,7.63,-0.15,0.07,-0.01
1081,-0.84,0.15,7.63,-0.17,0.02,-0.06
1087,0.65,-0.30,9.08,-0.17,0.02,-0.06
1091,0.65,-0.30,9.08,-0.16,-0.01,-0.11
1096,0.65,-0.30,9.08,-0.15,0.00,-0.12
1102,0.65,-0.30,9.08,-0.13,0.01,-0.12
1106,0.65,-0.30,9.08,-0.12,-0.00,-0.12
1111,1.49,-0.30,9.54,-0.12,-0.00,-0.12
1116,1.49,-0.30,9.54,-0.14,0.04,-0.15
1121,1.49,-0.30,9.54,-0.15,0.06,-0.18
1126,1.49,-0.30,9.54,-0.17,0.05,-0.21
1131,1.49,-0.30,9.54,-0.17,0.04,-0.24
1137,1.49,-0.30,9.54,-0.17,0.02,-0.26
1142,1.49,-0.30,9.54,-0.17,0.02,-0.27
1146,2.30,-1.80,11.00,-0.17,0.02,-0.27
1150,2.84,-1.19,10.57,-0.17,0.02,-0.27
1157,2.84,-1.19,10.57,-0.15,0.03,-0.29
1161,2.84,-1.19,10.57,-0.15,0.06,-0.29
1166,2.72,-0.42,10.03,-0.15,0.06,-0.29
1171,2.72,-0.42,10.03,-0.14,0.05,-0.32
1176,2.72,-0.42,10.03,-0.13,0.04,-0.33
1181,2.72,-0.42,10.03,-0.13,0.07,-0.33
1187,1.42,2.18,8.70,-0.13,0.07,-0.33
1191,0.34,1.53,8.70,-0.13,0.07,-0.33
1196,0.54,1.61,9.38,-0.13,0.07,-0.33
1201,0.54,1.61,9.38,-0.14,0.07,-0.33
1206,0.54,1.61,9.38,-0.17,0.02,-0.34
1211,1.61,0.77,7.66,-0.17,0.02,-0.34
1215,2.07,0.04,8.81,-0.17,0.02,-0.34
1222,2.07,0.04,8.81,-0.15,-0.06,-0.31
1226,2.07,0.04,8.81,-0.14,0.01,-0.31
1231,0.96,1.30,9.20,-0.14,0.01,-0.31
1236,2.18,0.61,9.08,-0.14,0.01,-0.31
1241,2.18,0.61,9.08,-0.15,-0.01,-0.30
1246,3.68,-0.08,12.14,-0.15,-0.01,-0.30
1251,2.87,-0.23,12.45,-0.15,-0.01,-0.30
1256,1.91,-0.23,11.95,-0.15,-0.01,-0.30
1262,1.91,-0.23,11.95,-0.11,0.08,-0.25
1266,0.34,0.30,10.38,-0.11,0.08,-0.25
1270,0.69,0.19,10.35,-0.11,0.08,-0.25
1276,0.69,0.19,10.35,-0.10,0.02,-0.22
1282,0.69,0.19,10.35,-0.10,0.01,-0.21
1286,0.84,-0.80,9.73,-0.10,0.01,-0.21
1291,1.11,-0.77,9.46,-0.10,0.01,-0.21
1296,1.11,-0.77,9.46,-0.08,0.02,-0.14
1301,1.11,-0.77,9.46,-0.10,-0.01,-0.14
1306,1.11,-0.77,9.46,-0.11,-0.04,-0.14
1311,1.11,-0.77,9.46,-0.10,-0.02,-0.13
1316,1.61,-1.11,8.70,-0.10,-0.02,-0.13
1320,1.11,-1.53,8.81,-0.10,-0.02,-0.13
1326,1.11,-1.53,8.81,-0.05,0.03,-0.06
1332,1.11,-1.53,8.81,-0.04,0.01,-0.05
1336,0.23,-2.34,8.78,-0.04,0.01,-0.05
1341,1.30,-2.26,9.43,-0.04,0.01,-0.05
1346,1.30,-2.26,9.43,-0.00,-0.03,-0.02
1351,1.30,-2.26,9.43,0.00,-0.03,-0.02
1356,1.30,-2.26,9.43,0.01,-0.01,-0.01
1362,1.30,-2.26,9.43,0.02,0.01,-0.01
1366,0.96,-1.99,9.43,0.02,0.01,-0.01
1370,0.65,-1.34,9.23,0.02,0.01,-0.01
1377,0.65,-1.34,9.23,0.03,0.03,-0.06
1381,0.65,-1.34,9.23,0.02,0.02,-0.07
1386,0.84,-1.42,10.57,0.02,0.02,-0.07
1390,0.96,-0.92,10.30,0.02,0.02,-0.07
1397,0.96,-0.92,10.30,-0.02,0.02,-0.17
1401,1.19,-0.61,10.27,-0.02,0.02,-0.17
1405,1.07,-0.46,10.34,-0.02,0.02,-0.17
1411,1.07,-0.46,10.34,-0.02,0.01,-0.21
1417,1.07,-0.46,10.34,-0.03,0.03,-0.23
1421,0.00,-0.08,9.50,-0.03,0.03,-0.23
1426,-0.38,0.38,9.27,-0.03,0.03,-0.23
1431,-0.38,0.38,9.27,-0.02,0.03,-0.26
1436,-0.38,0.38,9.27,-0.02,0.00,-0.26
1441,-0.38,0.38,9.27,-0.03,-0.01,-0.26
1446,-0.38,0.38,9.27,-0.03,-0.05,-0.27
1451,-0.38,0.38,9.27,-0.02,-0.07,-0.26
1456,1.80,0.00,10.27,-0.02,-0.07,-0.26
1461,1.76,0.15,10.00,-0.02,-0.07,-0.26
1466,1.76,0.15,10.00,-0.02,0.04,-0.24
1471,2.76,-0.19,11.72,-0.02,0.04,-0.24
1475,2.03,-1.04,11.15,-0.02,0.04,-0.24
1481,2.03,-1.04,11.15,0.01,0.01,-0.20
1486,2.03,-1.04,11.15,0.01,0.07,-0.19
1491,0.08,0.34,9.54,0.01,0.07,-0.19
1496,0.08,0.30,9.69,0.01,0.07,-0.19
1501,0.08,0.30,9.69,0.02,0.04,-0.13
1506,-0.38,-0.15,9.73,0.02,0.04,-0.13
1510,-0.08,-0.57,10.04,0.02,0.04,-0.13
1516,-0.08,-0.57,10.04,0.01,0.02,-0.07
1521,-0.08,-0.57,10.04,0.02,-0.03,-0.05
1526,0.50,-0.88,9.20,0.02,-0.03,-0.05
1531,0.92,-0.92,9.27,0.02,-0.03,-0.05
1536,0.96,-1.19,9.04,0.02,-0.03,-0.05
1541,0.96,-1.19,9.04,0.07,0.01,0.03
1546,0.96,-1.19,9.04,0.09,0.02,0.06
1551,0.96,-1.19,9.04,0.10,-0.00,0.08
1556,0.96,-1.19,9.04,0.11,-0.03,0.10
1561,-0.46,-1.15,9.61,0.11,-0.03,0.10
1566,-0.84,-1.19,9.08,0.11,-0.03,0.10
1571,-0.84,-1.19,9.08,0.11,-0.02,0.12
1576,0.69,-1.95,9.50,0.11,-0.02,0.12
1580,1.15,-2.61,9.46,0.11,-0.02,0.12
1587,1.15,-2.61,9.46,0.12,-0.10,0.14
1591,2.30,-2.84,9.77,0.12,-0.10,0.14
1595,1.46,-2.57,10.19,0.12,-0.10,0.14
1601,1.46,-2.57,10.19,0.14,0.02,0.16
1606,1.46,-2.57,10.19,0.16,0.01,0.19
1611,-1.19,-1.46,9.16,0.16,0.01,0.19
1616,-0.23,-2.03,9.73,0.16,0.01,0.19
1621,-0.23,-2.03,9.73,0.13,-0.01,0.13
1626,0.34,-2.22,10.19,0.13,-0.01,0.13
1630,0.38,-2.14,10.15,0.13,-0.01,0.13
1636,0.38,-2.14,10.15,0.15,-0.08,0.16
1641,0.38,-2.14,10.15,0.15,-0.05,0.17
1646,3.45,-1.00,11.41,0.15,-0.05,0.17
1651,2.80,-1.23,10.19,0.15,-0.05,0.17
1656,3.14,-0.27,9.23,0.15,-0.05,0.17
1661,0.96,-1.00,8.31,0.15,-0.05,0.17
1666,0.50,-0.73,8.31,0.15,-0.05,0.17
1671,0.04,-0.57,8.50,0.15,-0.05,0.17
1676,-0.23,0.38,8.36,0.15,-0.05,0.17
1681,0.15,0.77,8.23,0.15,-0.05,0.17
1686,0.19,1.04,9.00,0.15,-0.05,0.17
1691,0.19,1.04,9.00,0.04,-0.03,0.06
1696,1.95,-0.77,10.11,0.04,-0.03,0.06
1701,2.49,-0.50,9.31,0.04,-0.03,0.06
1706,2.95,0.30,10.46,0.04,-0.03,0.06
1711,2.57,-0.80,9.34,0.04,-0.03,0.06
1716,1.99,-0.80,8.85,0.04,-0.03,0.06
1721,1.00,-1.00,8.96,0.04,-0.03,0.06
1726,1.00,-1.00,8.96,0.06,-0.02,0.09
1731,0.42,0.23,9.08,0.06,-0.02,0.09
1736,0.96,0.11,9.65,0.06,-0.02,0.09
1741,2.64,-0.04,9.96,0.06,-0.02,0.09
1746,3.41,-0.96,10.80,0.06,-0.02,0.09
1751,4.10,-1.46,11.34,0.06,-0.02,0.09
1756,4.06,-1.49,11.38,0.06,-0.02,0.09
1761,4.06,-1.49,11.38,0.04,0.02,0.08
1766,0.61,-0.30,9.54,0.04,0.02,0.08
1771,-0.84,-0.11,8.85,0.04,0.02,0.08
1776,-1.15,-0.30,8.50,0.04,0.02,0.08
1781,-0.69,-0.15,8.82,0.04,0.02,0.08
1786,0.23,-0.92,8.93,0.04,0.02,0.08
1791,1.23,-0.96,9.77,0.04,0.02,0.08
1796,1.80,-0.57,9.61,0.04,0.02,0.08
1801,1.65,-0.65,9.65,0.04,0.02,0.08
1806,1.34,-0.88,9.61,0.04,0.02,0.08
1811,1.76,-0.88,10.07,0.04,0.02,0.08
1816,1.27,-1.07,10.45,0.04,0.02,0.08
1821,1.30,-1.15,10.65,0.04,0.02,0.08
1826,0.92,-1.30,10.38,0.04,0.02,0.08
1831,0.77,-1.49,10.35,0.04,0.02,0.08
1836,0.42,-1.49,9.54,0.04,0.02,0.08
1841,0.46,-1.72,9.73,0.04,0.02,0.08
1846,0.46,-1.72,9.73,0.02,-0.01,-0.02
1851,0.54,-1.27,9.31,0.02,-0.01,-0.02
1856,0.57,-1.23,9.23,0.02,-0.01,-0.02
1861,0.38,-1.07,8.93,0.02,-0.01,-0.02
1866,0.42,-0.30,8.96,0.02,-0.01,-0.02
1870,0.42,-0.30,8.96,0.02,0.00,0.02
1876,0.54,-0.57,9.96,0.02,0.00,0.02
1881,0.54,-0.57,9.96,0.03,0.00,0.04
1886,0.77,0.15,9.38,0.03,0.00,0.04
1891,0.88,0.04,9.23,0.03,0.00,0.04
1896,0.69,0.04,8.82,0.03,0.00,0.04
1901,1.19,0.38,8.58,0.03,0.00,0.04
1905,1.19,0.38,8.58,0.01,-0.03,0.21
1911,1.15,-0.42,9.20,0.01,-0.03,0.21
1916,2.34,0.42,9.85,0.01,-0.03,0.21
1921,1.42,-0.27,10.19,0.01,-0.03,0.21
1926,1.42,-0.27,10.19,0.01,-0.01,0.30
1931,1.42,-0.27,10.19,0.01,-0.00,0.30
1936,0.50,0.23,10.38,0.01,-0.00,0.30
1941,0.15,-0.08,10.03,0.01,-0.00,0.30
1946,-0.04,-0.34,10.23,0.01,-0.00,0.30
1951,0.77,-0.54,9.73,0.01,-0.00,0.30
1956,1.38,-0.96,10.61,0.01,-0.00,0.30
1961,1.46,-1.38,9.77,0.01,-0.00,0.30
1966,1.95,-1.30,9.23,0.01,-0.00,0.30
1971,1.84,-0.46,8.62,0.01,-0.00,0.30
1976,1.84,-0.46,8.62,-0.03,0.01,0.38
1981,-0.65,-0.04,7.86,-0.03,0.01,0.38
1986,-1.07,-0.30,7.70,-0.03,0.01,0.38
1991,-0.57,0.00,8.39,-0.03,0.01,0.38
1996,-0.61,-0.34,8.92,-0.03,0.01,0.38
2001,-0.08,-1.04,8.96,-0.03,0.01,0.38
2007,0.69,-1.53,10.00,-0.03,0.01,0.38
2011,0.69,-1.53,10.00,-0.05,-0.03,0.38
2016,1.68,-1.84,10.73,-0.05,-0.03,0.38
2021,2.07,-1.68,11.11,-0.05,-0.03,0.38
2026,2.14,-2.03,10.80,-0.05,-0.03,0.38
2031,1.72,-1.38,11.11,-0.05,-0.03,0.38
2036,1.53,-1.84,10.88,-0.05,-0.03,0.38
2041,-0.08,-1.07,9.77,-0.05,-0.03,0.38
2046,-0.08,-1.07,9.77,-0.08,0.07,0.29
2051,-0.08,-1.07,9.77,-0.09,0.05,0.27
2056,0.27,-0.69,9.88,-0.09,0.05,0.27
2061,0.23,-0.73,9.58,-0.09,0.05,0.27
2067,0.65,-0.96,9.16,-0.09,0.05,0.27
2071,1.04,-1.19,8.92,-0.09,0.05,0.27
2076,0.77,-0.57,8.54,-0.09,0.05,0.27
2081,1.07,-1.00,8.54,-0.09,0.05,0.27
2086,1.11,-0.84,8.82,-0.09,0.05,0.27
2091,1.42,-0.34,9.50,-0.09,0.05,0.27
2096,1.42,-0.34,9.50,-0.15,0.05,0.15
2101,0.92,0.73,9.73,-0.15,0.05,0.15
2106,0.61,0.38,8.89,-0.15,0.05,0.15
2111,0.77,0.65,9.16,-0.15,0.05,0.15
2116,0.69,0.73,9.20,-0.15,0.05,0.15
2121,1.23,0.77,8.96,-0.15,0.05,0.15
2126,0.92,0.50,9.58,-0.15,0.05,0.15
2131,0.92,0.50,9.58,-0.23,0.04,-0.06
2136,1.30,0.11,10.11,-0.23,0.04,-0.06
2141,1.19,0.15,9.69,-0.23,0.04,-0.06
2146,0.77,0.30,9.30,-0.23,0.04,-0.06
2151,0.15,0.73,9.46,-0.23,0.04,-0.06
2156,0.50,1.04,9.92,-0.23,0.04,-0.06
2161,0.77,0.54,9.73,-0.23,0.04,-0.06
2166,0.77,0.54,9.73,-0.30,0.03,-0.36
2170,0.77,0.54,9.73,-0.31,0.06,-0.40
2176,1.19,1.00,10.15,-0.31,0.06,-0.40
2182,1.46,0.96,9.61,-0.31,0.06,-0.40
2186,1.46,0.96,9.61,-0.32,0.04,-0.52
2191,1.46,0.96,9.61,-0.33,0.06,-0.56
2196,1.99,1.07,10.19,-0.33,0.06,-0.56
2201,1.99,1.07,10.19,-0.32,0.15,-0.63
2206,0.19,1.27,8.62,-0.32,0.15,-0.63
2211,-0.23,1.80,9.08,-0.32,0.15,-0.63
2216,-0.08,1.07,9.31,-0.32,0.15,-0.63
2222,1.38,1.53,10.07,-0.32,0.15,-0.63
2226,1.80,0.73,10.19,-0.32,0.15,-0.63
2232,1.72,1.11,9.65,-0.32,0.15,-0.63
2236,1.72,1.11,9.65,-0.38,0.11,-0.88
2241,1.15,0.84,9.38,-0.38,0.11,-0.88
2246,1.57,1.19,9.73,-0.38,0.11,-0.88
2251,1.80,1.07,9.50,-0.38,0.11,-0.88
2255,1.80,1.07,9.50,-0.37,0.09,-0.96
2261,1.46,1.15,10.23,-0.37,0.09,-0.96
2267,1.46,1.15,10.23,-0.36,0.11,-0.96
2272,1.80,0.46,9.54,-0.36,0.11,-0.96
2276,1.95,0.04,9.50,-0.36,0.11,-0.96
2281,1.76,0.11,9.65,-0.36,0.11,-0.96
2286,1.19,0.54,9.65,-0.36,0.11,-0.96
2291,0.96,0.27,8.85,-0.36,0.11,-0.96
2297,0.54,0.73,9.20,-0.36,0.11,-0.96
2302,0.30,0.61,8.58,-0.36,0.11,-0.96
2306,0.30,0.61,8.58,-0.31,0.09,-1.13
2311,0.30,0.61,8.58,-0.31,0.08,-1.15
2316,0.92,0.15,9.54,-0.31,0.08,-1.15
2322,1.30,-0.08,9.34,-0.31,0.08,-1.15
2326,0.61,0.15,9.30,-0.31,0.08,-1.15
2331,0.46,0.61,9.27,-0.31,0.08,-1.15
2337,0.50,0.04,8.42,-0.31,0.08,-1.15
2341,0.50,0.04,8.42,-0.28,0.06,-1.17
2346,2.14,0.11,9.43,-0.28,0.06,-1.17
2352,2.84,-0.54,9.88,-0.28,0.06,-1.17
2356,2.84,-0.54,9.88,-0.24,0.07,-1.14
2361,2.18,-0.30,9.35,-0.24,0.07,-1.14
2366,1.72,0.19,9.58,-0.24,0.07,-1.14
2371,1.72,0.19,9.58,-0.22,0.09,-1.10
2376,1.72,0.19,9.58,-0.21,0.08,-1.09
2381,1.00,-0.57,10.04,-0.21,0.08,-1.09
2387,2.03,-0.88,11.15,-0.21,0.08,-1.09
2391,2.03,-0.88,11.15,-0.17,0.08,-1.01
2396,2.45,-0.57,10.57,-0.17,0.08,-1.01
2402,2.34,-0.73,10.57,-0.17,0.08,-1.01
2406,2.34,-0.73,10.57,-0.13,0.09,-0.94
2411,2.34,-0.73,10.57,-0.12,0.12,-0.93
2416,0.69,-0.73,8.62,-0.12,0.12,-0.93
2422,0.73,-1.07,9.04,-0.12,0.12,-0.93
2426,0.73,-1.07,9.04,-0.09,0.07,-0.84
2431,0.73,-1.07,9.04,-0.07,0.06,-0.80
2435,1.42,-1.72,10.39,-0.07,0.06,-0.80
2440,1.42,-1.72,10.39,-0.06,0.06,-0.78
2448,1.42,-1.72,10.39,-0.04,0.08,-0.74
2453,0.88,-1.99,9.58,-0.04,0.08,-0.74
2456,0.88,-1.99,9.58,0.00,0.05,-0.63
2461,0.88,-1.99,9.58,0.01,0.04,-0.59
2466,1.42,-2.80,9.00,0.01,0.04,-0.59
2471,1.49,-3.33,9.50,0.01,0.04,-0.59
2477,1.88,-3.64,9.69,0.01,0.04,-0.59
2481,1.88,-3.64,9.69,0.11,0.05,-0.43
2486,1.38,-3.33,10.57,0.11,0.05,-0.43
2491,0.38,-3.07,9.65,0.11,0.05,-0.43
2497,1.61,-3.26,9.73,0.11,0.05,-0.43
2501,0.38,-2.80,9.50,0.11,0.05,-0.43
2506,0.23,-2.68,9.23,0.11,0.05,-0.43
2511,0.23,-2.68,9.23,0.18,0.03,-0.24
2516,0.23,-2.68,9.23,0.19,0.02,-0.21
2522,1.30,-3.41,9.04,0.19,0.02,-0.21
2526,1.30,-3.41,9.04,0.22,0.02,-0.12
2531,1.30,-3.41,9.04,0.24,0.04,-0.10
2536,0.80,-2.49,9.35,0.24,0.04,-0.10
2542,0.57,-2.57,9.12,0.24,0.04,-0.10
2546,0.57,-2.57,9.12,0.25,0.02,-0.02
2551,0.57,-2.57,9.12,0.26,0.02,-0.00
2557,0.42,-2.41,10.27,0.26,0.02,-0.00
2561,0.42,-2.41,10.27,0.27,0.01,0.05
2566,0.42,-2.41,10.27,0.28,0.00,0.08
2571,0.42,-2.41,10.27,0.29,-0.02,0.11
2577,1.04,-2.53,9.69,0.29,-0.02,0.11
2581,1.04,-2.53,9.69,0.30,-0.03,0.16
2586,0.42,-1.80,9.23,0.30,-0.03,0.16
2591,1.68,-2.07,9.61,0.30,-0.03,0.16
2597,1.49,-1.61,9.73,0.30,-0.03,0.16
2601,1.49,-1.61,9.73,0.32,-0.03,0.23
2606,1.99,-1.23,10.61,0.32,-0.03,0.23
2611,1.42,-1.19,9.69,0.32,-0.03,0.23
2617,1.19,-1.11,9.61,0.32,-0.03,0.23
2621,0.65,-1.30,8.54,0.32,-0.03,0.23
2626,0.84,-1.11,8.70,0.32,-0.03,0.23
2631,0.84,-1.11,8.70,0.28,-0.05,0.27
2637,0.84,-1.11,8.70,0.27,-0.04,0.28
2642,1.88,-0.65,9.77,0.27,-0.04,0.28
2646,1.88,-0.65,9.77,0.26,-0.03,0.30
2651,1.88,-0.65,9.77,0.26,-0.02,0.30
2656,1.53,-0.23,9.85,0.26,-0.02,0.30
2662,1.00,-0.92,10.00,0.26,-0.02,0.30
2666,1.00,-0.92,10.00,0.24,-0.01,0.33
2671,1.00,-0.92,10.00,0.23,-0.02,0.33
2677,1.07,-1.15,9.23,0.23,-0.02,0.33
2681,1.07,-1.15,9.23,0.23,-0.06,0.36
2686,1.07,-1.15,9.23,0.23,-0.07,0.38
2691,1.07,-1.15,9.23,0.22,-0.05,0.39
2697,2.11,-0.54,9.46,0.22,-0.05,0.39
2701,2.11,-0.54,9.46,0.21,-0.04,0.40
2706,0.73,-0.61,9.16,0.21,-0.04,0.40
2711,0.38,-0.61,9.00,0.21,-0.04,0.40
2717,1.11,-0.30,9.16,0.21,-0.04,0.40
2721,1.11,-0.30,9.16,0.19,-0.06,0.38
2726,1.15,-0.92,9.46,0.19,-0.06,0.38
2732,1.49,-0.84,9.00,0.19,-0.06,0.38
2736,1.49,-0.84,9.00,0.16,-0.07,0.34
2741,0.96,-1.00,9.42,0.16,-0.07,0.34
2746,1.68,-0.69,9.39,0.16,-0.07,0.34
2751,1.68,-0.69,9.39,0.16,-0.08,0.30
2756,1.68,-0.69,9.39,0.15,-0.07,0.29
2761,2.34,-1.95,10.23,0.15,-0.07,0.29
2767,2.34,-1.23,9.93,0.15,-0.07,0.29
2771,2.34,-1.23,9.93,0.14,-0.03,0.23
2776,1.91,-1.11,10.07,0.14,-0.03,0.23
2782,1.46,-1.23,10.00,0.14,-0.03,0.23
2786,1.46,-1.23,10.00,0.13,0.00,0.19
2791,1.46,-1.23,10.00,0.12,-0.00,0.17
2796,0.34,-1.23,9.85,0.12,-0.00,0.17
2802,0.57,-1.23,9.69,0.12,-0.00,0.17
2806,0.57,-1.23,9.69,0.07,-0.04,0.09
2811,0.57,-1.23,9.69,0.07,-0.03,0.08
2817,1.53,-1.23,9.00,0.07,-0.03,0.08
2821,1.53,-1.23,9.00,0.07,-0.03,0.06
2826,1.53,-1.23,9.00,0.07,-0.01,0.05
2831,1.53,-1.23,9.00,0.07,0.01,0.05
2837,0.65,-0.57,9.34,0.07,0.01,0.05
2841,0.65,-0.57,9.34,0.07,0.01,0.05
2846,0.65,-0.57,9.34,0.07,-0.01,0.06
2852,0.92,-1.04,10.19,0.07,-0.01,0.06
2856,0.92,-1.04,10.19,0.08,-0.02,0.07
2861,0.92,-1.04,10.19,0.08,-0.01,0.07
2867,1.30,-1.11,9.77,0.08,-0.01,0.07
2871,1.30,-1.11,9.77,0.07,-0.01,0.08
2876,1.30,-1.11,9.77,0.07,-0.02,0.09
2881,1.23,-0.73,8.66,0.07,-0.02,0.09
2887,1.34,-0.69,9.96,0.07,-0.02,0.09
2891,1.34,-0.69,9.96,0.06,0.00,0.11
2896,1.34,-0.69,9.96,0.05,-0.00,0.10
2902,0.73,-0.11,9.46,0.05,-0.00,0.10
2906,0.73,-0.11,9.46,0.04,-0.03,0.11
2911,0.73,-0.11,9.46,0.05,-0.04,0.12
2916,1.88,-0.38,9.65,0.05,-0.04,0.12
2922,1.91,-0.42,9.61,0.05,-0.04,0.12
2926,1.91,-0.42,9.61,0.05,0.00,0.16
2931,1.91,-0.42,9.61,0.04,0.01,0.15
2937,1.23,-0.04,9.73,0.04,0.01,0.15
2941,1.23,-0.04,9.73,0.04,-0.02,0.17
2946,1.23,-0.04,9.73,0.03,-0.04,0.16
2951,1.23,-0.04,9.73,0.02,-0.01,0.16
2957,2.41,-0.80,9.54,0.02,-0.01,0.16
2961,2.41,-0.80,9.54,0.01,-0.01,0.14
2966,2.41,-0.80,9.54,0.00,-0.01,0.13
2971,1.49,-0.80,9.89,0.00,-0.01,0.13
2977,1.80,-0.65,9.04,0.00,-0.01,0.13
2981,1.80,-0.65,9.04,-0.00,0.01,0.12
2986,1.19,-0.69,9.16,-0.00,0.01,0.12
2992,1.23,-1.11,9.58,-0.00,0.01,0.12
2996,1.23,-1.11,9.58,-0.02,-0.00,0.08
3001,1.23,-1.11,9.58,-0.02,-0.02,0.06
3007,1.23,-0.46,10.03,-0.02,-0.02,0.06
3011,1.23,-0.46,10.03,-0.03,-0.01,0.06
3016,1.23,-0.46,10.03,-0.04,-0.00,0.06
3022,1.65,-0.80,9.46,-0.04,-0.00,0.06
3026,1.65,-0.80,9.46,-0.04,0.00,0.04
3031,1.65,-0.80,9.46,-0.03,-0.00,0.03
3036,0.77,-0.46,9.84,-0.03,-0.00,0.03
3042,2.11,-0.84,10.23,-0.03,-0.00,0.03
3046,2.11,-0.84,10.23,-0.04,-0.03,-0.01
3051,2.11,-0.84,10.23,-0.05,-0.02,-0.02
3057,1.53,-0.61,9.54,-0.05,-0.02,-0.02
3061,1.53,-0.61,9.54,-0.06,0.01,-0.07
3066,1.53,-0.61,9.54,-0.07,0.02,-0.10
3071,1.53,-0.61,9.54,-0.08,0.00,-0.11
3077,1.57,-0.46,9.73,-0.08,0.00,-0.11
3081,1.57,-0.46,9.73,-0.09,0.04,-0.14
3086,1.57,-0.46,9.73,-0.09,0.05,-0.17
3091,1.57,-0.46,9.73,-0.11,0.04,-0.19
3097,0.61,-0.38,8.66,-0.11,0.04,-0.19
3101,0.61,-0.38,8.66,-0.12,0.01,-0.21
3106,0.61,-0.38,8.66,-0.13,0.01,-0.22
3112,1.68,-0.38,9.81,-0.13,0.01,-0.22
3116,1.68,-0.38,9.81,-0.13,0.02,-0.22
3121,1.68,-0.38,9.81,-0.13,0.02,-0.22
3127,0.80,-0.30,9.39,-0.13,0.02,-0.22
3132,0.80,-0.30,9.39,-0.11,0.02,-0.19
3136,0.80,-0.30,9.39,-0.10,0.02,-0.17
3141,0.80,-0.30,9.39,-0.09,0.01,-0.15
3148,1.23,-0.38,10.11,-0.09,0.01,-0.15
3151,1.23,-0.38,10.11,-0.08,0.01,-0.11
3156,1.23,-0.38,10.11,-0.08,0.01,-0.11
3162,1.15,-0.38,10.00,-0.08,0.01,-0.11
3166,1.15,-0.38,10.00,-0.09,0.02,-0.10
3171,1.15,-0.38,10.00,-0.09,0.02,-0.09
3177,-0.08,-0.65,9.58,-0.09,0.02,-0.09
3181,-0.08,-0.65,9.58,-0.12,0.05,-0.10
3186,-0.08,-0.65,9.58,-0.11,0.02,-0.10
3191,-0.08,-0.65,9.58,-0.11,0.00,-0.10
3197,0.27,-0.96,9.54,-0.11,0.00,-0.10
3201,0.27,-0.96,9.54,-0.12,0.00,-0.11
3206,0.27,-0.96,9.54,-0.12,-0.01,-0.12
3211,0.27,-0.96,9.54,-0.11,-0.02,-0.12
3217,1.95,-2.22,8.93,-0.11,-0.02,-0.12
3221,1.95,-2.22,8.93,-0.07,0.00,-0.11
3226,1.95,-2.22,8.93,-0.05,0.03,-0.11
3233,0.88,-2.34,9.00,-0.05,0.03,-0.11
3236,0.88,-2.34,9.00,-0.03,0.02,-0.12
3241,0.88,-2.34,9.00,-0.02,-0.01,-0.11
3247,0.73,-1.49,10.31,-0.02,-0.01,-0.11
3251,0.73,-1.49,10.31,-0.04,0.03,-0.13
3256,0.73,-1.49,10.31,-0.04,0.02,-0.14
3261,0.88,-1.42,9.42,-0.04,0.02,-0.14
3267,1.04,-1.42,9.23,-0.04,0.02,-0.14
3271,1.04,-1.42,9.23,-0.04,-0.00,-0.15
3276,1.04,-1.42,9.23,-0.05,0.01,-0.15
3282,1.11,-1.53,9.27,-0.05,0.01,-0.15
3286,1.11,-1.53,9.27,-0.05,0.00,-0.17
3291,1.11,-1.53,9.27,-0.04,0.00,-0.17
3296,1.04,-0.96,9.73,-0.04,0.00,-0.17
3302,0.54,-1.07,9.77,-0.04,0.00,-0.17
3306,0.54,-1.07,9.77,-0.05,0.05,-0.17
3311,0.54,-1.07,9.77,-0.04,0.04,-0.17
3317,0.46,-0.80,9.58,-0.04,0.04,-0.17
3321,0.46,-0.80,9.58,-0.04,0.01,-0.15
3326,0.46,-0.80,9.58,-0.04,0.01,-0.15
3332,0.46,-0.80,9.58,-0.05,0.03,-0.14
3336,0.46,-0.80,9.58,-0.05,0.02,-0.14
3341,0.46,-0.80,9.58,-0.04,0.01,-0.14
3346,0.46,-0.80,9.58,-0.04,0.01,-0.13
3352,0.34,0.00,9.46,-0.04,0.01,-0.13
3356,0.34,0.00,9.46,-0.06,0.05,-0.13
3361,0.34,0.00,9.46,-0.06,0.04,-0.13
3366,0.50,-0.30,9.27,-0.06,0.04,-0.13
3373,0.50,-0.23,9.38,-0.06,0.04,-0.13
3376,0.50,-0.23,9.38,-0.07,-0.00,-0.12
3381,1.00,0.19,9.50,-0.07,-0.00,-0.12
3387,1.23,0.08,9.77,-0.07,-0.00,-0.12
3391,1.23,0.08,9.77,-0.09,0.00,-0.13
3396,1.23,0.08,9.77,-0.09,0.00,-0.13
3402,1.07,-0.15,9.77,-0.09,0.00,-0.13
3406,1.07,-0.15,9.77,-0.10,0.02,-0.12
3411,1.07,-0.15,9.77,-0.09,0.00,-0.11
3416,1.07,-0.15,9.77,-0.10,-0.01,-0.09
3422,1.23,-0.61,9.58,-0.10,-0.01,-0.09
3426,1.23,-0.61,9.58,-0.09,0.01,-0.09
3432,1.23,-0.61,9.58,-0.09,0.01,-0.08
3437,1.46,-0.57,9.20,-0.09,0.01,-0.08
3441,1.46,-0.57,9.20,-0.09,-0.01,-0.06
3446,1.46,-0.57,9.20,-0.09,0.01,-0.06
3451,1.46,-0.57,9.20,-0.11,0.03,-0.06
3457,1.00,-0.77,9.27,-0.11,0.03,-0.06
3461,1.00,-0.77,9.27,-0.12,0.00,-0.05
3466,1.00,-0.77,9.27,-0.13,0.00,-0.06
3471,1.00,-0.77,9.27,-0.12,0.02,-0.05
3477,0.69,-1.38,9.69,-0.12,0.02,-0.05
3481,0.69,-1.38,9.69,-0.12,0.01,-0.05
3486,0.84,-1.65,10.04,-0.12,0.01,-0.05
3492,0.84,-1.38,10.15,-0.12,0.01,-0.05
3496,0.84,-1.38,10.15,-0.11,0.01,-0.03
3501,0.84,-1.38,10.15,-0.11,0.02,-0.03
3507,0.54,-1.11,9.81,-0.11,0.02,-0.03
3511,0.54,-1.11,9.81,-0.12,0.03,-0.02
3516,0.54,-1.11,9.81,-0.13,0.04,-0.01
3521,0.19,-1.27,9.69,-0.13,0.04,-0.01
3527,-0.23,-1.07,9.30,-0.13,0.04,-0.01
3532,-0.23,-1.07,9.30,-0.13,0.01,0.03
3536,-0.23,-1.07,9.30,-0.12,0.00,0.04
3542,0.50,-1.27,9.20,-0.12,0.00,0.04
3546,0.50,-1.27,9.20,-0.12,-0.00,0.08
3551,0.50,-1.27,9.20,-0.11,0.01,0.10
3557,0.65,-1.07,8.88,-0.11,0.01,0.10
3561,0.65,-1.07,8.88,-0.11,0.01,0.14
3566,0.65,-1.07,8.88,-0.10,0.01,0.17
3571,0.65,-1.07,8.88,-0.09,0.01,0.19
3577,0.08,-1.68,9.46,-0.09,0.01,0.19
3581,0.08,-1.68,9.46,-0.09,0.01,0.22
3586,0.08,-1.68,9.46,-0.09,-0.00,0.24
3591,0.08,-1.68,9.46,-0.09,-0.02,0.25
3597,0.30,-2.14,9.58,-0.09,-0.02,0.25
3601,0.30,-2.14,9.58,-0.07,-0.02,0.27
3606,0.30,-2.14,9.58,-0.07,-0.00,0.28
3612,0.50,-2.14,9.96,-0.07,-0.00,0.28
3616,0.50,-2.14,9.96,-0.07,0.00,0.30
3621,0.50,-2.14,9.96,-0.07,-0.00,0.31
3626,-0.19,-1.61,9.61,-0.07,-0.00,0.31
3632,-0.42,-1.61,9.77,-0.07,-0.00,0.31
3636,-0.42,-1.61,9.77,-0.07,0.01,0.35
3641,-0.42,-1.61,9.77,-0.08,-0.02,0.37
3647,0.61,-1.49,9.58,-0.08,-0.02,0.37
3651,0.61,-1.49,9.58,-0.07,-0.01,0.41
3656,0.61,-1.49,9.58,-0.07,0.01,0.42
3661,0.61,-1.49,9.58,-0.07,-0.00,0.45
3666,0.61,-1.49,9.58,-0.06,-0.02,0.46
3671,0.61,-1.49,9.58,-0.07,-0.01,0.49
3676,0.61,-1.49,9.58,-0.06,-0.01,0.51
3681,1.07,-1.80,10.15,-0.06,-0.01,0.51
3686,1.07,-1.80,10.15,-0.04,-0.01,0.57
3691,1.07,-1.80,10.15,-0.04,-0.00,0.58
3697,0.42,-1.00,9.04,-0.04,-0.00,0.58
3701,0.42,-1.00,9.04,-0.03,-0.01,0.62
3706,0.42,-1.00,9.04,-0.03,-0.03,0.63
3711,0.42,-1.00,9.04,-0.02,-0.03,0.66
3717,1.30,-1.61,9.61,-0.02,-0.03,0.66
3721,1.30,-1.61,9.61,-0.01,-0.01,0.69
3726,1.30,-1.61,9.61,-0.02,-0.01,0.70
3732,1.04,-0.73,9.30,-0.02,-0.01,0.70
3736,1.04,-0.73,9.30,-0.03,-0.03,0.71
3741,1.04,-0.73,9.30,-0.04,-0.02,0.71
3746,1.04,-0.73,9.30,-0.05,0.00,0.71
3752,1.61,-0.73,9.77,-0.05,0.00,0.71
3756,1.61,-0.73,9.77,-0.05,-0.01,0.72
3761,1.61,-0.73,9.77,-0.05,-0.02,0.73
3767,1.65,-0.54,9.69,-0.05,-0.02,0.73
3771,1.65,-0.54,9.69,-0.05,-0.01,0.73
3776,1.65,-0.54,9.69,-0.06,-0.02,0.73
3781,1.65,-0.54,9.69,-0.07,-0.01,0.72
3786,1.65,-0.54,9.69,-0.07,0.00,0.71
3791,1.65,-0.54,9.69,-0.08,0.02,0.69
3796,1.65,-0.54,9.69,-0.09,0.01,0.68
3801,2.07,-1.80,10.04,-0.09,0.01,0.68
3806,2.07,-1.80,10.04,-0.10,-0.00,0.65
3810,2.07,-1.80,10.04,-0.11,0.01,0.64
3816,2.07,-1.80,10.04,-0.09,0.02,0.63
3822,1.76,-1.57,9.54,-0.09,0.02,0.63
3826,1.76,-1.57,9.54,-0.10,0.01,0.59
3831,1.76,-1.57,9.54,-0.10,0.00,0.57
3837,2.45,-2.03,9.92,-0.10,0.00,0.57
3841,2.45,-2.03,9.92,-0.08,0.04,0.53
3846,2.45,-2.03,9.92,-0.08,0.05,0.50
3852,2.45,-2.03,9.92,-0.09,0.05,0.47
3856,2.45,-2.03,9.92,-0.09,0.04,0.44
3861,2.45,-2.03,9.92,-0.10,0.02,0.41
3866,2.45,-2.03,9.92,-0.10,0.02,0.37
3872,2.26,-1.91,9.65,-0.10,0.02,0.37
3876,2.26,-1.91,9.65,-0.10,0.04,0.31
3881,2.26,-1.91,9.65,-0.10,0.04,0.29
3887,2.26,-1.91,9.65,-0.10,0.04,0.25
3891,2.26,-1.91,9.65,-0.10,0.04,0.22
3896,2.26,-1.91,9.65,-0.10,0.05,0.20
3902,2.26,-1.91,9.65,-0.10,0.05,0.18
3906,2.26,-1.91,9.65,-0.09,0.06,0.15
3911,2.26,-1.91,9.65,-0.11,0.05,0.13
3916,2.26,-1.91,9.65,-0.12,0.04,0.11
3921,2.26,-1.91,9.65,-0.14,0.04,0.09
3926,2.26,-1.91,9.65,-0.16,0.05,0.06
3931,2.26,-1.91,9.65,-0.18,0.06,0.04
3937,2.26,-1.91,9.65,-0.20,0.06,0.03
3941,2.26,-1.91,9.65,-0.21,0.07,0.00
3946,2.26,-1.91,9.65,-0.21,0.06,-0.01
3951,2.26,-1.91,9.65,-0.21,0.05,-0.04
3957,0.19,-1.88,10.88,-0.21,0.05,-0.04
3961,0.19,-1.88,10.88,-0.18,0.11,-0.04
3966,0.19,-1.88,10.88,-0.20,0.10,-0.05
3971,0.19,-1.88,10.88,-0.19,0.08,-0.06
3976,0.19,-1.88,10.88,-0.18,0.06,-0.04
3981,0.19,-1.88,10.88,-0.18,0.10,-0.01
3986,0.19,-1.88,10.88,-0.18,0.12,-0.01
3992,0.04,-3.29,6.93,-0.18,0.12,-0.01
3996,0.04,-3.29,6.93,-0.21,0.05,-0.03
4001,0.04,-3.29,6.93,-0.20,0.00,-0.00
4007,0.04,-3.29,6.93,-0.19,0.05,0.03
4011,0.04,-3.29,6.93,-0.19,0.11,0.02
4016,0.04,-3.29,6.93,-0.19,0.10,0.03
4021,0.04,-3.29,6.93,-0.18,0.06,0.06
4027,2.68,-3.41,11.72,-0.18,0.06,0.06
4032,2.68,-3.41,11.72,-0.20,0.02,0.12
4036,2.68,-3.41,11.72,-0.18,0.05,0.14
4041,2.68,-3.41,11.72,-0.17,0.07,0.15
4046,2.68,-3.41,11.72,-0.16,0.06,0.18
4051,2.68,-3.41,11.72,-0.15,0.05,0.21
4056,2.68,-3.41,11.72,-0.15,0.01,0.23
4062,1.76,-1.84,8.96,-0.15,0.01,0.23
4066,1.76,-1.84,8.96,-0.13,0.00,0.29
4071,1.76,-1.84,8.96,-0.09,0.04,0.30
4076,1.76,-1.84,8.96,-0.09,0.06,0.32
4081,1.76,-1.84,8.96,-0.09,0.04,0.31
4086,1.76,-1.84,8.96,-0.08,0.03,0.31
4091,1.76,-1.84,8.96,-0.08,0.05,0.32
4097,1.42,-1.30,10.15,-0.08,0.05,0.32
4101,1.42,-1.30,10.15,-0.11,0.09,0.30
4106,1.42,-1.30,10.15,-0.10,0.08,0.29
4111,1.42,-1.30,10.15,-0.10,0.08,0.29
4116,1.42,-1.30,10.15,-0.10,0.09,0.28
4121,1.42,-1.30,10.15,-0.08,0.08,0.27
4126,1.42,-1.30,10.15,-0.08,0.08,0.26
4132,-0.11,-0.46,9.46,-0.08,0.08,0.26
4136,-0.11,-0.46,9.46,-0.06,0.05,0.24
4141,-0.11,-0.46,9.46,-0.05,0.05,0.24
4147,-0.11,-0.46,9.46,-0.05,0.05,0.23
4151,-0.11,-0.46,9.46,-0.05,0.07,0.21
4156,-0.11,-0.46,9.46,-0.05,0.06,0.19
4161,-0.11,-0.46,9.46,-0.07,0.06,0.16
4166,-0.11,-0.46,9.46,-0.10,0.07,0.13
4171,-0.11,-0.46,9.46,-0.12,0.07,0.09
4176,-0.11,-0.46,9.46,-0.14,0.07,0.06
4182,-2.72,0.00,8.20,-0.14,0.07,0.06
4186,-2.72,0.00,8.20,-0.17,0.06,-0.01
4191,-2.72,0.00,8.20,-0.19,0.05,-0.04
4196,-2.72,0.00,8.20,-0.21,0.06,-0.07
4201,-2.72,0.00,8.20,-0.22,0.07,-0.10
4206,-2.72,0.00,8.20,-0.23,0.08,-0.12
4211,-2.72,0.00,8.20,-0.24,0.08,-0.15
4217,-1.53,-0.80,9.73,-0.24,0.08,-0.15
4221,-1.53,-0.80,9.73,-0.25,0.08,-0.19
4226,-1.53,-0.80,9.73,-0.24,0.08,-0.21
4231,-1.53,-0.80,9.73,-0.25,0.09,-0.22
4236,-1.53,-0.80,9.73,-0.26,0.09,-0.23
4241,-1.53,-0.80,9.73,-0.27,0.09,-0.23
4246,-1.53,-0.80,9.73,-0.28,0.10,-0.25
4252,-0.38,-1.04,9.27,-0.28,0.10,-0.25
4256,-0.38,-1.04,9.27,-0.28,0.09,-0.26
4261,-0.38,-1.04,9.27,-0.28,0.09,-0.25
4266,-0.38,-1.04,9.27,-0.27,0.08,-0.24
4271,-0.38,-1.04,9.27,-0.27,0.08,-0.23
4276,-0.38,-1.04,9.27,-0.27,0.09,-0.23
4281,-0.38,-1.04,9.27,-0.26,0.10,-0.22
4287,-0.08,-1.38,9.27,-0.26,0.10,-0.22
4291,-0.08,-1.38,9.27,-0.27,0.10,-0.20
4296,-0.08,-1.38,9.27,-0.27,0.10,-0.19
4301,-0.08,-1.38,9.27,-0.27,0.10,-0.18
4306,-0.08,-1.38,9.27,-0.27,0.09,-0.16
4311,-0.08,-1.38,9.27,-0.26,0.09,-0.15
4316,-0.08,-1.38,9.27,-0.26,0.09,-0.14
4322,-0.34,-1.15,8.96,-0.26,0.09,-0.14
4326,-0.34,-1.15,8.96,-0.27,0.10,-0.11
4331,-0.34,-1.15,8.96,-0.28,0.09,-0.12
4337,-0.34,-1.15,8.96,-0.25,0.09,-0.11
4341,-0.34,-1.15,8.96,-0.26,0.08,-0.10
4346,-0.34,-1.15,8.96,-0.28,0.08,-0.10
4351,-0.34,-1.15,8.96,-0.28,0.08,-0.11
4357,-0.84,-1.88,9.16,-0.28,0.08,-0.11
4361,-0.84,-1.88,9.16,-0.29,0.08,-0.12
4366,-0.84,-1.88,9.16,-0.30,0.09,-0.13
4372,-0.84,-1.88,9.16,-0.31,0.08,-0.13
4376,-0.84,-1.88,9.16,-0.30,0.08,-0.13
4381,-0.84,-1.88,9.16,-0.32,0.09,-0.13
4386,-0.84,-1.88,9.16,-0.32,0.10,-0.14
4392,-2.07,-3.87,9.08,-0.32,0.10,-0.14
4396,-2.07,-3.87,9.08,-0.35,0.08,-0.13
4401,-2.07,-3.87,9.08,-0.33,0.07,-0.14
4407,-2.57,-3.26,9.34,-0.33,0.07,-0.14
4411,-2.57,-3.26,9.34,-0.33,0.11,-0.20
4416,-2.57,-3.26,9.34,-0.33,0.09,-0.19
4421,-2.57,-3.26,9.34,-0.33,0.10,-0.21
4427,-1.19,-3.33,9.43,-0.33,0.10,-0.21
4431,-1.19,-3.33,9.43,-0.33,0.11,-0.25
4436,-1.19,-3.33,9.43,-0.32,0.11,-0.26
4442,-1.30,-3.48,8.77,-0.32,0.11,-0.26
4446,-1.30,-3.48,8.77,-0.33,0.09,-0.31
4450,-1.30,-3.48,8.77,-0.33,0.09,-0.34
4456,-1.30,-3.48,8.77,-0.32,0.08,-0.38
4462,-2.95,-2.91,9.27,-0.32,0.08,-0.38
4466,-2.95,-2.91,9.27,-0.35,0.12,-0.40
4471,-2.95,-2.91,9.27,-0.32,0.07,-0.40
4477,-1.88,-3.10,9.69,-0.32,0.07,-0.40
4481,-1.88,-3.10,9.69,-0.33,0.12,-0.47
4486,-1.88,-3.10,9.69,-0.31,0.10,-0.48
4491,-1.88,-3.10,9.69,-0.29,0.07,-0.47
4497,-1.65,-4.21,8.70,-0.29,0.07,-0.47
4501,-1.65,-4.21,8.70,-0.23,0.04,-0.45
4506,-1.65,-4.21,8.70,-0.21,0.04,-0.45
4512,-1.38,-3.75,7.93,-0.21,0.04,-0.45
4516,-1.38,-3.75,7.93,-0.21,0.06,-0.43
4521,-1.38,-3.75,7.93,-0.20,0.05,-0.44
4526,-1.38,-3.75,7.93,-0.21,0.04,-0.44
4532,-2.07,-4.25,8.77,-0.21,0.04,-0.44
4536,-2.07,-4.25,8.77,-0.21,0.05,-0.44
4541,-2.07,-4.25,8.77,-0.21,0.05,-0.44
4547,-1.57,-4.83,9.61,-0.21,0.05,-0.44
4551,-1.57,-4.83,9.61,-0.19,0.03,-0.44
4556,-1.57,-4.83,9.61,-0.19,0.03,-0.45
4562,-1.57,-4.83,9.61,-0.18,0.05,-0.43
4566,-1.57,-4.83,9.61,-0.18,0.05,-0.43
4571,-1.57,-4.83,9.61,-0.16,0.05,-0.42
4576,-1.57,-4.83,9.61,-0.15,0.05,-0.40
4582,-1.61,-4.29,8.70,-0.15,0.05,-0.40
4586,-1.61,-4.29,8.70,-0.12,0.05,-0.36
4591,-1.61,-4.29,8.70,-0.10,0.04,-0.34
4597,-1.61,-4.29,8.70,-0.09,0.02,-0.33
4601,-1.61,-4.29,8.70,-0.09,0.02,-0.31
4606,-1.61,-4.29,8.70,-0.08,0.02,-0.30
4611,-1.61,-4.29,8.70,-0.07,0.02,-0.28
4617,-1.65,-4.33,9.00,-0.07,0.02,-0.28
4621,-1.65,-4.33,9.00,-0.06,0.00,-0.25
4626,-1.65,-4.33,9.00,-0.05,-0.00,-0.24
4632,-1.53,-4.18,9.20,-0.05,-0.00,-0.24
4636,-1.53,-4.18,9.20,-0.02,0.01,-0.22
4641,-1.53,-4.18,9.20,-0.03,0.01,-0.21
4646,-1.53,-4.18,9.20,-0.02,0.00,-0.20
4652,-1.30,-3.87,8.93,-0.02,0.00,-0.20
4656,-1.30,-3.87,8.93,-0.02,0.00,-0.18
4661,-1.30,-3.87,8.93,-0.01,0.02,-0.16
4667,-1.19,-3.33,9.04,-0.01,0.02,-0.16
4671,-1.19,-3.33,9.04,0.00,0.02,-0.12
4676,-1.19,-3.33,9.04,0.00,0.03,-0.11
4681,-1.19,-3.33,9.04,0.00,0.03,-0.08
4687,-1.42,-3.03,9.12,0.00,0.03,-0.08
4691,-1.42,-3.03,9.12,0.02,-0.00,-0.04
4696,-1.42,-3.03,9.12,0.02,0.01,-0.01
4702,-1.38,-3.03,9.08,0.02,0.01,-0.01
4706,-1.38,-3.03,9.08,0.04,-0.01,0.02
4711,-1.38,-3.03,9.08,0.03,-0.02,0.05
4716,-1.38,-3.03,9.08,0.04,-0.01,0.06
4722,-1.34,-2.76,8.82,0.04,-0.01,0.06
4726,-1.34,-2.76,8.82,0.03,0.00,0.08
4731,-1.34,-2.76,8.82,0.02,-0.00,0.08
4737,-1.53,-2.57,8.96,0.02,-0.00,0.08
4741,-1.53,-2.57,8.96,0.03,-0.01,0.08
4746,-1.53,-2.57,8.96,0.02,-0.01,0.10
4751,-1.53,-2.57,8.96,0.03,-0.01,0.10
4757,-1.27,-2.57,9.27,0.03,-0.01,0.10
4761,-1.27,-2.57,9.27,0.03,-0.00,0.12
4766,-1.27,-2.57,9.27,0.03,-0.00,0.12
4772,-1.27,-2.11,9.31,0.03,-0.00,0.12
4776,-1.27,-2.11,9.31,0.02,-0.00,0.13
4781,-1.27,-2.11,9.31,0.01,-0.00,0.13
4787,-1.27,-2.11,9.31,0.01,-0.01,0.14
4791,-1.27,-2.11,9.31,0.01,-0.01,0.14
4796,-1.27,-2.11,9.31,0.01,-0.00,0.15
4801,-1.27,-2.11,9.31,0.02,-0.00,0.16
4807,-1.19,-2.22,9.12,0.02,-0.00,0.16
4811,-1.19,-2.22,9.12,0.01,0.00,0.16
4816,-1.19,-2.22,9.12,0.01,-0.00,0.15
4822,-1.19,-2.22,9.12,-0.00,-0.01,0.15
4826,-1.19,-2.22,9.12,-0.00,-0.01,0.16
4831,-1.19,-2.22,9.12,0.00,-0.01,0.16
4836,-1.19,-2.22,9.12,0.00,-0.00,0.16
4842,-0.96,-2.80,9.27,0.00,-0.00,0.16
4846,-0.96,-2.80,9.27,0.01,-0.01,0.17
4851,-0.96,-2.80,9.27,0.01,-0.01,0.16
4857,-0.96,-2.80,9.27,0.01,0.00,0.16
4861,-0.96,-2.80,9.27,0.02,0.00,0.16
4866,-0.96,-2.80,9.27,0.01,-0.00,0.15
4871,-0.96,-2.80,9.27,0.02,-0.00,0.14
4877,-1.04,-2.95,9.04,0.02,-0.00,0.14
4881,-1.04,-2.95,9.04,0.02,-0.01,0.13
4886,-1.04,-2.95,9.04,0.01,-0.00,0.13
4892,-0.92,-2.80,9.16,0.01,-0.00,0.13
4896,-0.92,-2.80,9.16,0.02,-0.00,0.12
4901,-0.92,-2.80,9.16,0.01,0.00,0.11
4906,-0.92,-2.80,9.16,0.00,-0.01,0.10
4912,-0.96,-2.72,9.20,0.00,-0.01,0.10
4916,-0.96,-2.72,9.20,-0.00,-0.00,0.08
4921,-0.96,-2.72,9.20,-0.01,-0.00,0.07
4927,-0.77,-2.80,9.23,-0.01,-0.00,0.07
4831,-1.19,-2.22,9.12,0.00,-0.01,0.16
4836,-1.19,-2.22,9.12,0.00,-0.00,0.16
4842,-0.96,-2.80,9.27,0.00,-0.00,0.16
4846,-0.96,-2.80,9.27,0.01,-0.01,0.17
4851,-0.96,-2.80,9.27,0.01,-0.01,0.16
4857,-0.96,-2.80,9.27,0.01,0.00,0.16
4861,-0.96,-2.80,9.27,0.02,0.00,0.16
4866,-0.96,-2.80,9.27,0.01,-0.00,0.15
4871,-0.96,-2.80,9.27,0.02,-0.00,0.14
4877,-1.04,-2.95,9.04,0.02,-0.00,0.14
4881,-1.04,-2.95,9.04,0.02,-0.01,0.13
4886,-1.04,-2.95,9.04,0.01,-0.00,0.13
4892,-0.92,-2.80,9.16,0.01,-0.00,0.13
4896,-0.92,-2.80,9.16,0.02,-0.00,0.12
4901,-0.92,-2.80,9.16,0.01,0.00,0.11
