timestamp,accX,accY,accZ,gyroX,gyroY,gyroZ
19,2.45,2.53,8.85,0.0,0.0,-0.0
22,2.45,0.34,10.57,-0.05,0.03,-0.27
31,-3.68,0.5,6.63,-0.09,0.13,-0.26
41,-0.69,-1.53,7.66,-0.09,0.13,-0.26
51,0.27,-1.57,10.0,-0.09,0.13,-0.26
61,2.41,-1.91,13.14,-0.09,0.13,-0.26
72,2.91,-0.84,13.18,-0.06,0.09,-0.21
81,0.34,-1.88,10.91,-0.06,0.09,-0.21
91,2.18,-0.34,12.26,-0.06,0.09,-0.21
101,0.19,0.15,9.93,-0.06,0.09,-0.21
111,-1.34,-0.19,7.7,-0.01,0.06,-0.18
122,1.49,-1.34,9.38,-0.01,0.06,-0.18
131,1.8,-0.38,9.84,-0.01,0.06,-0.18
142,-0.65,-0.38,8.35,-0.04,0.09,-0.2
151,-1.3,-0.61,8.88,-0.04,0.09,-0.2
162,-0.77,-0.08,7.59,0.01,-0.04,-0.16
171,0.65,-0.23,9.5,0.01,-0.14,-0.15
182,1.72,-0.42,10.65,0.01,-0.14,-0.15
191,1.65,-1.65,8.5,0.01,-0.03,-0.15
202,3.37,-1.68,10.23,0.03,-0.04,-0.13
211,1.27,-1.84,10.65,0.03,-0.04,-0.13
221,-1.91,-0.92,9.16,0.03,-0.04,-0.13
232,-4.21,-0.46,9.54,0.08,0.11,-0.12
241,-1.61,0.19,8.24,0.09,0.08,-0.07
251,0.54,0.04,8.89,0.09,0.08,-0.07
261,3.48,-0.46,10.3,0.09,0.08,-0.07
271,4.98,-1.53,9.12,0.09,0.08,-0.07
281,2.84,-1.99,10.19,0.09,0.08,-0.07
291,-14.9,-0.96,9.88,0.09,0.08,-0.07
302,-8.08,1.61,12.3,0.09,0.08,-0.07
311,-8.08,1.61,12.3,0.11,0.02,-0.3
321,6.05,0.8,8.31,0.11,0.02,-0.3
331,11.07,-1.68,8.04,0.11,0.02,-0.3
341,0.27,0.77,7.55,0.11,0.02,-0.3
351,-8.12,1.0,5.17,0.11,0.02,-0.3
362,-5.25,4.25,7.43,0.11,0.02,-0.3
371,4.02,2.61,6.59,0.11,0.02,-0.3
382,6.4,-3.29,9.89,0.11,0.02,-0.3
391,4.02,-5.71,15.82,0.19,0.38,-0.05
401,1.0,0.84,9.54,0.19,0.38,-0.05
412,1.57,0.19,10.27,0.19,0.38,-0.05
421,-0.23,-3.26,8.54,0.19,0.38,-0.05
432,-0.92,-2.68,9.96,0.19,0.38,-0.05
441,-4.14,-0.57,9.08,0.19,0.38,-0.05
452,-5.79,-0.92,8.92,0.19,0.38,-0.05
461,-0.11,-1.46,9.46,0.22,-0.23,0.19
471,0.8,-0.57,7.36,0.22,-0.23,0.19
481,-1.84,-1.38,6.79,0.22,-0.23,0.19
492,-4.06,-1.19,7.74,0.22,-0.23,0.19
501,-1.23,-0.84,8.01,0.29,0.03,0.51
511,-0.15,-0.73,8.81,0.29,0.03,0.51
521,1.65,-1.46,10.96,0.29,0.03,0.51
532,2.38,-2.53,10.27,0.29,0.03,0.51
541,-0.92,-2.49,10.96,0.29,0.03,0.51
551,-1.0,-1.04,9.85,0.29,0.03,0.51
562,1.42,-0.19,5.86,0.29,0.03,0.51
571,1.42,-0.19,5.86,0.23,-0.14,0.61
581,-0.73,-2.11,11.26,0.23,-0.14,0.61
591,-0.19,-1.99,11.95,0.23,-0.14,0.61
601,-1.07,-1.95,10.77,0.3,-0.13,0.68
611,4.14,-0.84,11.8,0.3,-0.13,0.68
621,5.82,-0.92,13.91,0.32,-0.09,0.62
633,-2.38,-0.57,10.95,0.31,0.02,0.56
641,-1.04,0.57,10.19,0.26,0.1,0.49
651,-1.61,0.96,8.08,0.15,-0.13,0.28
662,-0.61,1.99,9.38,0.15,-0.13,0.28
671,-0.61,1.99,9.38,0.03,-0.09,0.04
682,1.3,1.88,11.04,0.03,-0.09,0.04
692,1.3,1.88,11.04,-0.01,0.05,-0.15
701,1.91,2.91,9.89,-0.01,-0.06,-0.24
711,2.26,4.29,10.0,-0.03,-0.03,-0.3
721,2.91,3.29,9.61,-0.06,0.09,-0.38
731,0.04,3.22,7.39,-0.06,0.09,-0.38
742,-0.46,2.45,8.27,-0.13,0.01,-0.55
751,-0.61,2.3,11.68,-0.13,0.01,-0.55
761,-6.32,1.68,7.24,-0.13,0.01,-0.55
771,-2.61,3.87,8.58,-0.13,0.01,-0.55
781,2.84,1.84,10.23,-0.13,0.01,-0.55
791,2.84,1.53,8.42,-0.23,-0.38,-0.94
801,2.11,-0.8,9.04,-0.23,-0.38,-0.94
811,-0.54,-1.07,8.62,-0.14,0.45,-0.8
822,-0.96,0.04,9.23,-0.14,0.45,-0.8
831,-0.96,0.04,9.23,-0.07,-0.22,-0.64
842,-0.8,-2.8,11.07,-0.07,-0.22,-0.64
851,-0.84,-4.94,8.73,-0.07,-0.22,-0.64
861,-1.07,-3.48,9.61,0.15,0.04,-0.12
872,-1.38,-3.79,9.43,0.15,0.04,-0.12
882,-2.49,-4.45,7.36,0.23,0.03,0.13
891,-3.26,-4.94,7.36,0.35,0.05,0.54
901,-3.52,-3.98,6.71,0.39,-0.01,0.69
911,-3.68,-4.94,8.12,0.46,-0.18,1.01
922,0.11,-4.37,11.45,0.46,-0.18,1.01
931,0.11,-4.37,11.45,0.59,-0.08,1.3
942,-2.14,-4.71,8.27,0.59,-0.08,1.3
952,-2.14,-4.71,8.27,0.63,-0.1,1.6
961,0.08,-3.26,11.76,0.59,-0.01,1.57
971,-0.57,-3.14,10.96,0.6,0.05,1.63
981,0.77,-3.37,10.77,0.66,-0.19,1.78
991,-3.87,-1.61,6.89,0.66,-0.19,1.78
1002,-3.1,-3.29,8.16,0.56,-0.12,1.96
1011,-1.95,-3.14,5.52,0.56,-0.12,1.96
1021,3.1,-0.8,9.16,0.56,-0.12,1.96
1031,6.51,-4.64,13.57,0.57,-0.13,1.96
1042,0.57,-2.38,13.29,0.54,-0.07,1.87
1051,0.57,-2.38,13.29,0.6,-0.03,1.87
1062,1.84,-2.18,11.34,0.6,-0.03,1.87
1071,1.84,-2.18,11.34,0.37,-0.02,1.46
1081,3.45,-1.07,7.7,0.34,0.06,1.43
1094,-0.46,-1.49,8.01,0.29,0.11,1.42
1101,-1.38,0.5,8.04,0.18,-0.05,1.22
1111,-0.38,-0.15,9.54,0.18,-0.05,1.22
1122,-2.61,1.42,6.89,0.13,0.07,1.02
1132,3.91,2.34,9.23,0.13,0.07,1.02
1141,0.61,1.46,10.88,0.11,-0.11,0.79
1151,1.15,1.23,9.88,-0.02,0.15,0.58
1162,2.87,1.8,11.3,-0.02,0.15,0.58
1171,1.8,3.95,10.65,-0.12,0.24,0.21
1182,4.41,2.87,10.92,-0.12,0.24,0.21
1192,4.41,2.87,10.92,-0.18,0.27,-0.16
1201,-0.3,2.26,9.69,-0.24,0.26,-0.24
1212,-0.3,2.26,9.69,-0.28,0.03,-0.42
1221,1.53,1.34,10.88,-0.24,0.09,-0.48
1232,1.53,1.34,10.88,-0.31,0.16,-0.52
1241,3.41,1.04,8.23,-0.3,0.0,-0.63
1252,1.84,0.54,9.92,-0.3,0.0,-0.63
1262,1.38,-0.27,10.91,-0.28,0.19,-0.61
1273,1.15,0.42,10.65,-0.22,0.11,-0.57
1282,1.15,0.42,10.65,-0.2,0.16,-0.51
1291,0.11,-0.3,8.7,-0.16,0.08,-0.36
1302,-1.42,-0.08,8.42,-0.16,0.05,-0.32
1311,-1.42,-0.08,8.42,-0.16,0.04,-0.15
1322,-5.05,4.41,7.59,-0.16,0.04,-0.15
1332,-5.05,4.41,7.59,-0.21,-0.01,0.23
1342,3.29,-3.41,10.41,-0.08,-0.33,0.3
1352,3.29,-3.41,10.41,0.22,-0.04,0.59
1362,4.02,-4.94,11.07,0.36,0.17,0.78
1372,1.38,6.78,9.61,0.4,0.08,0.84
1382,1.38,6.78,9.61,0.04,0.26,0.65
1392,-7.32,-3.83,8.5,0.04,0.26,0.65
1402,-7.32,-3.83,8.5,-0.05,-0.04,0.46
1412,0.11,-11.49,12.87,0.2,-0.47,0.7
1423,6.32,-2.76,10.31,0.33,-0.49,0.63
1431,6.32,-2.76,10.31,0.11,0.56,0.57
1442,-6.36,-3.98,7.24,0.11,0.56,0.57
1452,-6.36,-3.98,7.24,0.23,-0.12,1.08
1462,0.08,-0.69,10.27,0.23,-0.12,1.08
1472,0.08,-0.69,10.27,0.43,-0.28,1.26
1482,8.04,1.72,14.29,0.32,0.3,1.2
1491,8.04,1.72,14.29,0.25,0.24,1.2
1501,-4.06,0.04,9.73,0.18,0.19,1.19
1511,-0.46,0.73,7.97,0.18,0.22,1.21
1522,-0.46,0.73,7.97,0.2,0.15,1.33
1532,-0.46,0.73,7.97,0.13,0.1,1.46
1542,-4.6,-0.27,9.0,0.13,0.06,1.54
1551,-1.0,-2.84,9.34,0.14,-0.19,1.64
1562,-1.38,-0.73,9.92,0.17,-0.26,1.59
1572,-1.38,-0.73,9.92,0.12,0.21,1.54
1582,-0.57,1.38,9.43,0.08,0.04,1.46
1592,-0.57,1.38,9.43,-0.01,0.1,1.34
1602,-0.84,0.96,12.41,-0.06,0.22,1.24
1611,-0.84,0.96,12.41,-0.06,-0.0,1.11
1622,1.0,0.65,9.42,-0.1,0.22,1.05
1632,-2.18,3.14,7.74,-0.18,0.35,1.05
1642,-2.18,3.14,7.74,-0.31,0.08,0.85
1651,4.29,-2.57,13.71,-0.31,0.08,0.85
1662,4.29,-2.57,13.71,-0.17,0.16,0.71
1671,4.29,-2.57,13.71,-0.21,0.29,0.58
1682,0.8,2.72,9.12,-0.27,0.21,0.51
1692,0.8,2.72,9.12,-0.42,0.33,0.26
1702,-0.15,2.49,7.24,-0.42,0.33,0.26
1711,-0.15,2.49,7.24,-0.52,0.35,0.21
1722,-2.68,3.33,7.2,-0.54,0.28,0.17
1732,-2.68,3.33,7.2,-0.55,0.13,0.16
1741,-2.68,0.92,2.57,-0.55,0.09,0.25
1752,-2.68,0.92,2.57,-0.45,-0.13,0.36
1761,-2.68,0.92,2.57,-0.33,0.16,0.15
1773,0.65,-0.69,14.94,-0.33,0.16,0.15
1782,0.65,-0.69,14.94,-0.41,0.5,-0.2
1792,-6.82,4.14,2.61,-0.68,0.45,-0.35
1801,-1.72,4.06,4.21,-0.82,0.41,-0.42
1811,-0.04,2.41,7.66,-0.79,-0.02,-0.39
1822,1.72,-2.26,14.21,-0.7,-0.11,-0.36
1832,1.72,-2.26,14.21,-0.38,0.07,-0.15
1842,2.68,1.72,10.39,-0.42,0.25,-0.18
1851,2.68,1.72,10.39,-0.57,0.21,-0.24
1861,0.0,3.26,3.33,-0.74,0.14,-0.32
1872,0.0,3.26,3.33,-0.76,0.07,-0.5
1882,0.0,3.26,3.33,-0.67,0.09,-0.49
1893,2.84,0.46,11.46,-0.67,0.09,-0.49
1902,2.84,0.46,11.46,-0.57,0.07,-0.59
1912,1.23,1.53,9.61,-0.67,0.34,-0.71
1922,-1.15,0.96,9.5,-0.71,0.34,-0.79
1931,-1.07,1.42,10.11,-0.75,0.15,-1.02
1941,4.79,1.61,11.04,-0.75,0.12,-1.1
1952,2.3,2.45,10.61,-0.75,0.08,-1.12
1961,-0.11,1.91,8.96,-0.79,0.4,-1.31
1971,-0.11,1.91,8.96,-0.77,0.34,-1.24
1981,-1.3,5.86,5.36,-0.79,0.21,-1.15
1991,-1.3,5.86,5.36,-0.77,0.23,-1.02
2002,-3.71,2.68,1.61,-0.72,0.2,-0.8
2012,1.11,-4.06,11.26,-0.68,0.1,-0.7
2022,1.11,-4.06,11.26,-0.43,-0.38,-0.39
2033,8.7,-1.27,20.19,-0.43,-0.38,-0.39
2042,8.7,-1.27,20.19,-0.46,0.43,-0.62
2051,-2.53,-1.65,8.78,-0.48,0.41,-0.64
2062,-4.17,-1.65,2.26,-0.54,0.37,-0.65
2071,-4.17,-1.65,2.26,-0.59,0.04,-0.7
2082,2.26,-4.64,8.32,-0.55,-0.13,-0.64
2091,2.26,-4.64,8.32,-0.36,0.05,-0.62
2101,-10.19,-2.11,8.31,-0.35,0.63,-0.5
2112,-10.19,-2.11,8.31,-0.28,0.21,-0.36
2121,2.49,1.46,8.77,-0.38,-0.28,-0.54
2132,6.93,1.8,13.14,-0.44,-0.44,-0.53
2142,6.93,1.8,13.14,-0.38,-0.06,-0.65
2151,0.73,1.07,10.07,-0.47,0.37,-0.65
2162,0.73,1.07,10.07,-0.36,0.35,-0.61
2171,1.72,2.49,9.93,-0.47,0.02,-0.6
2182,1.72,2.49,9.93,-0.53,0.01,-0.73
2191,1.72,2.49,9.93,-0.53,0.14,-0.73
2202,-2.87,-1.04,5.55,-0.51,0.26,-0.71
2212,-2.87,-1.04,5.55,-0.42,0.11,-0.56
2222,-2.87,-1.04,5.55,-0.49,-0.23,-0.68
2232,-2.87,-1.04,5.55,-0.42,0.04,-0.76
2242,-2.8,-1.19,8.24,-0.43,0.4,-0.83
2252,-2.8,-1.19,8.24,-0.41,0.25,-0.77
2261,-2.8,-1.19,8.24,-0.44,-0.11,-0.7
2272,1.95,-1.53,12.6,-0.49,-0.19,-0.87
2282,1.95,-1.53,12.6,-0.42,0.42,-0.85
2291,1.95,-1.53,12.6,-0.3,0.39,-0.83
2302,1.95,-1.53,12.6,-0.38,0.22,-0.63
2311,-0.88,3.79,2.53,-0.47,-0.09,-0.72
2322,-0.88,3.79,2.53,-0.44,-0.34,-0.7
2332,-0.88,3.79,2.53,-0.25,-0.13,-0.57
2342,2.03,-1.84,15.71,-0.24,0.2,-0.6
2351,2.03,-1.84,15.71,-0.31,0.6,-0.73
2362,2.03,-1.84,15.71,-0.36,0.41,-0.66
2372,2.03,-1.84,15.71,-0.43,0.34,-0.8
2382,2.03,-1.84,15.71,-0.36,-0.06,-0.64
2391,2.03,-1.84,15.71,-0.39,-0.28,-0.74
2402,3.71,-1.95,6.25,-0.38,-0.25,-0.74
2412,-2.99,-0.73,9.73,-0.32,-0.09,-0.66
2422,-2.99,-0.73,9.73,-0.3,0.36,-0.53
2432,-0.84,2.34,7.24,-0.35,0.06,-0.59
2442,-0.84,2.34,7.24,-0.38,-0.08,-0.65
2451,-0.84,2.34,7.24,-0.3,0.01,-0.55
2462,2.57,-0.42,10.84,-0.28,0.06,-0.5
2472,2.57,-0.42,10.84,-0.29,0.06,-0.67
2481,2.57,-0.42,10.84,-0.34,0.14,-0.74
2492,2.57,-0.42,10.84,-0.34,0.1,-0.83
2501,1.8,-2.18,10.0,-0.31,0.12,-0.8
2512,1.8,-2.18,10.0,-0.34,0.17,-0.88
2521,1.8,-2.18,10.0,-0.4,0.24,-0.92
2532,1.8,-2.18,10.0,-0.37,0.16,-0.88
2542,1.8,-2.18,10.0,-0.4,0.11,-0.91
2551,1.8,-2.18,10.0,-0.27,-0.05,-0.72
2561,1.8,-2.18,10.0,-0.25,-0.01,-1.01
2571,5.79,-1.53,18.27,-0.32,0.4,-1.14
2582,5.79,-1.53,18.27,-0.38,0.34,-1.37
2592,5.79,-1.53,18.27,-0.47,0.33,-1.36
2602,-1.0,0.19,5.1,-0.52,0.31,-1.43
2611,-1.0,0.19,5.1,-0.46,0.22,-1.5
2621,-1.49,-0.3,8.24,-0.4,0.18,-1.54
2632,-1.49,-0.3,8.24,-0.34,0.31,-1.54
2642,-1.49,-0.3,8.24,-0.39,0.32,-1.62
2652,-1.49,-0.3,8.24,-0.41,0.37,-1.6
2661,-1.49,-0.3,8.24,-0.41,0.3,-1.56
2672,2.57,2.45,14.29,-0.4,0.24,-1.58
2682,2.57,2.45,14.29,-0.33,0.19,-1.54
2691,3.6,-1.99,11.34,-0.33,0.45,-1.45
2702,3.6,-1.99,11.34,-0.27,0.41,-1.38
2711,3.6,-1.99,11.34,-0.23,0.32,-1.33
2722,4.75,-1.3,13.02,-0.22,0.39,-1.37
2731,4.75,-1.3,13.02,-0.22,0.47,-1.35
2741,0.96,-6.02,8.77,-0.22,0.46,-1.28
2752,0.96,-6.02,8.77,-0.09,0.45,-1.05
2762,0.96,-6.02,8.77,-0.03,0.52,-0.95
2772,0.96,-6.02,8.77,0.06,0.51,-0.75
2782,0.96,-6.02,8.77,0.13,0.45,-0.62
2792,0.04,-3.64,8.78,0.15,0.43,-0.5
2802,0.04,-3.64,8.78,0.17,0.4,-0.43
2811,0.04,-3.64,8.78,0.16,0.48,-0.38
2821,0.04,-3.64,8.78,0.18,0.53,-0.28
2832,-7.55,-2.45,5.94,0.21,0.48,-0.1
2842,-7.55,-2.45,5.94,0.19,0.25,-0.04
2852,-7.55,-2.45,5.94,0.23,-0.04,-0.01
2862,6.7,-2.34,13.14,0.22,-0.1,0.04
2871,6.7,-2.34,13.14,0.3,0.38,-0.04
2882,6.7,-2.34,13.14,0.21,0.63,-0.13
2892,6.7,-2.34,13.14,0.17,0.35,-0.22
2902,6.7,-2.34,13.14,0.06,0.36,-0.32
2912,6.7,-2.34,13.14,-0.08,-0.07,-0.29
2922,6.7,-2.34,13.14,-0.12,-0.34,-0.65
2932,0.15,-3.98,10.57,0.01,-0.05,-0.61
2941,0.15,-3.98,10.57,0.0,0.64,-0.66
2952,0.15,-3.98,10.57,-0.04,0.14,-0.8
2961,0.15,-3.98,10.57,-0.07,0.07,-1.06
2971,5.25,-1.72,9.42,-0.17,0.7,-1.13
2982,3.68,0.96,5.02,-0.18,0.73,-1.17
2992,3.68,0.96,5.02,-0.22,0.69,-1.3
3002,-18.88,-0.54,12.11,-0.3,1.03,-1.37
3011,-18.88,-0.54,12.11,0.02,1.19,-1.01
3022,-21.64,1.0,12.72,0.08,1.12,-0.77
3032,-21.64,1.0,12.72,0.11,-0.69,-0.33
3042,-21.64,1.0,12.72,-0.12,-1.46,-0.84
3052,6.82,-6.55,13.48,-0.21,-1.38,-1.05
3062,6.82,-6.55,13.48,-0.23,0.52,-0.92
3072,6.63,-2.49,14.13,-0.37,0.7,-1.11
3081,6.63,-2.49,14.13,-0.24,-0.26,-1.41
3092,6.24,-4.98,9.92,-0.11,0.02,-1.33
3102,6.24,-4.98,9.92,-0.14,0.55,-1.27
3112,1.91,-2.68,9.04,-0.12,0.3,-1.32
3122,3.41,-0.77,10.49,-0.19,0.22,-1.33
3131,3.41,-0.77,10.49,-0.21,0.15,-1.55
3141,3.41,-0.77,10.49,-0.16,0.6,-1.5
3151,3.41,-0.77,10.49,-0.04,0.74,-1.43
3162,-9.88,-1.27,10.41,0.05,0.72,-1.21
3171,-9.88,-1.27,10.41,0.14,0.44,-1.06
3182,0.15,-0.3,10.38,0.2,0.19,-1.01
3192,4.02,-3.68,6.55,0.22,-0.19,-0.88
3201,4.02,-3.68,6.55,0.29,0.46,-0.65
3212,-5.86,-3.45,10.54,0.33,0.89,-0.51
3222,-5.86,-3.45,10.54,0.34,0.6,-0.33
3232,-2.72,1.07,9.27,0.27,0.21,-0.3
3242,-0.57,-4.45,8.01,0.29,0.04,-0.27
3251,-0.57,-4.45,8.01,0.38,-0.05,0.08
3262,0.34,-0.08,12.38,0.38,0.02,0.15
3271,0.34,-0.08,12.38,0.34,0.16,0.03
3281,0.54,-1.84,10.23,0.24,0.34,-0.01
3292,0.54,-1.84,10.23,0.25,0.26,-0.01
3302,0.15,-4.21,9.54,0.28,0.23,0.04
3312,1.04,-3.56,9.0,0.28,0.27,0.02
3321,1.04,-3.56,9.0,0.27,0.22,-0.09
3332,-0.77,-3.22,7.89,0.26,0.21,-0.08
3341,-0.77,-3.22,7.89,0.22,0.19,-0.15
3352,-0.11,-3.22,7.78,0.2,0.2,-0.24
3361,-0.11,-3.22,7.78,0.19,0.17,-0.31
3372,-1.61,-1.04,8.66,0.15,0.17,-0.39
3382,-0.61,0.46,10.45,0.14,0.17,-0.38
3391,-0.61,0.46,10.45,0.11,0.18,-0.39
3401,-0.61,0.46,10.45,0.08,0.21,-0.48
3412,-0.61,0.46,10.45,0.09,0.25,-0.52
3422,-0.54,2.57,13.29,0.03,0.34,-0.58
3432,-0.54,2.57,13.29,-0.04,0.37,-0.64
3442,-0.54,2.57,13.29,-0.07,0.26,-0.68
3452,2.11,1.99,11.19,-0.07,0.23,-0.71
3461,2.11,1.99,11.19,-0.04,0.25,-0.77
3472,-1.76,0.57,10.77,-0.03,0.43,-0.8
3482,-1.76,0.57,10.77,-0.08,0.49,-0.79
3492,-5.21,0.65,7.66,-0.15,0.41,-0.83
3502,-4.86,1.27,6.82,-0.14,0.3,-0.81
3511,-4.86,1.27,6.82,-0.13,0.13,-0.74
3521,-2.3,0.46,7.43,-0.11,0.14,-0.7
3532,-2.3,0.46,7.43,-0.04,0.25,-0.58
3541,-2.3,0.46,7.43,-0.04,0.28,-0.44
3552,-2.3,0.46,7.43,-0.03,0.14,-0.35
3562,-0.57,-0.77,7.17,-0.0,-0.1,-0.18
3572,6.89,-2.41,17.78,0.02,-0.18,-0.16
3581,6.89,-2.41,17.78,0.08,0.36,-0.33
3592,-1.95,-3.1,8.04,0.07,0.47,-0.36
3601,-1.95,-3.1,8.04,-0.02,0.36,-0.29
3612,-1.95,-0.27,3.06,-0.12,0.2,-0.27
3621,-1.95,-0.27,3.06,-0.08,-0.12,-0.35
3631,3.37,-4.83,9.54,0.04,-0.4,-0.22
3642,4.52,-5.32,14.09,0.19,-0.32,-0.26
3651,4.52,-5.32,14.09,0.11,0.42,-0.37
3661,1.15,-1.76,8.54,0.03,0.1,-0.42
3672,1.15,-1.76,8.54,-0.09,0.04,-0.66
3681,-0.73,-2.26,9.08,-0.09,0.16,-0.69
3692,-0.73,-2.26,9.08,-0.05,0.11,-0.69
3702,-0.73,-2.26,9.08,-0.04,-0.02,-0.62
3712,0.54,0.3,7.66,-0.05,-0.09,-0.64
3721,0.54,0.3,7.66,-0.06,-0.04,-0.68
3732,2.64,0.04,13.33,-0.04,0.05,-0.77
3741,2.64,0.04,13.33,-0.05,-0.03,-0.83
3751,6.82,1.38,13.79,-0.02,-0.14,-0.89
3762,9.42,1.38,14.78,-0.07,-0.04,-1.06
3771,9.42,1.38,14.78,-0.2,0.25,-1.41
3782,3.1,-0.46,9.69,-0.24,0.28,-1.52
3792,3.1,-0.46,9.69,-0.29,0.31,-1.64
3802,0.8,3.37,9.61,-0.35,0.33,-1.75
3811,0.8,3.37,9.61,-0.34,0.34,-1.91
3821,-2.57,-1.72,4.02,-0.31,0.47,-1.85
3832,-1.65,0.88,10.31,-0.21,0.45,-1.72
3841,-1.65,0.88,10.31,-0.14,0.41,-1.71
3852,-5.67,-0.96,16.28,-0.14,0.41,-1.71
3862,-5.67,-0.96,16.28,0.05,0.54,-1.57
3871,-1.07,-0.19,11.26,0.03,0.41,-1.39
3882,4.1,1.38,8.73,-0.03,0.32,-1.4
3891,4.1,1.38,8.73,-0.04,0.61,-1.49
3902,-6.97,-2.11,14.02,-0.03,0.93,-1.4
3911,-6.97,-2.11,14.02,0.16,0.94,-1.18
3921,-4.18,-2.87,11.22,0.24,0.74,-1.0
3932,-4.18,-2.87,11.22,0.31,0.43,-0.81
3941,-4.18,-2.87,11.22,0.35,0.24,-0.55
3952,-4.18,-2.87,11.22,0.4,0.12,-0.37
3961,-4.18,-2.87,11.22,0.38,0.24,-0.4
3972,2.99,-3.83,14.1,0.38,0.42,-0.45
3981,2.99,-3.83,14.1,0.4,0.5,-0.4
3991,1.65,-3.14,8.84,0.42,0.5,-0.29
4001,1.65,-3.14,8.84,0.39,0.64,-0.19
4011,-1.72,-2.76,7.51,0.42,0.56,-0.14
4022,-8.62,-6.63,7.32,0.46,0.54,-0.12
4031,-8.62,-6.63,7.32,0.65,0.49,0.23
4041,-8.62,-6.63,7.32,0.65,0.25,0.31
4051,-8.62,-6.63,7.32,0.66,-0.03,0.28
4061,0.3,-4.64,8.54,0.61,0.24,0.13
4072,0.3,-4.64,8.54,0.49,0.57,0.19
4081,0.3,-4.64,8.54,0.43,0.28,0.22
4092,0.3,-4.64,8.54,0.44,0.06,0.18
4101,0.3,-4.64,8.54,0.57,0.2,0.29
4112,-1.27,-1.27,6.59,0.57,0.2,0.29
4121,-1.27,-1.27,6.59,0.58,-0.09,0.54
4131,2.03,0.57,10.53,0.53,-0.05,0.42
4142,0.54,-2.87,10.69,0.44,0.24,0.37
4151,-2.57,-2.87,9.34,0.48,0.05,0.24
4161,-2.57,-2.87,9.34,0.44,0.01,0.23
4171,-2.57,-2.87,9.34,0.35,0.16,0.12
4181,-0.5,-0.3,6.51,0.35,0.16,0.12
4192,-0.5,-0.3,6.51,0.31,-0.24,0.13
4201,-0.5,-0.3,6.51,0.36,-0.07,0.1
4212,-0.5,-0.3,6.51,0.33,0.08,0.03
4221,2.41,-1.0,9.69,0.34,-0.14,-0.05
4232,2.64,-1.19,9.58,0.29,-0.04,-0.13
4241,2.64,-1.19,9.58,0.23,0.06,-0.27
4251,-4.45,-0.11,7.2,0.17,0.07,-0.29
4262,-4.45,-0.11,7.2,0.21,-0.06,-0.21
4271,-4.45,-0.11,7.2,0.24,-0.17,-0.25
4282,3.03,-2.07,11.8,0.24,-0.07,-0.28
4291,3.03,-2.07,11.8,0.27,0.09,-0.28
4301,3.03,-2.07,11.8,0.22,0.01,-0.29
4312,3.03,-2.07,11.8,0.19,-0.02,-0.33
4321,3.03,-2.07,11.8,0.15,-0.02,-0.34
4332,3.03,-2.07,11.8,0.21,-0.15,-0.3
4341,3.03,-2.07,11.8,0.21,0.09,-0.26
4352,3.03,-2.07,11.8,0.23,0.12,-0.21
4361,3.03,-2.07,11.8,0.23,-0.01,-0.16
4372,0.5,0.04,9.42,0.23,-0.01,-0.16
4382,0.5,0.04,9.42,0.21,0.1,-0.13
4391,0.5,0.04,9.42,0.22,0.03,-0.1
4402,-3.22,-2.11,9.93,0.21,0.06,-0.12
4411,-3.22,-2.11,9.93,0.24,-0.03,0.05
4422,-3.22,-2.11,9.93,0.2,-0.13,-0.03
4431,0.0,-1.49,10.65,0.21,0.04,0.01
4441,0.38,-0.65,6.63,0.21,0.04,0.01
4452,-1.0,0.5,5.98,0.19,-0.02,0.1
4461,-3.83,-1.0,3.45,0.14,0.08,0.07
4472,-3.83,-1.0,3.45,0.16,0.04,0.18
4481,7.2,2.14,20.65,0.16,0.04,0.18
4492,9.69,0.34,25.17,0.3,-0.41,0.38
4502,9.69,0.34,25.17,0.12,0.49,-0.01
4511,9.69,0.34,25.17,0.29,0.39,-0.16
4521,9.69,0.34,25.17,0.12,0.25,-0.06
4532,-7.23,6.51,-0.61,-0.2,0.15,-0.3
4541,-5.17,1.0,6.4,-0.15,-0.03,-0.47
4551,-5.17,1.0,6.4,0.09,-0.16,0.01
4562,-5.17,1.0,6.4,0.16,-0.23,0.17
4572,4.83,-1.34,12.53,0.11,0.04,0.03
4582,-1.49,-1.3,6.89,0.1,0.18,0.02
4592,-2.53,-0.77,8.01,0.09,-0.04,0.04
4601,-1.3,-0.42,9.96,0.05,-0.05,0.0
4612,0.11,-0.3,9.04,-0.05,0.09,-0.22
4621,-2.99,-0.77,7.43,-0.01,0.05,-0.24
4631,-2.99,-0.77,7.43,0.03,-0.07,-0.03
4642,4.1,-2.61,14.48,0.01,-0.13,-0.08
4651,1.19,-4.18,13.98,0.01,-0.13,-0.08
4662,-0.96,-1.99,11.46,0.02,0.23,-0.33
4671,-2.61,-0.27,7.86,0.02,0.23,-0.33
4682,-2.11,-0.08,6.63,-0.05,0.14,-0.45
4692,-2.41,-1.15,5.9,-0.11,0.11,-0.48
4701,-5.55,0.34,13.11,-0.07,0.01,-0.44
4712,-6.13,0.57,12.68,0.06,0.22,-0.34
4721,4.02,2.76,8.36,0.06,0.13,-0.23
4732,5.75,0.5,7.86,-0.03,-0.22,-0.32
4741,-1.99,-4.71,7.81,-0.03,-0.22,-0.32
4752,-0.61,-2.95,8.89,0.06,0.05,-0.25
4761,2.53,0.57,13.67,0.06,0.05,-0.25
4771,2.34,0.77,10.53,0.07,-0.04,-0.34
4782,2.11,-0.42,7.93,0.07,-0.04,-0.34
4791,1.19,-1.19,8.16,0.07,-0.04,-0.34
4802,1.19,-1.19,8.16,0.01,0.08,-0.5
4811,0.61,0.92,10.8,0.01,0.08,-0.5
4821,-2.49,0.19,8.01,0.01,0.08,-0.5
4832,-4.25,-0.11,6.4,-0.1,0.14,-0.78
4841,-0.34,0.34,9.65,-0.1,0.08,-0.74
4852,1.34,0.23,10.61,-0.04,-0.01,-0.74
4861,1.07,-1.0,11.57,-0.02,0.08,-0.75
4872,1.65,-0.57,9.61,-0.02,0.08,-0.75
4881,-2.3,0.88,8.35,-0.02,0.08,-0.75
4891,-4.56,1.8,8.5,0.03,0.26,-0.82
4901,-8.31,2.3,4.75,0.03,0.26,-0.82
4911,-8.31,2.3,4.75,0.01,0.07,-0.67
4922,-8.31,2.3,4.75,0.12,-0.22,-0.54
4832,-4.25,-0.11,6.4,-0.1,0.14,-0.78
4841,-0.34,0.34,9.65,-0.1,0.08,-0.74
4852,1.34,0.23,10.61,-0.04,-0.01,-0.74
4861,1.07,-1.0,11.57,-0.02,0.08,-0.75
4872,1.65,-0.57,9.61,-0.02,0.08,-0.75
4881,-2.3,0.88,8.35,-0.02,0.08,-0.75
4891,-4.56,1.8,8.5,0.03,0.26,-0.82
